time,seconds_elapsed,z,y,x
1772698451561489200,0.0764892578125,-0.38805180760324,-0.1146557222276926,-0.3432610642403364
1772698451571446300,0.0864462890625,-0.187997985281609,-0.39431437512934203,-0.0888311615488492
1772698451581403100,0.096403076171875,-0.10682305584065616,-0.13839490973353386,0.14651476816465145
1772698451591360000,0.106360107421875,-0.09853274534661323,-0.11797931369245052,0.08386190350260585
1772698451601317000,0.116317138671875,0.02038585848994553,0.20334113689661024,0.04970577787072397
1772698451611274000,0.12627392578125,0.14954002513680606,0.3850847744911909,0.007724287808849476
1772698451621231000,0.136231201171875,0.2250193002194166,0.41570670724809167,-0.115635965436697
1772698451631188200,0.146188232421875,0.2694394567042589,0.3609422668814659,-0.18300123644024133
1772698451641145000,0.15614501953125,0.28325755417644977,0.3136725661844015,-0.2438820407953113
1772698451651102000,0.16610205078125,0.21539218816366046,0.23709143080711365,-0.17226322226682678
1772698451661059000,0.17605908203125,0.1422660886110738,0.20077508580088615,-0.054234598673088476
1772698451671016000,0.186015869140625,0.13519172977805136,0.16112813506722448,-0.08146826809803023
1772698451680974000,0.19597412109375,0.1263368076711893,0.16860124742686747,-0.15644728377461434
1772698451690931200,0.20593115234375,0.15388707789778708,0.21974048303365706,-0.10974632287621497
1772698451700888000,0.21588818359375,0.10540336176846175,0.2765156787008047,-0.054968644002103245
1772698451710845000,0.225844970703125,0.07077040327191353,0.2757528776347637,0.0024773521822527983
1772698451720802000,0.235802001953125,0.01815408084988594,0.19439678294062612,0.00713618343929993
1772698451730759200,0.24575927734375,0.007812756110168993,0.07970715844333172,-0.05935353542228695
1772698451740716000,0.255716064453125,0.01700023463964462,-0.001007131215929985,-0.12580850034761243
1772698451750673200,0.265673095703125,0.04893905868139118,-0.042993338552117344,-0.22855647963592782
1772698451760630000,0.275630126953125,0.0769493476351723,-0.056464814543724054,-0.3605206074032932
1772698451770587100,0.285587158203125,0.1559726520001888,0.007338087803125381,-0.43042895048577334
1772698451780544000,0.2955439453125,0.17414604033874348,0.023313071048259734,-0.36867125369831916
1772698451790501000,0.305501220703125,0.15375908587025477,-0.05011807586550712,-0.22905520467199383
1772698451800458200,0.315458251953125,0.08011807733178138,-0.22252046914100646,-0.11959032908566296
1772698451810415000,0.3254150390625,0.0819862092912197,-0.3364841174513101,-0.219345017442666
1772698451820372200,0.335372314453125,0.09186698558079079,-0.3709188864946365,-0.3462798275396228
1772698451830329000,0.3453291015625,0.12498831567168235,-0.3539624909967184,-0.44966220487449315
1772698451840286000,0.355285888671875,0.13000060914205386,-0.28217794224619863,-0.44143842027802016
1772698451850243000,0.3652431640625,0.039864392876625056,-0.22889117321670055,-0.3172456023655832
1772698451860201200,0.375201171875,-0.056130486289132385,-0.15713760412633418,-0.18405775975584981
1772698451870158000,0.385157958984375,-0.12785829988373443,-0.079921093454957,-0.04763085759307723
1772698451880115000,0.395114990234375,-0.18609127487745136,-0.04838263037502765,0.020890638807462527
1772698451890072000,0.405072021484375,-0.23961128640724344,-0.0998982980787754,0.124917844251357
1772698451900029200,0.415029296875,-0.29876197903407736,-0.24459844543635845,0.08891299461340531
1772698451909986000,0.424986083984375,-0.28761633390784264,-0.3409042719811201,0.1222334366061259
1772698451919943200,0.434943115234375,-0.30418047868516296,-0.34556700309515,0.1806084960848093
1772698451929900300,0.444900390625,-0.2646341022491455,-0.27596389003694055,0.2524080232087523
1772698451939857000,0.45485693359375,-0.30310031876564025,-0.2316471939265728,0.3122225500391796
1772698451949814000,0.46481396484375,-0.3225210950830951,-0.13736264407634735,0.3007547785528004
1772698451959771100,0.474771240234375,-0.15658930432749912,-0.05016016144156456,0.37314131178446114
1772698451969728000,0.48472802734375,-0.18974923112941905,-0.1777507685661316,0.3324134339462966
1772698451979685000,0.49468505859375,-0.14095215646829456,-0.2747194429337978,0.16294755078041925
1772698451989642200,0.504642333984375,-0.06326105055510997,-0.22643501223623752,0.10502837270991876
1772698451999599000,0.51459912109375,-0.04196870821211487,-0.12373276265263557,0.11253147834902628
1772698452009556000,0.524555908203125,-0.03864566473662853,-0.0034323125362396237,0.16553595983842387
1772698452019514600,0.5345146484375,-0.011421009735204279,0.1123205572783947,0.2883133945276029
1772698452029471500,0.544471435546875,-0.01525485227704048,0.11378127748072146,0.3100277799412608
1772698452039428400,0.554428466796875,-0.056746517561934884,-0.011446692165732382,0.23309781285999343
1772698452049385500,0.564385498046875,-0.051452539339661596,0.02909808419048786,0.1232220001189038
1772698452059342300,0.57434228515625,-0.03266598753882572,0.22873510587215423,0.041788182279746976
1772698452069299500,0.584299560546875,-0.012445621808897703,0.5356494299679995,0.05144331485358998
1772698452079256600,0.594256591796875,-0.028082787934411317,0.7483066767424345,0.09350768372621386
1772698452089213400,0.60421337890625,-0.0066822542428970335,0.7704729158431292,0.1540843905681744
1772698452099170600,0.614170654296875,-0.09436753369225188,0.5156938526540994,0.34845713504608716
1772698452109127400,0.62412744140625,-0.19360592482388017,0.1678548129737377,0.4448748610001057
1772698452119084300,0.634084228515625,-0.1913917559057474,-0.0681967533916235,0.29337102497704326
1772698452129041400,0.64404150390625,-0.09294601298915221,-0.02785188352167606,0.05637392138987779
1772698452138998500,0.65399853515625,-0.06017652854323387,0.20761048477888105,-0.017811843283474443
1772698452148955600,0.66395556640625,0.01731704550385475,0.2942050646483898,-0.0865841315407306
1772698452158912500,0.67391259765625,0.13074351819753646,0.2685936535298824,-0.1884740052955225
1772698452168869400,0.683869384765625,0.18955226551890372,0.15258593217134475,-0.30229090207889675
1772698452178826500,0.693826416015625,0.19106909982264042,-0.04840834933817386,-0.4396264024199918
1772698452188783400,0.703783447265625,0.2139081236183643,-0.12563771949112415,-0.5465374653376639
1772698452198741500,0.713741455078125,0.13637830921411515,-0.16210311757922172,-0.47583479353971775
1772698452208698600,0.72369873046875,0.11265724188685416,-0.6336567997336388,0.25693660654909906
1772698452218655500,0.733655517578125,-0.2541629771173,-0.9289052359551191,0.5739175666291266
1772698452228612400,0.7436123046875,-0.11648819835186004,-0.05284428595900535,0.19516089918091892
1772698452238569500,0.753569580078125,-0.07126374887996353,0.39447570317089553,0.45398499997705216
1772698452248526600,0.763526611328125,-0.2837245871663093,0.5419529140263796,0.42991581333186474
1772698452258483500,0.7734833984375,-0.2403636026118882,0.7038660619914532,0.3324881796829402
1772698452268440600,0.783440673828125,-0.09461420192969962,0.6816279266983271,0.25097844706336037
1772698452278397400,0.7933974609375,0.1355588277910836,0.5005588273644447,-0.056673744586668906
1772698452288354300,0.803354248046875,0.23005846343040465,0.2178179905384779,-0.18912771996390074
1772698452298311400,0.8133115234375,0.36368835071921346,-0.013037176227569579,-0.24416756147211416
1772698452308268500,0.8232685546875,0.5410533348381519,0.029962592065334318,-0.3579827594887465
1772698452318225400,0.833225341796875,0.6571861438810825,0.3976794676482677,-0.4113890632446855
1772698452328182500,0.8431826171875,0.5639361977756023,0.7449182033479214,-0.27924400768615304
1772698452338139600,0.8531396484375,0.276994402128458,0.6846154180765152,-0.15308571665333584
1772698452348096300,0.86309619140625,0.11720482218861579,0.48623102680444713,0.06826117866365239
1772698452358053400,0.873053466796875,0.08757423855662345,0.21699206110835073,0.0030861294470727442
1772698452368011500,0.883011474609375,0.13330019867671652,0.042190789997577666,-0.1502082980534993
1772698452377968600,0.89296875,0.31508184846043585,0.06601473317742347,-0.3729398709282279
1772698452387925500,0.902925537109375,0.6222492705345154,0.23536533766686915,-0.502503897017613
1772698452397882400,0.91288232421875,0.9730150113165378,0.33583880528509613,-0.29597187339151276
1772698452407839500,0.922839599609375,1.0491150851786135,0.1034013377636671,0.2951863125043921
1772698452417796400,0.93279638671875,0.9242425048410892,-0.10834814651608467,0.8294085774797946
1772698452427753500,0.94275341796875,0.8436778527855873,-0.19286767367720603,1.0114751634184271
1772698452437710600,0.952710693359375,0.23919454056620595,-0.021005963149666785,0.8485276309043168
1772698452447667500,0.96266748046875,-1.4781097285449505,0.3400841877698898,0.04940477649699896
1772698452457624300,0.972624267578125,-3.171718649291992,0.4353115714281797,-0.6613541502807289
1772698452467581400,0.98258154296875,-2.1190075854480264,0.13142916237413882,-0.38847090979814525
1772698452477538600,0.99253857421875,-0.7188380056738853,0.02574702019691467,-0.46718361384402957
1772698452487495400,1.002495361328125,0.5199626160144806,0.029767946276068685,-0.5326711082769557
1772698452497452500,1.01245263671875,1.533592546314001,0.04490121800005436,-0.46604755901880557
1772698452507409700,1.02240966796875,1.8679355600833891,-0.28433424349725245,-0.3522957268282771
1772698452517366500,1.032366455078125,1.3234931673288344,-0.5806213751167059,-0.31778292411267756
1772698452527323400,1.042323486328125,0.46505146065354347,-0.5348164862751961,-0.27264272799128664
1772698452537280500,1.052280517578125,-0.2521592360794544,-0.31553426840305326,-0.21889796779491005
1772698452547238400,1.06223828125,-0.6239606775622815,0.11532616883516311,-0.051028304311912506
1772698452557195500,1.072195556640625,-0.5233680405437946,0.6344646089851856,0.07790056567909195
1772698452567152400,1.08215234375,0.0007435118436813354,0.9492372453659772,0.18082124378634615
1772698452577109500,1.092109619140625,0.6270188960891216,1.0089759670138359,0.2741351037072018
1772698452587066400,1.10206640625,1.0661153198182582,0.9631371759027242,0.39358255372345446
1772698452597023500,1.1120234375,1.0941245127934962,0.9401713108569383,0.45294904452543705
1772698452606980600,1.121980712890625,0.9611785161156207,0.8470154727756977,0.36291933910809454
1772698452616937500,1.1319375,0.7485164470355957,0.5768026936113834,0.16526823054663836
1772698452626894600,1.14189453125,0.5190892672460526,0.3604308102279901,-0.03436484561227262
1772698452636851500,1.1518515625,0.13257877080067992,0.33990357050597664,-0.11533479053303598
1772698452646808300,1.161808349609375,-0.3645511050283909,0.2141571299433708,-0.05959372368659824
1772698452656765400,1.171765380859375,-0.5378817190647125,0.20687457171976564,-0.03889852525284514
1772698452666722600,1.18172265625,-0.39438049916811285,0.44586745223402974,-0.015365893169771879
1772698452676679400,1.191679443359375,-0.17233809586763382,0.6817196966350079,-0.02919935260787606
1772698452686636500,1.201636474609375,0.11656309021897614,1.0446785640358924,-0.06174865496447309
1772698452696593400,1.211593505859375,0.35006438757963476,1.3904630092740058,-0.1331457205010578
1772698452706550300,1.22155029296875,0.46172794225402175,1.7164233946233987,-0.20339149711066856
1772698452716507400,1.23150732421875,0.31493688703179357,1.8721838651776312,-0.23935537541741503
1772698452726465500,1.241465576171875,-0.0412040439825505,2.0025304930120704,-0.24332663540225474
1772698452736422700,1.251422607421875,-0.38033889513835306,2.356787583041191,-0.2546454451383091
1772698452746379300,1.261379150390625,-0.45748774740099907,2.7192770793646575,-0.3014221746866591
1772698452756336400,1.27133642578125,-0.3151671886563301,2.8864041625857353,-0.3732255560018122
1772698452766293500,1.28129345703125,-0.11240465536527335,3.009882658216357,-0.25389930294612423
1772698452776250400,1.29125048828125,-0.43888592278361316,3.3069337599456308,-0.19961482811616732
1772698452786207500,1.30120751953125,-0.8541045542538166,3.6342461444258687,-0.31768099810816347
1772698452796164600,1.31116455078125,-1.0564121833842246,3.882344122415781,-0.27943240639772265
1772698452806121500,1.32112158203125,-1.1982616174858063,4.140528610134124,-0.31543928359597917
1772698452816078300,1.331078369140625,-1.2775871562004089,4.299873953437805,-0.5917465802431107
1772698452826035500,1.341035400390625,-1.2687608756661415,4.205646102210879,-0.8029938140891492
1772698452835992600,1.35099267578125,-1.1456943949025125,4.121630432918668,-0.9978126948993652
1772698452845949400,1.360949462890625,-1.0847404522459954,3.6887042953222986,-1.056634082506597
1772698452855906600,1.370906494140625,-1.1378430968802422,2.894021067330241,-0.8589056709252297
1772698452865863700,1.38086376953125,-1.2833715848207472,1.9532903690248726,-0.6189075588911771
1772698452875820300,1.3908203125,-1.3978876063168049,0.7469079158604145,-0.20000954478848723
1772698452885777400,1.40077734375,-1.24299412785545,-0.5483101740986108,0.1723732037136331
1772698452895734500,1.410734619140625,-0.7327052760500461,-2.0199778868973253,0.3691016079396009
1772698452905692700,1.420692626953125,0.39224122211709617,-3.1723037557035685,0.7499749022155999
1772698452915649500,1.4306494140625,1.85534978088513,-4.444082517886161,1.1730907897416503
1772698452925606400,1.4406064453125,3.0580700582802294,-6.16856237771511,1.3317600604146718
1772698452935563500,1.4505634765625,3.6474306201696396,-8.67030028348267,0.9172670398052781
1772698452945520400,1.460520263671875,3.285164995729923,-11.631134540891647,0.528353245077841
1772698452955477500,1.4704775390625,2.141431014180183,-14.619024563008546,0.4883898488061502
1772698452965434600,1.4804345703125,0.8718133755542338,-17.038483414018152,0.6137620857615024
1772698452975391500,1.4903916015625,-0.23672442412562666,-18.357468748533723,0.6814426332592963
1772698452985348400,1.500348388671875,-0.6494504350624978,-18.30273879495859,0.5603297707814723
1772698452995305500,1.510305419921875,-0.003606500059366226,-17.022942146015165,0.3826800514370203
1772698453005262300,1.520262451171875,1.3910533763825892,-15.218118583405017,0.3050629240754992
1772698453015219500,1.530219482421875,3.0660815153002736,-13.344424313664435,0.3163147512562573
1772698453025176000,1.540176025390625,4.553856897813081,-11.83249297953844,0.4842353229425847
1772698453035133000,1.5501328125,4.99844073997736,-11.220628324896097,0.7055296843547374
1772698453045090000,1.560090087890625,3.8874341390311717,-10.9846241048038,0.9152881409477442
1772698453055047000,1.570046875,1.758033608254045,-10.016240844941139,1.2824611919775604
1772698453065003800,1.580003662109375,-0.28247736358419057,-8.532593356013297,1.6691911033272742
1772698453074961000,1.5899609375,-1.467287890279293,-6.586243599906563,2.0422659988120198
1772698453084919000,1.5999189453125,-1.5668261228740215,-4.159225127297639,2.2031156091988087
1772698453094876200,1.609876220703125,-0.9440893610835075,-1.8007430152982473,1.9362180920623242
1772698453104832800,1.619832763671875,-0.23383922407813368,0.148474989721179,1.6198440118342636
1772698453114790000,1.629789794921875,-0.0003962327759712934,1.831393005105853,1.2211001298248767
1772698453124747000,1.6397470703125,-0.27572825465016065,3.2410528822809455,0.8447489891484379
1772698453134703900,1.649703857421875,-0.907578954809904,4.07399423699677,0.7107366784133017
1772698453144661000,1.659660888671875,-1.8783786281645296,4.477337721756101,0.48299072970896956
1772698453154618000,1.6696181640625,-2.4890777461588383,5.127002237960696,-0.22671558274328707
1772698453164575000,1.679574951171875,-2.2573814523935316,6.306976576671004,-1.2138050043806432
1772698453174531800,1.68953173828125,-1.4460545481145382,7.6996777202606195,-2.143957171656936
1772698453184489000,1.699489013671875,-0.5686521934468299,9.036068947607278,-2.808903866536915
1772698453194445800,1.70944580078125,-0.005092500833421945,10.264036040592194,-3.2170471527934072
1772698453204403000,1.71940283203125,0.24829671543240545,11.217111841207743,-3.4689573825478552
1772698453214360000,1.729360107421875,0.5155132353901862,12.09821896867752,-3.4786116383388634
1772698453224317200,1.739317138671875,0.9456511305075138,12.431193032181262,-3.3124548614546656
1772698453234273800,1.749273681640625,1.3693816428005694,12.420177132648229,-3.2054496539801356
1772698453244231000,1.75923095703125,1.3164134382009505,12.102435709589718,-3.060389441138506
1772698453254188000,1.76918798828125,0.7684428713202476,11.509592566281556,-2.9050837286144495
1772698453264145000,1.779144775390625,0.23164010659866033,10.962768831348418,-2.9530925572410225
1772698453274103000,1.78910302734375,-0.01103445810303092,10.359441703426837,-2.923797196912765
1772698453284060000,1.799059814453125,-0.005496916915848851,9.694361591425537,-2.743254167279601
1772698453294017000,1.80901708984375,-0.03700739601030945,9.011697307416796,-2.6097560896769165
1772698453303974000,1.818973876953125,-0.19252645902410148,8.517726626271008,-2.436332390529662
1772698453313931000,1.828930908203125,-0.2711164500057697,8.184141737392544,-2.1615769994996485
1772698453323888000,1.83888818359375,-0.3033141076467931,7.875526454597711,-1.8108083361081777
1772698453333845000,1.848844970703125,-0.4361154351569712,7.474506444349885,-1.544422567886114
1772698453343801900,1.8588017578125,-0.6958114964820444,7.271288057050109,-1.357861447007209
1772698453353759000,1.868759033203125,-0.9303086730122566,7.204044658860564,-1.1659775236703456
1772698453363715800,1.8787158203125,-1.1185037517685443,7.030205510780215,-1.0386822462305425
1772698453373673000,1.8886728515625,-1.221569135576114,6.767339002725482,-1.073233481260389
1772698453383630000,1.898630126953125,-1.1153821856819093,6.58969987784028,-1.227782822459191
1772698453393587000,1.9085869140625,-1.0683457092188298,6.512409717410803,-1.3494571912772952
1772698453403544000,1.9185439453125,-1.178587706657499,6.385018432250619,-1.548301016754657
1772698453413501000,1.9285009765625,-1.3419650819562374,6.200056417131424,-1.5416173012070358
1772698453423457800,1.938457763671875,-1.5809223066352307,5.536992321127653,-1.287308924269676
1772698453433415000,1.948414794921875,-1.9414156607054174,4.424065565773844,-1.1768500692099333
1772698453443372000,1.9583720703125,-2.356655481094122,3.239953981128335,-1.0435039672985673
1772698453453330000,1.968329833984375,-2.4853543417215347,2.2001427308678627,-0.8448958502732217
1772698453463286800,1.978286865234375,-2.289353922976553,0.8703770591408013,-0.2998265577919781
1772698453473244000,1.988243896484375,-1.864541825991869,-0.5499608639150858,0.25686156855151054
1772698453483201000,1.998200927734375,-1.2133752346612512,-1.7671669089108704,0.747801211438328
1772698453493158000,2.008157958984375,-0.21209508284702897,-2.473805358225107,1.3072064877860248
1772698453503115000,2.018114990234375,1.406907948118448,-3.005201806923747,1.506677797511965
1772698453513072000,2.028072021484375,2.8078549420058727,-3.907659765458107,1.2960364206045865
1772698453523028700,2.03802880859375,3.091277039094269,-5.279263760483264,1.1566832602981478
1772698453532985900,2.04798583984375,2.354620468135178,-6.995772495302558,1.2567191402167082
1772698453542943000,2.05794287109375,1.7261740965262053,-8.457901395383477,1.1472006347469985
1772698453552900000,2.067900146484375,1.835756314881891,-10.164092149806022,0.6641564943503588
1772698453562857000,2.07785693359375,2.396135258567333,-12.148894678425789,0.17596563871502877
1772698453572814000,2.08781396484375,2.159702145538479,-14.380713819539546,0.04115187540389597
1772698453582771000,2.09777099609375,0.711863490486145,-16.213106941598653,0.12940255191735922
1772698453592727800,2.107727783203125,-0.8842142997048795,-16.932601949876545,0.5584323396623134
1772698453602685000,2.117684814453125,-1.3505540466032921,-16.23946887882352,1.139121884644404
1772698453612642000,2.12764208984375,-0.31905323630943894,-14.106464332205057,1.9762156097993253
1772698453622599000,2.137598876953125,1.463535259747505,-11.293404807293415,3.0731688432127235
1772698453632556000,2.14755615234375,3.0274761825740337,-8.453422788664698,4.147532935938239
1772698453642514000,2.157513916015625,3.938255979251861,-6.049412266677618,4.743752862203121
1772698453652471000,2.167470947265625,3.709170160245895,-4.628617247503995,4.552441770318151
1772698453662428000,2.177427978515625,2.269837613862753,-4.103533050692081,3.688362350016832
1772698453672385000,2.187385009765625,0.5217931924425065,-3.7186283089429137,2.353081129738688
1772698453682342100,2.197342041015625,-0.5605800192154944,-2.965739565107226,0.9314317587580532
1772698453692299000,2.207299072265625,-0.7075685697712004,-1.763896508938074,-0.3037717882864177
1772698453702255900,2.217255859375,-0.36011356097236275,-0.48693128402829167,-1.2342319985985755
1772698453712213000,2.227212890625,-0.13000365961566568,0.7096575048744678,-1.9192549745626746
1772698453722169900,2.237169921875,-0.015306144072860479,1.686110673946142,-2.185029917410016
1772698453732127000,2.247126953125,0.05983999006524682,2.437240006893873,-1.9086933946684002
1772698453742084000,2.257083984375,-0.016130612198263405,3.0203818403989073,-1.21724528102763
1772698453752041000,2.267041015625,-0.45973801054582,3.2920962562978264,-0.3100352325953543
1772698453761997800,2.276997802734375,-1.13250166278705,3.245540841349959,0.45990196893587704
1772698453771955000,2.286954833984375,-1.5690391227483749,2.9792618945032356,0.948092459245026
1772698453781911800,2.296911865234375,-1.6279028151273727,2.877805261066556,1.0909588153041898
1772698453791869000,2.306868896484375,-1.3020540734589099,2.9779250929415224,0.8914777148365974
1772698453801826000,2.316825927734375,-0.7745815202057361,3.2027848186850547,0.4912754507124424
1772698453811783200,2.326783203125,-0.3393759664352983,3.6913977721899744,0.05036890882141888
1772698453821740000,2.336739990234375,-0.11758147348128259,4.242912295287847,-0.3825294639851898
1772698453831698000,2.346697998046875,-0.022907412856817244,4.6802504041075705,-0.6158312932509928
1772698453841655000,2.356655029296875,-0.04534589302763343,5.001551565474271,-0.6379991397868842
1772698453851612000,2.36661181640625,-0.14920038138628006,5.260451507985591,-0.6598699030723423
1772698453861569000,2.376569091796875,-0.08900149488076567,5.483260730940104,-0.8171366134710609
1772698453871526000,2.38652587890625,-0.03816898713558912,5.482284579384326,-1.0677863948356359
1772698453881483000,2.39648291015625,-0.12783259918689727,5.231067008069157,-1.206228504711762
1772698453891439900,2.40643994140625,-0.3085797000247985,4.841590720620751,-1.3407999836996196
1772698453901397000,2.41639697265625,-0.7509190511979162,4.338988404729962,-1.3663447593227027
1772698453911354000,2.42635400390625,-1.4384557635486126,3.8636721551716326,-1.3569927013486622
1772698453921311000,2.43631103515625,-1.7883248477518559,3.884600376909971,-1.2526906153529882
1772698453931268000,2.44626806640625,-1.4975569179452954,4.206981734728813,-1.0540245575953275
1772698453941225000,2.456224853515625,-0.972326444530487,4.376021958094835,-0.5657062031228095
1772698453951181800,2.466181884765625,-0.6260076001547277,4.334502199226618,-0.06195574011020362
1772698453961139000,2.476138916015625,-0.6083129535101354,4.089107634976506,0.24441651299819347
1772698453971096000,2.486095947265625,-0.6709959119163453,3.6942642675369974,0.44875133710727094
1772698453981053000,2.496052978515625,-0.47602775882855053,3.1950907570511102,0.6092254652451723
1772698453991010000,2.506010009765625,-0.14200857018604873,2.4688451054692266,0.6535544363152236
1772698454000967000,2.515966796875,0.030751550485938785,1.5709563545465468,0.3752432524997741
1772698454010923800,2.525923828125,0.08337284134402871,0.5123439577043056,-0.08149331120774149
1772698454020882000,2.5358818359375,0.19640651532784104,-0.8189327031075954,-0.13778890666440127
1772698454030839000,2.545839111328125,0.3567350244499743,-2.40447755497694,0.05738287923671305
1772698454040796000,2.5557958984375,0.37452538655400275,-4.114149137252569,0.4444305512987077
1772698454050752800,2.565752685546875,0.4103729450047016,-5.781832174104451,0.6395123208288103
1772698454060710000,2.5757099609375,0.7122947215102613,-7.140218375638127,0.5817720795217901
1772698454070666800,2.585666748046875,1.3353694830834866,-8.410288580337166,0.5129112361982464
1772698454080623900,2.595623779296875,1.913438251107931,-9.762011232328414,0.5997339257352053
1772698454090581000,2.6055810546875,2.1691689159333705,-10.763984627103804,0.8112938057269901
1772698454100537900,2.615537841796875,2.3159927774466573,-11.419807665938139,0.8685712518278509
1772698454110495000,2.625494873046875,2.814876218944788,-11.888791789865493,0.6172821496464311
1772698454120451800,2.635451904296875,3.8128783720016477,-12.36935295433998,-0.11231799999512732
1772698454130409000,2.645408935546875,4.948237323915958,-13.198406069445609,-0.9442717319130897
1772698454140365800,2.65536572265625,5.492719464159012,-14.31608440324068,-1.0656682336378842
1772698454150323000,2.665322998046875,4.926985277050734,-15.432226613509654,-0.38488954418003557
1772698454160280000,2.675280029296875,3.145557787597179,-16.334099465632438,0.8260118477135896
1772698454170237000,2.68523681640625,0.7893535574018955,-16.170545564723014,1.9840961339160799
1772698454180193800,2.69519384765625,-1.3034031499803065,-14.372104981148242,2.5772151715561744
1772698454190151000,2.70515087890625,-1.920651105096191,-11.42760051177144,2.2355910608679053
1772698454200108800,2.71510888671875,-1.1121265448868274,-8.258743097129464,1.3494652284532784
1772698454210066000,2.72506591796875,-0.48522448011040686,-5.114762934112549,0.5691586451316252
1772698454220023000,2.73502294921875,-0.4105775276660919,-2.104120397439599,0.22376813111454247
1772698454229980000,2.74497998046875,-0.6736063866756856,0.6492968519359826,0.2573784320324659
1772698454239936800,2.754936767578125,-1.0716120175383985,3.2986703739911314,0.34901297883056104
1772698454249894000,2.764893798828125,-1.2368810518026352,5.874399398642778,0.35641770212911067
1772698454259851000,2.77485107421875,-0.964666869688034,8.206514312720298,0.2727008696530014
1772698454269807900,2.784807861328125,-0.6438473543584347,9.877663564378022,0.14621252468191087
1772698454279765000,2.794764892578125,-0.7427988731063901,10.670002859592437,0.20228885136470198
1772698454289721900,2.804721923828125,-1.562221405557543,10.99978777166605,0.1700097259853035
1772698454299678700,2.8146787109375,-2.5876386581540105,11.356522649985552,-0.19143939443975685
1772698454309635800,2.8246357421875,-3.195913179349899,11.813704107916355,-0.9222212281465529
1772698454319593000,2.834593017578125,-3.2695173447430133,12.099979548609255,-1.921296417262405
1772698454329549800,2.8445498046875,-2.774114000445604,12.34016660734415,-2.6064798444852233
1772698454339507000,2.8545068359375,-1.904340752416849,12.720947547161579,-2.772609441101551
1772698454349464000,2.864464111328125,-1.1614109464071691,13.089061897629499,-2.326141684886813
1772698454359420700,2.874420654296875,-0.7588331853233278,13.116285420119763,-1.6322594029016793
1772698454369377800,2.884377685546875,-0.5474573566615581,12.859219707298278,-1.0013232603035866
1772698454379335000,2.8943349609375,-0.3864204070091247,12.29190146586895,-0.5842979812702164
1772698454389292000,2.9042919921875,-0.41758243799209593,11.422660132759809,-0.2548142806328833
1772698454399250000,2.91425,-0.7576340386666357,10.51686046258211,-0.08539762516990304
1772698454409206800,2.924206787109375,-1.0804933892607689,9.663570731842517,-0.12371354649551213
1772698454419164000,2.934163818359375,-1.3243605978131294,8.839388437643647,-0.19893296506553887
1772698454429120800,2.944120849609375,-1.5393091703951358,8.482803196927904,-0.5258210962517187
1772698454439078000,2.954077880859375,-1.38424004310593,8.248105383259057,-0.935507410699129
1772698454449035000,2.964034912109375,-1.012785880690813,8.058339767250418,-1.2262075359664857
1772698454458991900,2.973991943359375,-0.8883538837276399,7.831883127704263,-1.298984456755221
1772698454468948700,2.98394873046875,-1.0686543367765844,7.4920444391280405,-1.292389588534832
1772698454478905900,2.99390576171875,-1.2247123289726674,7.251309683382511,-1.3353569158628582
1772698454488863000,3.003863037109375,-1.2987081240318714,6.827261848768591,-1.290128950126469
1772698454498819800,3.01381982421875,-1.3363291218958795,6.197832311341166,-1.2006873833280056
1772698454508777000,3.02377685546875,-1.4275612984381616,5.642514304307102,-1.2510334957957268
1772698454518734000,3.033734130859375,-1.3475930048406124,5.188245518952608,-1.3018869001984597
1772698454528690700,3.043690673828125,-0.7587140889883041,4.596579018208384,-1.2585301351614295
1772698454538647800,3.053647705078125,-0.02887172808870673,3.428718895661831,-0.8971068067647516
1772698454548605000,3.06360498046875,0.44815877804160115,1.8357628907531498,-0.16834241382759063
1772698454558561800,3.073561767578125,0.578640430432558,0.05924070899784565,0.6604819705560803
1772698454568519000,3.083518798828125,0.6210625449679792,-1.811155688241124,1.479024213041365
1772698454578476000,3.09347607421875,1.2165056416414677,-3.6662732678055763,2.026373433153331
1772698454588434000,3.103433837890625,2.457417702525854,-5.4859553768515585,2.252488273524493
1772698454598390800,3.113390869140625,3.6639492087721823,-7.532115752753615,2.2597699549652637
1772698454608348000,3.123347900390625,4.044388787806034,-9.796805482333898,2.1794225989222524
1772698454618305000,3.133304931640625,3.246535113084316,-12.121069098389148,2.166824983155727
1772698454628262000,3.143261962890625,1.1995838790655136,-14.620966344726085,2.1185341227173806
1772698454638218800,3.15321875,-1.1592376940213143,-16.37491779823303,1.7619119109921155
1772698454648175900,3.16317578125,-2.4472435145139695,-16.48071859835386,0.9719770465709269
1772698454658132700,3.1731328125,-1.930596306657791,-15.375301195716856,0.00958038683719933
1772698454668089900,3.18308984375,-0.1559083545923233,-13.742449818271398,-0.3915137846253812
1772698454678047000,3.193046875,1.1823825688958167,-11.819261742043494,-0.03383249230124056
1772698454688003800,3.20300390625,1.480182443165779,-9.548255084401369,1.194747325754538
1772698454697961000,3.2129609375,1.254376961004734,-7.287525490623712,2.65819278832674
1772698454707917800,3.222917724609375,1.0274034579776228,-5.3990352182894945,3.4537191891446706
1772698454717874700,3.232874755859375,0.8422035424493253,-4.239994946536422,3.29445830925405
1772698454727831800,3.242831787109375,0.5437747956912964,-3.643975511279702,2.2814937109954654
1772698454737789000,3.252788818359375,-0.0350748935777694,-3.157181005373597,0.8340842411406337
1772698454747746000,3.26274609375,-0.586303439341113,-2.4749177033811804,-0.5691085589122027
1772698454757703700,3.27270361328125,-0.6827508663136511,-1.6383751093029975,-1.5967122887022793
1772698454767660800,3.282660888671875,-0.38725167020149526,-1.0745984860032796,-2.1130790721818804
1772698454777618000,3.292617919921875,-0.015666355687379837,-0.6210884100615978,-2.082953106248379
1772698454787574800,3.30257470703125,0.16193945145010946,-0.02975216418504715,-1.5492026417694984
1772698454797532000,3.312531982421875,0.1717663603942841,0.5405027152180671,-0.7028215213745832
1772698454807489000,3.322489013671875,0.17057868497967718,0.9516583350330591,0.19570793860442937
1772698454817446000,3.33244580078125,0.15723989545702932,1.2588666736394165,0.9825613497536629
1772698454827402800,3.34240283203125,-0.061233417185023425,1.4961755465894937,1.5601061669692395
1772698454837359900,3.35235986328125,-0.11097034824583679,1.86674021281898,1.7277952679872512
1772698454847317000,3.36231689453125,0.05156063935663551,2.255049794575572,1.3227785893186925
1772698454857273900,3.37227392578125,0.19429390708804128,2.626615162280202,0.6641909080766141
1772698454867231000,3.38223095703125,0.20209840682651847,3.004828881958127,0.058791138599440455
1772698454877187800,3.392187744140625,0.11869294185452163,3.384771617385745,-0.5045877175543457
1772698454887144700,3.402144775390625,-0.0009679317167028785,3.715402917155623,-0.9801432557612657
1772698454897101800,3.412101806640625,-0.10410689221713691,4.090117104279995,-1.24903209284544
1772698454907059000,3.422058837890625,-0.09624499973561614,4.549806745639443,-1.2745524646796285
1772698454917015800,3.432015869140625,0.02675363995619118,5.026883575129509,-1.0396141933184115
1772698454926973000,3.441972900390625,0.15153503487892447,5.477444153615832,-0.7639080043695866
1772698454936930000,3.451929931640625,0.05826280387639999,5.7349763149052855,-0.49226161220557985
1772698454946888000,3.461887939453125,-0.1214180925020948,5.904928976941108,-0.297985533035174
1772698454956844800,3.4718447265625,-0.11054127264618872,5.9666924824148415,-0.32119759139437226
1772698454966802000,3.481802001953125,0.08716741132140159,5.7431759879738085,-0.5232786452272906
1772698454976759000,3.491759033203125,0.19118775776624677,5.433443099325895,-0.8982868833947926
1772698454986716000,3.5017158203125,0.03885426598601043,5.118381709131598,-1.2626665043137968
1772698454996672800,3.5116728515625,-0.184756847935915,4.718009349137544,-1.4434554715320467
1772698455006630000,3.5216298828125,-0.3880348564684391,4.183943388968706,-1.4854019313797353
1772698455016586800,3.531586669921875,-0.6250246535319834,3.463347725972533,-1.4650333893507719
1772698455026543900,3.5415439453125,-1.036913848318532,2.753385100671649,-1.424807615815848
1772698455036501000,3.5515009765625,-1.3083423599481583,2.143615957003832,-1.4120663537949323
1772698455046458000,3.5614580078125,-1.313783089697361,1.5524416236907244,-1.3616013641878961
1772698455056415000,3.5714150390625,-1.1336906533759086,0.7618237454414367,-1.3051290969900786
1772698455066371800,3.581371826171875,-1.099359417772293,-0.22505787866413593,-1.0688668104834853
1772698455076329000,3.591328857421875,-1.1390589024107902,-1.2060972064822912,-0.3918587256055325
1772698455086286000,3.6012861328125,-0.9246165988504886,-2.225532023668289,0.7764830429781228
1772698455096243000,3.611242919921875,-0.3141185563862324,-3.452254669550061,2.092198050586134
1772698455106200000,3.621199951171875,0.18932079485058784,-4.840899815747141,3.1560479096904395
1772698455116157000,3.631156982421875,0.38990532651543613,-5.883144430634379,3.504793542821705
1772698455126113800,3.64111376953125,0.8624187205474824,-6.804561356660724,2.9382740505546328
1772698455136072000,3.651072021484375,2.092780234388262,-7.78515060262382,1.4780223425224424
1772698455146029000,3.661029052734375,3.401604094243049,-8.689468509811162,-0.35127394603248685
1772698455155986200,3.670986083984375,4.328460580974817,-9.85209774596691,-1.74562669275403
1772698455165942800,3.68094287109375,4.612928679984807,-11.485373486304283,-2.3672174993798136
1772698455175900000,3.69089990234375,4.352425978451967,-13.3573200355947,-2.054391905413568
1772698455185857000,3.70085693359375,3.67275678460598,-15.55376040481329,-0.9241662247344851
1772698455195814000,3.71081396484375,2.8326912770986556,-17.932119183671475,0.6454201566331088
1772698455205771000,3.72077099609375,1.6442904708266257,-19.888263773083686,2.5924799607053397
1772698455215728000,3.73072802734375,0.020263035827875135,-20.22643540523052,4.53356755850017
1772698455225685000,3.74068505859375,-1.2172445503752678,-18.702346015799044,5.83429827440083
1772698455235641900,3.750641845703125,-1.3890800304830073,-15.929699165296554,6.139342128449678
1772698455245599000,3.760598876953125,-0.5430605830073356,-12.62159285444021,5.538370623743534
1772698455255555800,3.770555908203125,0.3786239809792489,-9.122052117580175,4.7021840034961695
1772698455265513000,3.780512939453125,0.5127974736254662,-5.74142183778286,3.796488378214836
1772698455275470000,3.790469970703125,-0.1045557684957981,-2.6091034709870815,2.784483418768644
1772698455285427000,3.800427001953125,-1.1013364169336854,0.2636059282451868,1.468686358900368
1772698455295383800,3.8103837890625,-1.8112895437538623,2.9200264462023973,-0.17823599479980765
1772698455305341000,3.8203408203125,-1.9713154166676103,5.336890020021796,-2.1079439012505112
1772698455315298000,3.830298095703125,-1.7015467280089853,7.367942258641123,-3.978392174807191
1772698455325256000,3.840255859375,-1.3309703713417051,8.737460095041989,-5.285079753285646
1772698455335213000,3.850213134765625,-1.3642273287773132,9.345503730091451,-5.537990684515237
1772698455345170000,3.860169921875,-1.9970774883031843,9.665976623940468,-4.842905602611601
1772698455355126800,3.870126708984375,-2.7821476692974567,10.100563972747326,-3.6063755562037225
1772698455365084000,3.880083984375,-2.9597523073911667,10.89952356288433,-2.5054253621086477
1772698455375041000,3.890041015625,-2.2098948940753935,11.906062073618173,-1.614141270148009
1772698455384998100,3.899998046875,-0.9898972455997019,12.719434804511069,-0.7730190201293676
1772698455394955000,3.909955078125,0.1698888760846108,13.260290570950508,-0.003641279111802578
1772698455404911900,3.919911865234375,0.9592529548805206,13.288452835595606,0.5168664766300469
1772698455414869000,3.929868896484375,1.1148036551415919,12.902122444957493,0.7734056082941592
1772698455424825900,3.939825927734375,0.6961971347987651,12.18988369141817,0.6478013526812195
1772698455434783000,3.949782958984375,0.100187198022753,11.284537610226868,0.11068762231431901
1772698455444740000,3.959739990234375,-0.45248080595917994,10.202948826944828,-0.6000831775642931
1772698455454697000,3.969697021484375,-1.0940810389779507,9.13716668460369,-1.2642721859447656
1772698455464654000,3.979654052734375,-1.8091034318864345,8.216081767010689,-1.7578429079875348
1772698455474611000,3.98961083984375,-2.4128549226999283,7.589942503300309,-1.8913517992451785
1772698455484567800,3.99956787109375,-2.6901380786418914,7.295397246912121,-1.8149137256003915
1772698455494525000,4.00952490234375,-2.548066526222229,7.32134242002964,-1.6240128219515084
1772698455504482000,4.01948193359375,-1.9441034384846687,7.577599739077687,-1.3616180230617523
1772698455514440000,4.02943994140625,-1.0772937164366245,7.922406279194354,-1.0919811440892517
1772698455524396800,4.039396728515625,-0.505026912689209,7.999261555337905,-0.7131396479018032
1772698455534354000,4.04935400390625,-0.6015422172661871,7.689387796914577,-0.2594501602726057
1772698455544311000,4.05931103515625,-1.3443265503905713,7.244830258235335,-0.05830229563657194
1772698455554268000,4.069267822265625,-1.9266028531074524,6.926978945061564,-0.3524063110632822
1772698455564225000,4.07922509765625,-1.6940015733264386,6.5167842792332165,-0.88125267342031
1772698455574182100,4.08918212890625,-0.849562892236188,5.8983554437696935,-1.196947977603972
1772698455584138800,4.099138671875,-0.15797405495047567,5.3451528214544055,-1.1953965103782713
1772698455594095900,4.109095947265625,0.12254384512901305,4.200805676442385,-0.7143404019936919
1772698455604053000,4.119052978515625,0.2572493988253176,2.3267601090461016,-0.07563596348166465
1772698455614009900,4.129009765625,0.18158771638050675,-0.12442775917947292,0.13573310664575547
1772698455623967000,4.138967041015625,0.14711246919631957,-2.4317168595582244,0.22923140148911625
1772698455633924000,4.148924072265625,0.3625812662601471,-4.2136534675776955,0.4821810572938993
1772698455643881000,4.158880859375,0.5665595320165157,-5.571400202164053,1.0206994302943349
1772698455653837800,4.168837890625,0.6463770189665258,-6.7843485897153615,2.0255966035619375
1772698455663795000,4.178794921875,0.750727328018099,-7.571168829247355,3.105956721831858
1772698455673752000,4.188751953125,1.2357507325984536,-7.398408124053478,3.592978314492106
1772698455683709000,4.198708984375,2.8839643682181832,-6.032961482614279,2.691412336361408
1772698455693666000,4.208666015625,6.025114860767125,-5.26683331797719,0.985641707047075
1772698455703624000,4.2186240234375,8.568590552067755,-7.6105468999117605,-0.36340686689671126
1772698455713581000,4.2285810546875,7.214960605150461,-12.42160921127796,-0.4912582073166966
1772698455723538000,4.238537841796875,1.8652081809461116,-16.60299356341362,0.3813224993482232
1772698455733495000,4.2484951171875,-3.6569478055775164,-19.082067801952363,1.7927639992430806
1772698455743452200,4.2584521484375,-6.406565662670135,-18.38687019958496,2.6108731110081074
1772698455753409000,4.268408935546875,-5.308085365819931,-14.80508723284602,2.8770339844331145
1772698455763366000,4.278365966796875,-0.8645359318971634,-10.565422541177272,2.6397937928050754
1772698455773323000,4.288322998046875,3.882375686597824,-7.036380984544754,2.201575394019484
1772698455783279900,4.29827978515625,6.4090510497450826,-4.592374552255869,1.4860133412763477
1772698455793237000,4.308237060546875,5.827129113423824,-3.3230876068890094,0.7901355015598237
1772698455803194000,4.318194091796875,3.1523043392479417,-2.8111528145074844,0.23582784061208367
1772698455813151000,4.32815087890625,0.4685772236268967,-2.2180770314872262,-0.04934752988442778
1772698455823107800,4.33810791015625,-1.0361481246430426,-1.3718465716093777,-0.08769618443585932
1772698455833065000,4.34806494140625,-1.5496563768863678,-0.3696177407681942,-0.1895994656614959
1772698455843021800,4.358021728515625,-1.5154267750263213,0.7895511258006095,-0.42291904977969824
1772698455852979000,4.36797900390625,-1.1349614039640874,2.16784555837512,-0.9402375810261815
1772698455862936000,4.37793603515625,-0.5196258583407849,3.4821067869782447,-1.54008483094275
1772698455872893000,4.387892822265625,-0.035599721169471736,4.633602050179243,-1.9179913843676446
1772698455882850000,4.39785009765625,0.21182254951596258,5.579030550912022,-2.0042878580734134
1772698455892808000,4.407807861328125,0.3902221373796463,6.242825299277901,-1.8065443950533866
1772698455902765000,4.41776513671875,0.4365571145098656,6.593050357311964,-1.3844418492883444
1772698455912722000,4.427721923828125,0.2926397150278091,6.55501084177494,-0.903071414257586
1772698455922679000,4.437678955078125,-0.11904263207502662,6.178349027714133,-0.4926157594054937
1772698455932636000,4.447635986328125,-0.63445642567873,5.729215851682424,-0.31751068304255603
1772698455942592800,4.4575927734375,-1.0557143373131752,5.169422160539031,-0.4337869556767866
1772698455952550000,4.4675498046875,-1.4865186604499816,4.576555051833391,-0.653719929075241
1772698455962507000,4.477507080078125,-1.5207786574482918,4.450778216132521,-0.8812095649309456
1772698455972464000,4.487464111328125,-0.8554010238051414,4.72519779933691,-1.0264370971634984
1772698455982421000,4.4974208984375,0.12480850212536751,5.102346520131826,-1.051411963944137
1772698455992378000,4.507378173828125,0.9326175344765186,5.184881595477462,-1.142551493766904
1772698456002335000,4.5173349609375,1.303730482238531,5.09402175937891,-1.2552967061981557
1772698456012291800,4.527291748046875,1.3087176230013369,4.753299273705482,-1.478916076491773
1772698456022249500,4.53724951171875,1.2586509850621224,4.150091972771286,-1.4696620720647275
1772698456032206300,4.547206298828125,1.0110942743420601,3.065693392765522,-1.1123761357337236
1772698456042163500,4.55716357421875,0.014646876446530222,1.6786708793342113,-0.4096360090322792
1772698456052120300,4.567120361328125,-1.6616250519871711,0.26323709493279457,0.39666349553875624
1772698456062077200,4.5770771484375,-3.3179344619095326,-0.6444587642550468,0.8970794803664087
1772698456072034300,4.587034423828125,-4.426425280642509,-0.4753232638210058,0.8004040167916565
1772698456081992400,4.596992431640625,-4.2397102843761445,0.5889496430009603,0.3305585267946124
1772698456091949600,4.606949462890625,-2.8059961623966694,2.0636182911813257,-0.17833543658629059
1772698456101906200,4.61690625,-1.0263445235092192,3.2926433687865733,-0.6207824128523468
1772698456111863300,4.62686328125,0.2617091547131538,4.196165741682052,-0.827418353510648
1772698456121820400,4.6368203125,0.9068763594985008,4.622783719044923,-0.9640839552335441
1772698456131777300,4.64677734375,0.8404735768515617,4.2059161513239145,-1.1367749561920761
1772698456141734400,4.656734375,0.26970314914174376,3.0399773522287608,-1.2527761016793548
1772698456151691500,4.66669140625,-0.32688210330419243,1.2124456987261771,-1.3558349096156657
1772698456161648400,4.6766484375,-0.49499425203986464,-0.9834370366096497,-1.2679340694531798
1772698456171605200,4.686605224609375,-0.10544431483335792,-3.298186389866471,-1.1362005173049867
1772698456181562400,4.696562255859375,0.7506535321295261,-5.465312986317277,-0.9405361255813389
1772698456191519500,4.70651953125,1.7375743192017077,-7.26645523006618,-0.6079810912072658
1772698456201476400,4.716476318359375,2.3544646930515767,-8.7953312692523,-0.04663182291863486
1772698456211433500,4.72643359375,2.608040810191631,-9.83026000816822,0.49919557618722316
1772698456221390600,4.736390625,3.056806321954727,-10.518554407018422,0.6510656151741743
1772698456231347200,4.74634716796875,3.8682209045171736,-11.399769086515903,0.25207080887733024
1772698456241304300,4.75630419921875,4.511594796144962,-12.890682182532547,-0.2761540605804883
1772698456251261400,4.766261474609375,4.383590347522497,-14.72942438135743,-0.41460700237788256
1772698456261219600,4.776219482421875,3.292075213509798,-16.378981394410133,0.15575287176966665
1772698456271176400,4.786176513671875,1.7932056055307388,-17.22465246683955,1.1287541468217968
1772698456281133300,4.79613330078125,0.6385352194249629,-16.73717874649763,2.1049194388628005
1772698456291090400,4.80609033203125,0.24358656498007475,-15.079098235249518,2.798139895938337
1772698456301047300,4.81604736328125,0.3775169695854187,-12.893753260540961,3.072815791991353
1772698456311004400,4.82600439453125,0.4797148498434573,-10.573384898358583,2.826727984780073
1772698456320961500,4.83596142578125,0.20418635554909706,-8.076456438699363,2.4640619628459213
1772698456330918400,4.84591845703125,-0.2405833645761013,-5.608591576439142,2.1304227134317157
1772698456340875300,4.855875244140625,-0.641442631304264,-3.2908412878006694,1.7621929198905824
1772698456350832400,4.865832275390625,-0.8179203842598944,-1.0953671332657338,1.2627997753046452
1772698456360789200,4.875789306640625,-0.8752583283763379,0.8883388322889805,0.5246856259483844
1772698456370746400,4.885746337890625,-0.8810136039674281,2.591811559924483,-0.20776085303500294
1772698456380703500,4.895703369140625,-1.0901356623530387,3.9203275238513946,-0.8747655033580959
1772698456390660400,4.905660400390625,-1.6001356872797012,4.874821959093213,-1.2521528552144765
1772698456400617500,4.915617431640625,-2.151463747894764,5.6130140690565105,-1.3709297490254044
1772698456410574300,4.92557421875,-2.5809447134733197,6.151339440235495,-1.1106474853102117
1772698456420531200,4.93553125,-2.8354361918926236,6.684719756227731,-0.7220314679529517
1772698456430488300,4.94548828125,-2.9737890160501,7.332032740870118,-0.39267018811888993
1772698456440445400,4.955445556640625,-2.80500598231554,8.214356842914222,-0.1462581173893064
1772698456450402600,4.965402587890625,-2.3145278194606305,9.34595615003407,-0.09649214289709925
1772698456460360200,4.975360107421875,-1.5524024607241154,10.50222286542058,-0.29621392025277016
1772698456470317300,4.9853173828125,-0.8034733412344008,11.43845508326292,-0.6390170846577733
1772698456480274400,4.9952744140625,-0.20059037688374518,12.077882283091544,-0.9205818634416908
1772698456490231300,5.005231201171875,0.26461890468001364,12.180152570998668,-1.310547907168418
1772698456500188400,5.0151884765625,0.2629307323973626,11.890012271571159,-1.65031601472646
1772698456510145500,5.0251455078125,-0.1620038219232112,11.357835486149787,-1.889961806191504
1772698456520102400,5.035102294921875,-0.7501110227506608,10.646689788544178,-1.9810190645582972
1772698456530059300,5.045059326171875,-1.1546657099306583,10.004688354313373,-1.84241635729298
1772698456540016400,5.055016357421875,-1.299360596591234,9.526128008267284,-1.5276462051302193
1772698456549973500,5.064973388671875,-1.1418353813868016,9.21292364411652,-1.1835653489395976
1772698456559930400,5.074930419921875,-0.814897090915963,9.101362965294719,-0.8563999717146158
1772698456569887500,5.084887451171875,-0.5038029238522053,9.136874423658847,-0.6045891837466508
1772698456579844400,5.09484423828125,-0.1390169140893966,9.207574099782109,-0.4514968364231288
1772698456589801200,5.10480126953125,0.15960487102270127,9.228630331814289,-0.2518400140624493
1772698456599758300,5.11475830078125,0.3354313935279846,9.133745477983355,-0.0676831047810614
1772698456609715500,5.124715576171875,0.4064028723299503,8.726274099639058,-0.01577047364898026
1772698456619672300,5.13467236328125,0.21604513564705846,8.03905229845643,-0.0923419644150883
1772698456629629400,5.14462939453125,-0.3537443912666291,7.156724104759097,-0.35160467582419513
1772698456639586600,5.154586669921875,-0.9102069652259349,6.3297752684563395,-0.7481643456622957
1772698456649544400,5.16454443359375,-1.07932792567797,5.349146859526634,-0.917234087383747
1772698456659501300,5.174501220703125,-0.6172178522385656,4.042657433968782,-1.0851748250752686
1772698456669458400,5.18445849609375,-0.006468392296507954,2.005283006590605,-1.1250049503561108
1772698456679415600,5.19441552734375,0.368683674788475,-0.41838790915608404,-0.7604644397869705
1772698456689372400,5.204372314453125,0.45970542345046994,-2.8692122047662734,-0.2861677425347268
1772698456699329300,5.214329345703125,0.6972877065144479,-4.9130631346821785,0.22566592755988238
1772698456709286400,5.224286376953125,1.0884873106241226,-6.554406446141004,0.8755147142902017
1772698456719243300,5.2342431640625,1.1934475682675838,-7.917619044917822,1.549620428790152
1772698456729200400,5.244200439453125,0.7495780118525027,-8.662601545673608,1.892227705296874
1772698456739157500,5.254157470703125,-0.2306488305389881,-8.681374635204673,1.814284926177561
1772698456749114400,5.2641142578125,-1.0578094098962842,-7.966096367838978,1.4516038528047501
1772698456759071200,5.2740712890625,-0.2974515722889453,-6.686958475065231,0.4808731530331075
1772698456769028400,5.2840283203125,2.546992174988985,-5.586402540984749,-1.110567478876561
1772698456778985500,5.2939853515625,5.599577079856395,-6.089363753315806,-2.6153441189423203
1772698456788942300,5.3039423828125,6.299719737410545,-9.203502904820441,-3.442554236529767
1772698456798899500,5.3138994140625,3.2899428776562214,-13.074410271942615,-3.3591111064285037
1772698456808856600,5.323856689453125,-0.8242075017053634,-15.90607746669054,-2.290586241250485
1772698456818813400,5.3338134765625,-3.4532734912037846,-17.23110675754547,-0.13262776104155927
1772698456828771300,5.343771240234375,-3.84650007109642,-16.265044049584866,2.50106629011631
1772698456838728400,5.353728515625,-2.0076808615125716,-13.232315353310108,4.585548213367164
1772698456848685600,5.363685546875,1.2129869659960268,-9.854141234493255,5.219071449849009
1772698456858642400,5.373642333984375,3.940826706522703,-7.23534639057517,4.6570881397068495
1772698456868599300,5.383599365234375,5.0419490423142905,-5.5579345713913435,3.3868016619086263
1772698456878556400,5.393556396484375,4.2318660006165505,-4.262908789134025,2.060162305508554
1772698456888513300,5.40351318359375,2.2855330495141444,-3.044581046631932,1.1778840153675525
1772698456898470400,5.413470458984375,0.2452745911322534,-1.9980770207345484,0.7786368600111454
1772698456908427500,5.423427490234375,-1.3698644578814505,-0.9955372242480516,0.5923243801310658
1772698456918384400,5.43338427734375,-2.265178974401951,0.2356324641704559,0.4263511431202292
1772698456928341500,5.443341552734375,-2.2905647600710393,1.702690637347102,-0.007011486197263002
1772698456938298400,5.45329833984375,-1.6112404341399669,3.138976071119308,-0.5436215048257261
1772698456948255200,5.463255126953125,-0.6360708020728081,4.580018928551674,-0.9498941018395125
1772698456958212400,5.47321240234375,0.1529751506846398,5.855829138207436,-1.2164264389254151
1772698456968169500,5.48316943359375,0.5737408948879689,6.829093155848979,-1.230935587401688
1772698456978126300,5.493126220703125,0.6527121402721852,7.380561501717567,-1.1584081113293767
1772698456988083500,5.50308349609375,0.4388789085209369,7.5519883279591795,-1.0614040733873844
1772698456998040300,5.513040283203125,-0.0055144525725394486,7.322710785773396,-0.9138301241591572
1772698457007997200,5.5229970703125,-0.5752748995222151,6.800225957804918,-0.8001056183669716
1772698457017955300,5.532955322265625,-1.1463188104111701,6.303323899382352,-0.7705091562002897
1772698457027912200,5.542912109375,-1.4343348842263222,5.922958554628491,-0.7647346644520759
1772698457037869300,5.552869384765625,-1.3391454944908618,5.708265418112278,-0.7550318933442235
1772698457047826200,5.562826171875,-1.1039350551247595,5.721501916304231,-0.7135248478271067
1772698457057783000,5.572782958984375,-0.8241361169695853,5.9160407380640505,-0.7464288271065801
1772698457067740200,5.582740234375,-0.6006956834394485,6.164325763058662,-0.8509883949946612
1772698457077697300,5.592697265625,-0.47759654251523315,6.378356051751971,-0.9004904578536749
1772698457087654100,5.602654052734375,-0.4604455012280494,6.550107872164249,-0.8532272599626332
1772698457097611300,5.612611328125,-0.4666518815875053,6.6394035276859995,-0.9102890174861997
1772698457107568400,5.622568359375,-0.4654455014724284,6.676114424967765,-1.095632067812234
1772698457117525000,5.63252490234375,-0.5628689338702708,6.541010957995057,-1.3632406558275223
1772698457127482000,5.642482177734375,-0.5858429822225123,6.247019828358292,-1.4832228337749838
1772698457137439200,5.652439208984375,-0.595944762585312,5.787883729228377,-1.4037209886454045
1772698457147396400,5.662396240234375,-0.5356326249636709,5.285063386672735,-1.3472677184090018
1772698457157353200,5.672353271484375,-0.2971872222643345,4.5690065361499785,-1.324393038778007
1772698457167310300,5.682310302734375,-0.06839234902895987,3.2626813612431285,-1.3189718905121088
1772698457177267200,5.69226708984375,-0.03719999597296118,1.6280658967345951,-1.3526437123589217
1772698457187224000,5.70222412109375,-0.11419555737003684,-0.12911094855964184,-1.2018795887872575
1772698457197181200,5.71218115234375,-0.07430792974829674,-1.9267215110510587,-0.8021830822281539
1772698457207138300,5.72213818359375,0.07696165912747382,-3.9324762268066404,-0.11152166198566556
1772698457217096400,5.732096435546875,0.4145276535313576,-5.896538749736547,0.5771716730542481
1772698457227053000,5.742052978515625,0.535775102174282,-7.6777990659296504,1.26267454148978
1772698457237010200,5.75201025390625,0.6732523125410079,-9.169683052805066,1.827190877240896
1772698457246967300,5.76196728515625,1.010314449075982,-10.4532083668828,2.077652077230811
1772698457256924200,5.771924072265625,1.6834043375968932,-11.548571993017196,1.9041592583701012
1772698457266881300,5.78188134765625,2.493274613326788,-12.656781072199344,1.5856415902420877
1772698457276838400,5.79183837890625,3.0171874282717703,-13.771506401407718,1.3003864325076342
1772698457286795300,5.801795166015625,3.295295929121971,-14.69658477255106,0.8345524431742727
1772698457296752000,5.811752197265625,3.3329590125620365,-15.50851139628887,0.2942556623244658
1772698457306709200,5.821709228515625,3.3513048165917394,-16.336940242016315,-0.12561342530008404
1772698457316666000,5.831666015625,3.2122552423417567,-17.244803274464605,-0.2924990644481033
1772698457326623200,5.841623291015625,2.600778710234165,-17.868469426059722,0.06586747019384057
1772698457336580400,5.851580322265625,1.973220811897516,-17.585917389804123,0.7182156359918415
1772698457346537200,5.861537109375,1.450916601192951,-16.34409011377096,1.5659928869202733
1772698457356494000,5.871494140625,1.2067935181833802,-14.19351717723608,2.791721845589578
1772698457366451200,5.881451171875,0.8994038316607474,-11.666776347637176,4.004173681795597
1772698457376408000,5.891407958984375,0.14757431455440817,-9.01514189491272,4.830228784129023
1772698457386366200,5.9013662109375,-0.76773669581227,-6.215025438204408,5.034057996803522
1772698457396323300,5.9113232421875,-1.3395745335578917,-3.312211408087611,4.715625961132347
1772698457406280200,5.9212802734375,-1.4246271446824073,-0.43979193171262737,4.024228043308854
1772698457416237000,5.931237060546875,-1.4126315864622592,2.009792008447647,3.129591864441335
1772698457426194200,5.941194091796875,-1.6492356721438466,4.16925844553411,1.9672554737523198
1772698457436151300,5.9511513671875,-2.1635832247555253,6.000010814648866,0.35316841800957915
1772698457446108200,5.961108154296875,-2.6583576234996316,7.475875394615531,-1.6123596474282442
1772698457456065300,5.971065185546875,-2.9130618678867815,8.62794641187787,-3.6819174116611477
1772698457466022100,5.981022216796875,-2.888327239602804,9.46320831849575,-5.377002834701538
1772698457475979300,5.990979248046875,-2.757829220598936,10.115478633284567,-6.085232352599501
1772698457485936000,6.00093603515625,-2.545819624078274,10.832496437793969,-5.789017117172479
1772698457495893200,6.010893310546875,-2.250622041261196,11.50988365818262,-4.746732754796743
1772698457505850400,6.020850341796875,-1.7900562015891075,11.91811608402729,-3.504025481058657
1772698457515807200,6.03080712890625,-1.1640133839905262,12.022588850414753,-2.350564616873115
1772698457525764400,6.040764404296875,-0.4014097402177751,11.875512621575593,-1.2157728703875095
1772698457535721200,6.05072119140625,0.2671954771697521,11.51314762841463,-0.09322605377323925
1772698457545678000,6.060677978515625,0.5650245775341988,11.04698791425824,0.8236914419420063
1772698457555635200,6.07063525390625,0.4524782486759126,10.43241224709153,1.295543084129691
1772698457565592300,6.08059228515625,0.0743150901414454,9.716229724362492,1.1472434509754181
1772698457575549200,6.090549072265625,-0.34740240182876586,8.962188887882233,0.5721043797273189
1772698457585507000,6.100507080078125,-0.7082325135726482,8.348952360364795,-0.12776033766828476
1772698457595464200,6.110464111328125,-0.9252385301411151,7.949336956217884,-0.7212200054395943
1772698457605421300,6.12042138671875,-1.0102418222311884,7.699183799263834,-1.0615421666838227
1772698457615378200,6.130378173828125,-1.0187480039656163,7.6375103101611135,-1.156109771259129
1772698457625335300,6.140335205078125,-1.032456211322546,7.698163224044442,-1.0292631874348968
1772698457635292400,6.15029248046875,-0.9681154757719487,7.89824506688416,-0.80202233870849
1772698457645249000,6.1602490234375,-0.7946131584305316,8.198419853591918,-0.5674884834297002
1772698457655206100,6.1702060546875,-0.6402116282045841,8.39668617144227,-0.34640776476822793
1772698457665163300,6.180163330078125,-0.5532698423326016,8.642066707167029,-0.24003398706503212
1772698457675120000,6.1901201171875,-0.4524316330552101,8.937092440548538,-0.3462179412845522
1772698457685077200,6.2000771484375,-0.24281163508482276,9.013359687671064,-0.730868781337887
1772698457695034400,6.210034423828125,-0.13617854885831474,8.759621657967568,-1.0935239896170794
1772698457704991000,6.219990966796875,-0.23047712723389266,8.42117471601069,-1.3346657187283038
1772698457714948000,6.229947998046875,-0.2571360015787184,8.0540674967587,-1.5120818485125898
1772698457724905200,6.2399052734375,-0.0710078652895987,7.440934429615735,-1.8195320330508051
1772698457734862300,6.2498623046875,0.3069488108873367,6.468448410609364,-2.044442173807323
1772698457744819200,6.259819091796875,0.5753482570193708,4.826030747917295,-2.0555486742332576
1772698457754776300,6.2697763671875,0.4319185679890215,2.539962714743614,-1.6517194517835974
1772698457764733400,6.2797333984375,0.2950805323086679,0.14602818109095095,-0.8030329770557582
1772698457774691000,6.289691162109375,0.1994096426665783,-2.236695807239413,0.45546245211847125
1772698457784648200,6.299648193359375,0.28273089995384215,-3.967490257042646,1.3304814187809824
1772698457794605300,6.309605224609375,0.6136182203114032,-5.129454891809821,1.5338599650785325
1772698457804562400,6.3195625,1.1657846314467488,-6.393829515215754,1.2225377614125608
1772698457814519000,6.32951904296875,1.5241618701457977,-8.201484501859545,0.5825229344217107
1772698457824476200,6.33947607421875,1.1525987674634903,-10.15277346793413,0.11232895978055894
1772698457834433300,6.349433349609375,0.02761391004733741,-11.724896528172492,0.04701948879566043
1772698457844390100,6.35939013671875,-1.2363128965258599,-12.539296848547458,-0.08501739368066191
1772698457854347300,6.36934716796875,-0.9702070412237197,-12.432168014693259,-0.68011649922207
1772698457864304400,6.379304443359375,0.7936532273571938,-12.551941226065159,-1.2854520443566142
1772698457874261200,6.38926123046875,1.9106980124890802,-13.279635907411574,-1.1132150707758963
1772698457884218000,6.399218017578125,1.1042718127984552,-13.583058882260321,-0.23114483389500526
1772698457894175200,6.40917529296875,-0.44835167026519773,-13.033584925079344,0.9832450211688876
1772698457904132000,6.419132080078125,-1.0749766716659068,-11.917846034914254,2.374863484088331
1772698457914089200,6.429089111328125,-0.408057288473472,-10.155838700723647,3.4692324000969528
1772698457924046300,6.43904638671875,0.6306394246738404,-8.066683232703804,4.251172758632898
1772698457934003200,6.449003173828125,1.3990169026076793,-5.88924040942192,4.7978842653632165
1772698457943961000,6.458961181640625,1.9251088151574134,-4.002359910371899,4.705325808653235
1772698457953918200,6.468918212890625,2.2675813593685628,-2.7150620920181274,3.787707398127019
1772698457963875300,6.478875244140625,2.055150907087326,-2.0653741949379443,2.2813789985746142
1772698457973832200,6.488832275390625,1.2698130150675773,-1.739371724012494,0.529620671197772
1772698457983789300,6.498789306640625,0.2038181067585945,-1.4559265383094548,-1.003503015495464
1772698457993746200,6.50874609375,-0.751862323397398,-1.086905009868741,-2.042165314916521
1772698458003703000,6.518703125,-1.3406629133164882,-0.6391682566314936,-2.5007351584658024
1772698458013660200,6.52866015625,-1.6480711584091186,-0.23726561833024024,-2.3926214052274823
1772698458023617300,6.5386171875,-1.778510725224018,0.2374327915906906,-1.8960104387059806
1772698458033574400,6.548574462890625,-1.567141764694452,0.9275935688346624,-1.1151162282221019
1772698458043531500,6.558531494140625,-1.175519112867117,1.5677490829378367,-0.30729601688981056
1772698458053488400,6.56848828125,-0.7361655725717544,2.2271482266932723,0.324127763094753
1772698458063445200,6.5784453125,-0.19143091887235641,3.050285980275273,0.6522661500703543
1772698458073402400,6.58840234375,0.4010311161637306,3.7467660236686466,0.7944950850088149
1772698458083359500,6.598359375,0.8859469687163829,4.341698832732439,0.7134185379084199
1772698458093316400,6.60831640625,1.0851771631628275,4.738313886019587,0.4621382766205817
1772698458103273500,6.6182734375,1.0761977378934622,4.938303374400735,0.11836436748728156
1772698458113230600,6.628230712890625,0.8260252917170524,4.871204937639832,-0.32163243914768097
1772698458123188500,6.6381884765625,0.47307343906760213,4.853709028437733,-0.8646692028880119
1772698458133145300,6.648145263671875,0.16708616668879986,4.902688455662131,-1.2899090237654744
1772698458143102500,6.6581025390625,0.12455518495142459,5.104733707529306,-1.516909999321401
1772698458153059600,6.6680595703125,0.26098902374505994,5.386273936393857,-1.5531247836492954
1772698458163016200,6.67801611328125,0.42300563208460806,5.741731634384394,-1.4572592482179403
1772698458172973300,6.687973388671875,0.5661679023504257,6.060553838416934,-1.3029162432461976
1772698458182930400,6.697930419921875,0.678108520400524,6.204217628464102,-1.1446500004161149
1772698458192887300,6.70788720703125,0.826199479240179,6.309061566251516,-1.0463286693304776
1772698458202844400,6.717844482421875,0.9846844063222407,6.271062382724881,-1.0178307429902256
1772698458212801500,6.727801513671875,1.0585644660472868,5.925593579307198,-1.0054695663280784
1772698458222758400,6.73775830078125,0.8663000189602375,5.3148237341642375,-1.073473281365633
1772698458232715300,6.74771533203125,0.49635143880248067,4.61648549568355,-1.03171182269603
1772698458242672400,6.75767236328125,0.3853986627459526,3.7534132065981622,-0.9896670901056378
1772698458252629200,6.767629150390625,0.5507061658570542,2.6053409035831687,-1.0203769203417004
1772698458262586400,6.77758642578125,0.6422434262931347,1.202099076756835,-0.8555598676286638
1772698458272543500,6.78754345703125,0.4611199664235115,-0.24088380882740018,-0.4827074557881802
1772698458282500400,6.797500244140625,0.29601817848496137,-1.7941718202143906,-0.2726963761409745
1772698458292457200,6.807457275390625,0.46831776897311206,-3.6953982400029894,-0.3242211404666304
1772698458302414300,6.817414306640625,0.6967735464472323,-5.734082580935954,-0.35389004681501535
1772698458312372500,6.82737255859375,0.5211094479620456,-7.52744425381124,-0.19052238919269293
1772698458322329300,6.837329345703125,-0.1395346543531865,-8.769718689090013,0.17271719484571366
1772698458332286500,6.847286376953125,-0.6861304257493466,-9.527556579765676,0.758209792727977
1772698458342243300,6.857243408203125,-0.5327308391075581,-9.823305366724728,1.5289059959329663
1772698458352200200,6.8672001953125,0.38498029120340943,-9.572059153836966,2.3751817562572657
1772698458362157300,6.8771572265625,1.6940895438708363,-9.17741510836184,2.925219046409428
1772698458372114400,6.887114501953125,2.735247970956564,-8.965928074410558,2.966941049851477
1772698458382071600,6.897071533203125,3.1111715338706967,-8.871576889064908,2.4265510012276468
1772698458392028400,6.9070283203125,3.0498750613868233,-9.124073394274712,1.5227007115520537
1772698458401985300,6.9169853515625,2.82481192202568,-9.951529595577716,0.19885931530743836
1772698458411942400,6.9269423828125,2.544677468305826,-11.403079818499087,-1.174886952443421
1772698458421899300,6.936899169921875,1.7754302948653697,-13.37244629305601,-1.8689372844718395
1772698458431856400,6.9468564453125,-0.19444697875790296,-14.96314662799239,-1.5608089084111154
1772698458441813500,6.9568134765625,-2.462063482505083,-14.955488222193717,-0.5547112002473324
1772698458451770400,6.966770263671875,-3.9381531033992765,-12.99116500250101,0.6836917273603379
1772698458461727500,6.9767275390625,-3.5949510758697985,-9.913444487333297,1.7787278751060365
1772698458471685400,6.986685302734375,-1.660644224256277,-6.744844846844673,2.542933839508891
1772698458481642500,6.996642578125,0.1158884423604235,-3.7314082955390213,2.752674614314735
1772698458491599400,7.006599365234375,0.6124105250220745,-1.2775117528766393,2.550566526344418
1772698458501556500,7.016556396484375,-0.005515512018464505,0.311565949293971,2.1427716151341794
1772698458511513300,7.026513427734375,-1.2541150951981543,1.55407243976295,1.4812554792247712
1772698458521470200,7.03647021484375,-2.431363223814964,2.7900813849061725,0.571183940414153
1772698458531427300,7.04642724609375,-2.98951148583889,4.127783110329508,-0.3914056480757892
1772698458541384400,7.056384521484375,-2.7692379188418386,5.64887974768579,-1.147311693906039
1772698458551341300,7.06634130859375,-1.9228069679558275,7.230280339357257,-1.6107017972186206
1772698458561298400,7.07629833984375,-0.6682254242897033,8.601466985753179,-1.8330150533497331
1772698458571255600,7.086255615234375,0.444358216714859,9.65628992718458,-1.9307384916074573
1772698458581212200,7.096212158203125,0.7737959227859973,10.148527500927448,-1.6534014135211705
1772698458591169300,7.106169189453125,0.31448914326429367,10.225824675619602,-1.3172472586765884
1772698458601126400,7.11612646484375,-0.27382980061769485,10.193701690649986,-1.322571084047854
1772698458611083300,7.126083251953125,-0.4754840073406696,9.952041636753082,-1.5268930486753582
1772698458621040400,7.136040283203125,-0.3135387106716633,9.61945978743732,-1.6855452951483427
1772698458630997500,7.14599755859375,-0.1321919634401798,9.23258228431046,-1.6768071312889457
1772698458640954400,7.155954345703125,-0.1390682424178347,8.898069759193062,-1.2928857014887034
1772698458650912300,7.165912353515625,-0.23070026846528052,8.557545426440239,-0.8147136241078377
1772698458660869400,7.175869384765625,-0.17087797845350577,8.29796860758066,-0.5022521872788668
1772698458670826500,7.185826416015625,-0.014397943186759948,8.042364784005283,-0.4333872888347134
1772698458680783400,7.195783447265625,0.10963062407467514,7.86180129610598,-0.4650618359170854
1772698458690740200,7.205740234375,0.22354568400289862,7.902931178873777,-0.5486183632649481
1772698458700697300,7.215697265625,0.4282990623176098,8.055253491672874,-0.5129975262422114
1772698458710654500,7.225654541015625,0.6558452506661415,8.193701008376479,-0.47302148968465624
1772698458720611300,7.235611328125,0.7581868502438068,8.312748828083276,-0.4843384179908782
1772698458730568400,7.245568359375,0.6171580848753452,8.351465219968556,-0.44647199399843807
1772698458740525600,7.255525634765625,0.3641828562378883,8.371875555312632,-0.23494119397066532
1772698458750482400,7.265482421875,0.22773908057212827,8.439384910961985,-0.12138224487057886
1772698458760439300,7.275439208984375,0.19176753041557967,8.375656827417016,-0.1362019662665203
1772698458770396400,7.285396484375,0.13958032012581825,8.135778396239877,-0.29145839628875253
1772698458780353300,7.295353271484375,-0.10060914976187049,7.735115528866649,-0.1573179656619206
1772698458790310400,7.305310302734375,-0.3300993117850274,7.222713118973374,0.11423519526068121
1772698458800267500,7.315267578125,-0.5078770414233207,6.6316457531660795,0.19562866282314062
1772698458810224400,7.325224365234375,-0.5742295551877469,6.157556999576092,-0.0712002460565418
1772698458820181200,7.33518115234375,-0.4934158968072384,5.35730503154099,-0.44714894341193134
1772698458830139400,7.345139404296875,-0.1409774005074054,3.840481249198317,-0.46333771553821856
1772698458840096500,7.355096435546875,0.2302209605157375,1.9465186829328536,-0.1416465319406241
1772698458850053400,7.365053466796875,0.3293393602631986,-0.05913198792636394,0.29222127042002977
1772698458860010500,7.375010498046875,0.6718541361808776,-2.0444021340578793,0.5942726646546274
1772698458869967400,7.38496728515625,1.6373685626089571,-3.9890024161487814,0.3116433984443545
1772698458879924200,7.39492431640625,2.998398556649685,-5.88980096591413,-0.053476811708882445
1772698458889881300,7.40488134765625,3.4877708040893074,-7.9480363950133315,-0.39551198741607363
1772698458899838500,7.41483837890625,2.4119196876764297,-10.190720629012585,-0.2210523693498224
1772698458909795300,7.42479541015625,0.4732184004962444,-12.045936992776394,0.3600586889799684
1772698458919752400,7.43475244140625,-0.8852408662736415,-13.369645264160633,1.1753502591062337
1772698458929709300,7.444709228515625,-1.0566472342491149,-14.387994624197482,1.9870779262058436
1772698458939666200,7.454666259765625,-0.7034381919682026,-14.674076003623007,2.4610645345956086
1772698458949623300,7.464623291015625,-0.2938169421136379,-14.188241282659769,2.4704008104786275
1772698458959580400,7.474580322265625,0.14566066295281052,-13.154667465484142,2.318930292203277
1772698458969537500,7.48453759765625,0.4764893849909305,-11.763280911624431,2.094175926530361
1772698458979494400,7.494494384765625,0.5999791326679289,-10.122043983149528,1.8033286478772759
1772698458989451500,7.504451416015625,0.7760125759221613,-8.178161493939161,1.4285042783766984
1772698458999409400,7.514409423828125,0.9263795168697834,-6.3830708053141825,0.9583068331368267
1772698459009366300,7.5243662109375,0.7977953686632215,-5.153637731429934,0.4967343737054616
1772698459019323400,7.534323486328125,0.29283845247030255,-4.340485949811339,0.17382281800005583
1772698459029280300,7.5442802734375,-0.33002449298314745,-3.695315237894654,-0.1285376421837136
1772698459039237000,7.554237060546875,-0.7829436903595924,-2.757219564267993,-0.4258183514177799
1772698459049194000,7.564194091796875,-0.8009669844366609,-1.6814602177917957,-0.5479324998926371
1772698459059151000,7.574151123046875,-0.5331845742244273,-0.5181394922405481,-0.48483372722715135
1772698459069108000,7.58410791015625,-0.14698745457716286,0.6372124463886022,-0.35527320826910436
1772698459079065000,7.594065185546875,0.3135235131025314,1.6517863795399665,-0.2796602603368461
1772698459089022200,7.604022216796875,0.7241898880958557,2.586071554967761,-0.34339714824277906
1772698459098979000,7.61397900390625,0.8697112887084484,3.2739187945723534,-0.40287510006260124
1772698459108936200,7.623936279296875,0.5666449452776462,3.598312076735496,-0.27700611083256077
1772698459118893000,7.63389306640625,-0.08108838366866111,3.4787633217692373,0.03819162822565995
1772698459128850000,7.643849853515625,-0.7319219436526299,3.244264830064773,0.2724557357855141
1772698459138807000,7.65380712890625,-1.0142881019473076,3.1170880644381045,0.11346727962810546
1772698459148764200,7.66376416015625,-0.9141922354698181,3.038695495724678,-0.2554074424867518
1772698459158721300,7.67372119140625,-0.6655307783782481,3.058384531056881,-0.45383236669860777
1772698459168679000,7.683678955078125,-0.4547756388980895,3.19117446039021,-0.6049954264599829
1772698459178636000,7.693635986328125,-0.2836415485253557,3.2546804256170985,-0.5513286086043343
1772698459188593200,7.70359326171875,-0.18182956231236458,3.143322575891018,-0.3466480032648891
1772698459198550000,7.713550048828125,-0.031891550833918154,2.8929870481073854,-0.13056301053147762
1772698459208507100,7.723507080078125,0.27035887310411777,2.7723288705945013,-0.09828214985271916
1772698459218464300,7.73346435546875,0.4669792138457298,2.562734518522024,-0.176129304844141
1772698459228421000,7.743421142578125,0.510017560583353,2.2728443944633008,-0.34910971720330414
1772698459238378000,7.7533779296875,0.5637503198146819,2.128296222797036,-0.616611118517071
1772698459248335000,7.763335205078125,0.8605775496602058,1.9771178193360566,-0.9918697147164494
1772698459258292200,7.773292236328125,1.370091252374649,1.731495876070857,-1.390017019072175
1772698459268249000,7.7832490234375,1.9692766043163834,1.3828911127150059,-1.401690213470161
1772698459278206200,7.793206298828125,2.660360195493698,0.7858218761444091,-0.9528834198486059
1772698459288163000,7.8031630859375,3.0280361545443535,-0.5350649080783129,-0.4010271341083571
1772698459298120000,7.813119873046875,2.4421441455483435,-2.510717915558815,0.08783508144989609
1772698459308077000,7.8230771484375,0.9954419471800326,-4.551358066734672,0.5218779481165111
1772698459318034200,7.8330341796875,-1.3733049537241457,-5.909209430739283,0.8675704772874713
1772698459327991000,7.842990966796875,-3.627897067660093,-6.264472482940554,1.0100142970856278
1772698459337949000,7.852948974609375,-4.942876089143753,-5.312668017435073,0.8691228212960064
1772698459347906000,7.862906005859375,-4.770553190845251,-3.4214737468391654,0.49428979356493796
1772698459357863200,7.87286328125,-3.0079893918156624,-1.359222067835927,-0.14023266482101754
1772698459367820000,7.882820068359375,-0.589448240172863,0.4169336186945438,-0.7193748890295625
1772698459377777200,7.892777099609375,1.2217559633851052,1.8521663285434244,-1.043735730227828
1772698459387734300,7.902734375,2.130506300061941,2.8569156177729367,-1.1031791952561587
1772698459397691100,7.912691162109375,2.1949884168446063,3.4306846427768467,-0.8978201426658778
1772698459407648000,7.92264794921875,1.832321810388565,3.621606443083286,-0.5731687940884381
1772698459417605000,7.932605224609375,1.353149469923973,3.2648546136289833,-0.18603534343913197
1772698459427562000,7.94256201171875,0.787860688495636,2.4050252519875763,0.16931133192498235
1772698459437519000,7.95251904296875,0.2635468550017103,1.4819973836332558,0.21309918185565618
1772698459447476200,7.962476318359375,-0.14884037070116027,0.7163117020666598,-0.07632321509346365
1772698459457433000,7.97243310546875,-0.37822891724705693,0.09761340201199054,-0.4810043051321059
1772698459467390000,7.982389892578125,-0.346826099778153,-0.3800163851857185,-0.8854595505256205
1772698459477347000,7.99234716796875,-0.336441447353363,-0.8673299465298652,-1.0918206928305327
1772698459487304200,8.00230419921875,-0.4200491203665733,-1.3390876268237828,-1.0876381464488805
1772698459497261000,8.012260986328124,-0.591682282835245,-1.612379667302966,-1.0402315214991569
1772698459507219200,8.02221923828125,-0.8573556650042533,-1.6985656663715838,-0.9199788560472428
1772698459517176000,8.032176025390624,-0.9758078569054603,-1.4996575434863566,-0.8220997888363897
1772698459527133000,8.0421328125,-0.8071580941617489,-1.1371622019439935,-0.6492042782817036
1772698459537090000,8.052090087890624,-0.3490963462650776,-0.7220686581581831,-0.38214141451567407
1772698459547047200,8.062047119140624,0.1863818553218618,-0.28014672867953777,-0.12397632561754435
1772698459557004000,8.072004150390624,0.5216940063843504,0.07534370253682136,0.08947738703051582
1772698459566961200,8.081961181640626,0.40132454615235325,0.45618484810888765,0.3874165053743869
1772698459576918000,8.09191796875,0.2617546743553132,0.666433864697814,0.45395263207741077
1772698459586875100,8.101875244140626,0.35682715971283613,0.658140083605051,0.41199970595631746
1772698459596832000,8.11183203125,0.5524468355119228,0.7257037997901439,-0.13535685721188784
1772698459606789000,8.1217890625,0.18283377091884612,1.000775124901533,-0.4852965954985469
1772698459616746200,8.131746337890625,-0.32949732730388637,1.028170496827364,-0.4828818625070154
1772698459626703000,8.141703125,-0.07993219937086105,0.7690940287053585,-0.5297251544855535
1772698459636660200,8.15166015625,-0.030987843459844587,0.8575234227865934,-0.3169601730203256
1772698459646617000,8.1616171875,-0.13053425936102867,1.0562117654412984,0.4454295722734183
1772698459656574000,8.171573974609375,0.06996493210792541,0.9993599974066019,0.5395427841447293
1772698459666531000,8.181531005859375,0.6089105175444856,0.6154021811187267,-0.19381207838784903
1772698459676488200,8.19148828125,-0.13106270368192344,0.22685294538736342,-0.4429708540096879
1772698459686446000,8.201446044921875,-0.3579752703020349,-0.2327314820319414,-0.3065031860116869
1772698459696403000,8.21140283203125,-0.39229839566443114,-0.5991875438988209,0.16019688209909944
1772698459706360000,8.221360107421875,-0.13767481529805808,-0.6215852536678314,0.38911019408237185
1772698459716317200,8.231317138671875,0.08367313946485519,-0.36464229044318197,0.12938852339200674
1772698459726274000,8.241274169921875,0.15045005265381187,-0.08765197996795177,-0.2462111413300037
1772698459736231200,8.251231201171874,0.3811316529512405,0.15134791480898857,-0.5991092544982209
1772698459746188300,8.261188232421874,0.6634136400938033,0.36546705082952974,-0.6939286053448915
1772698459756145000,8.271144775390624,0.8954945492625236,0.3931248730838299,-0.7000688616655767
1772698459766102000,8.28110205078125,0.9459294359922409,0.275399826413393,-0.6474402642838657
1772698459776059100,8.29105908203125,0.9509832122504711,0.37466099563241,-0.4266654332337901
1772698459786016000,8.30101611328125,-0.10142857638597488,0.20896073034405707,0.145269197683502
1772698459795973000,8.31097314453125,0.08679919906351714,0.3639385260879993,0.0693805380824022
1772698459805930200,8.32093017578125,0.5676280745634809,0.9174474378734826,-0.4540998950609937
1772698459815886800,8.330886962890625,0.9179425279140472,0.5818132152497768,-0.376725855740346
1772698459825844000,8.340843994140625,0.6658721391618252,-0.16541034243106842,-0.2832282550167292
1772698459835801000,8.350801025390625,0.593126051902771,-0.818323631298542,-0.08246610176265239
1772698459845758200,8.36075830078125,0.32015900559425353,-1.2780039203077553,-0.445557692165114
1772698459855716000,8.370716064453125,-0.2877180407166481,-1.8204028245359658,0.09923157779835164
1772698459865673000,8.3806728515625,-0.089898882111907,-2.3145886097371577,-0.3045425169305876
1772698459875630000,8.390630126953125,-0.13857378256493247,-3.135127578997612,-0.11034743057452141
1772698459885587000,8.4005869140625,0.07304359976775013,-2.265299970433116,-0.47146417724005873
1772698459895544000,8.4105439453125,0.799873197850585,-1.0582710360586642,-0.4660562172492966
1772698459905501200,8.420501220703125,0.8764742069721222,-0.056223991525173184,-0.30676223880667236
1772698459915458300,8.430458251953125,1.085868068036437,0.39532852060794826,-0.4789310425220057
1772698459925415000,8.440414794921875,0.2647720676814206,0.36025545366108414,-0.2744213185037486
1772698459935372000,8.4503720703125,-0.5416372722059488,-0.015251929667592048,0.5444630702164024
1772698459945329200,8.4603291015625,-1.6992887199491262,-0.4291711689770221,1.8122700792238116
1772698459955286000,8.4702861328125,-0.49819852797389025,-0.2321609886676073,1.1021769594110549
1772698459965243100,8.4802431640625,-0.13279049558890982,-0.16199264294207094,0.30801969152186065
1772698459975200300,8.4902001953125,-0.23375673342645167,-0.16395663649141787,0.14394229646129533
1772698459985157000,8.5001572265625,-0.08569147528363391,-0.1123901153832674,0.2715314605474472
1772698459995114000,8.510114013671876,-0.24827859525382517,0.023052958807349203,0.19491207551900297
1772698460005071000,8.520071044921876,-0.2462017707134597,0.39172143602669235,0.4949911467673257
1772698460015028000,8.530028076171876,-0.19804650108721106,0.7067834107428789,0.6112530255500227
1772698460024986000,8.539986083984376,-0.22516893782317637,0.8247007651150227,0.34007483541965483
1772698460034942700,8.549942626953126,-0.2905225767433643,0.8216904773831367,0.11141460314830764
1772698460044899600,8.559899658203125,-0.4194710282176733,0.7755284456670284,0.049639516834635286
1772698460054856400,8.5698564453125,-0.4626747581174597,0.7560860785722732,0.08800215424564667
1772698460064813600,8.5798134765625,-0.5193114586293697,0.8008727302819489,0.09820733105083927
1772698460074770700,8.589770751953125,-0.462448548146151,0.8552946408212184,0.11183857331457547
1772698460084727600,8.5997275390625,-0.4404401299556717,0.8391443010091781,0.1433340466361493
1772698460094684700,8.6096845703125,-0.3629366190364584,0.8638403508484364,0.043196048916829745
1772698460104641800,8.619641845703125,-0.19274083242714404,1.0067594600081444,0.1058979677518364
1772698460114598400,8.629598388671875,-0.15250059197545052,1.0270955610722303,0.10909790543746202
1772698460124555500,8.639555419921875,-0.1820978578597307,1.1069283917218447,0.21476209183288736
1772698460134512600,8.6495126953125,-0.13260876408014446,0.5636100345611572,0.23316024710433556
1772698460144469500,8.659469482421875,-0.389185780069232,-1.0541302829921244,0.12624384129126556
1772698460154426600,8.669426513671874,-0.12576806787252426,-0.09552256721258164,0.4838248424455523
1772698460164383700,8.6793837890625,0.027990963198803363,0.056932432055473325,-0.052019096314394844
1772698460174340600,8.689340576171874,0.1709784979522228,-0.0707715723156929,-0.6968997301101684
1772698460184297500,8.69929736328125,0.3522398684551939,-0.07593348512351512,-0.4675786410436034
1772698460194255600,8.709255615234374,0.4743921204507351,-0.16103519608676434,-0.15097251475849188
1772698460204212700,8.719212646484374,-0.14732872402919456,-0.021086627170443534,0.7061103337869048
1772698460214169600,8.729169677734374,0.4615963882962241,0.22813187928199766,0.37017500932477415
1772698460224126500,8.73912646484375,0.047291912528872486,0.15360943000018595,0.419656686982885
1772698460234083600,8.74908349609375,-0.019245419750548897,0.22628595915436744,0.5040521128403023
1772698460244040400,8.75904052734375,-0.20351828356180338,0.10981295837163925,0.35439160312898454
1772698460253997600,8.76899755859375,-0.2960878096550703,0.06132452953457832,0.0687462131010834
1772698460263954700,8.77895458984375,-0.14382804069817065,0.14778934554457662,0.004751368378708138
1772698460273911600,8.78891162109375,-0.08909461652431637,0.14043956730365753,0.007567238650191575
1772698460283868700,8.79886865234375,-0.08767831998560577,0.1250473523825407,0.09092996045900509
1772698460293825500,8.808825439453125,-0.12093177028987556,0.16833061379194258,0.21591765507617963
1772698460303782700,8.81878271484375,-0.12840488264951855,0.23676877472400665,0.28975787598118186
1772698460313739500,8.828739501953125,-0.08757829367723316,0.18100714001357554,0.24241375834103673
1772698460323696600,8.838696533203125,-0.06962758991234004,0.04833002340495586,0.1338096095035784
1772698460333653800,8.84865380859375,-0.015034450992010532,-0.1693757389307022,0.04153475550794974
1772698460343610600,8.858610595703125,-0.018587796092033385,-0.39892333022952076,-0.08932234259927645
1772698460353567500,8.8685673828125,0.03360942413508892,-0.4893231476008892,-0.13216328533496707
1772698460363525600,8.878525634765625,0.031331542330980296,-0.4336819243997335,-0.11820033603198826
1772698460373482800,8.888482666015625,0.06073646398093551,-0.2719581615269184,-0.1412377502103336
1772698460383439600,8.898439697265625,0.04086213520970195,-0.08910217877626418,-0.18625229239175095
1772698460393396700,8.908396728515624,0.0799129101485014,0.044851533639431,-0.2743013271195814
1772698460403353600,8.918353515625,0.03715513391792774,0.1630097110301256,-0.36500213673152027
1772698460413310500,8.928310546875,0.04826167087648064,0.3496469658851623,-0.35955534256771204
1772698460423267600,8.938267578125,0.07339085143599659,0.46116614365279673,-0.19978733513886107
1772698460433224700,8.948224609375,0.035988391693495214,0.4240712154895067,-0.003242105460073799
1772698460443181600,8.958181640625,0.0779039084136486,0.3051683572113514,0.18171415577176958
1772698460453138700,8.968138671875,0.1321364703932777,0.17508008805215358,0.22496081149782984
1772698460463095600,8.978095458984376,-0.042488311639428136,-0.039980128210783006,0.057390825081150974
1772698460473052400,8.988052490234375,-0.09685060094594955,-0.2996644990980625,-0.19303464600825682
1772698460483009500,8.998009521484375,0.1914531672367826,-0.3290484144926071,-0.2272470592714846
1772698460492966700,9.007966552734375,0.33174021085985,-0.1470546015292406,-0.2020304561568424
1772698460502923500,9.017923583984375,0.2979267520526424,0.06129354987442493,-0.041357919370010494
1772698460512880600,9.027880615234375,0.229050747692585,0.24413959575295446,0.18967247609877957
1772698460522838500,9.037838623046875,0.2729512642174959,0.45548166827559466,0.2888088133617304
1772698460532795600,9.047795654296875,0.23676059141755101,0.5552466953635216,0.21741035958565771
1772698460542752500,9.05775244140625,0.22561430697049945,0.43837797326147554,0.022325265587307512
1772698460552709600,9.067709716796875,0.21603815791700035,0.09779869545102118,-0.09266531461793928
1772698460562666800,9.077666748046875,0.24697576902694998,-0.21572306408584116,-0.12104633658025413
1772698460572623600,9.08762353515625,0.20697744757235048,-0.29272622426748274,-0.08610296042766422
1772698460582580500,9.09758056640625,0.18519352232012898,-0.05084463657438755,-0.07052976291645317
1772698460592537600,9.10753759765625,0.05714749957825988,0.08298223459124565,0.0013453684606589376
