time,seconds_elapsed,z,y,x
1772698451561489200,0.0764892578125,0.013358538039028645,-0.036968380212783813,0.22528775036334991
1772698451571446300,0.0864462890625,-0.10168176144361496,-0.008379613980650902,0.2743607759475708
1772698451581403100,0.096403076171875,-0.14009864628314972,0.01723416894674301,0.33236774802207947
1772698451591360000,0.106360107421875,-0.13764268159866333,-0.03622372820973396,0.35990962386131287
1772698451601317000,0.116317138671875,-0.09107169508934021,-0.033604152500629425,0.3201829791069031
1772698451611274000,0.12627392578125,-0.0366036631166935,-0.01654607430100441,0.23813073337078094
1772698451621231000,0.136231201171875,0.005466831848025322,0.005995208863168955,0.1473270058631897
1772698451631188200,0.146188232421875,0.02904219925403595,0.031679268926382065,0.06512213498353958
1772698451641145000,0.15614501953125,0.029911693185567856,0.05116364359855652,0.014562103897333145
1772698451651102000,0.16610205078125,0.022866832092404366,0.07196132838726044,0.002602380234748125
1772698451661059000,0.17605908203125,0.01588696800172329,0.08415946364402771,0.019468005746603012
1772698451671016000,0.186015869140625,0.007079893723130226,0.10288308560848236,0.05473358556628227
1772698451680974000,0.19597412109375,-0.0035271861124783754,0.1157185435295105,0.08729258179664612
1772698451690931200,0.20593115234375,0.0014950032345950603,0.12458314001560211,0.11792958527803421
1772698451700888000,0.21588818359375,0.014204397797584534,0.11887355893850327,0.14299243688583374
1772698451710845000,0.225844970703125,0.028535665944218636,0.11866263300180435,0.1675606369972229
1772698451720802000,0.235802001953125,0.02999984286725521,0.11460947245359421,0.19118930399417877
1772698451730759200,0.24575927734375,0.016493888571858406,0.10733318328857422,0.20580898225307465
1772698451740716000,0.255716064453125,0.006166429258882999,0.11393147706985474,0.2188119888305664
1772698451750673200,0.265673095703125,-0.0036593033000826836,0.11879946291446686,0.21692514419555664
1772698451760630000,0.275630126953125,-0.0010107866255566478,0.13573531806468964,0.2035195678472519
1772698451770587100,0.285587158203125,0.011562262661755085,0.153524711728096,0.18039320409297943
1772698451780544000,0.2955439453125,0.04865104705095291,0.15105010569095612,0.15674373507499695
1772698451790501000,0.305501220703125,0.09513386338949203,0.13701657950878143,0.1395631581544876
1772698451800458200,0.315458251953125,0.12434843927621841,0.12019940465688705,0.12423726916313171
1772698451810415000,0.3254150390625,0.11979470402002335,0.10559996217489243,0.09804268926382065
1772698451820372200,0.335372314453125,0.0796332135796547,0.10948488116264343,0.0628516897559166
1772698451830329000,0.3453291015625,0.02907523326575756,0.12474772334098816,0.0064517962746322155
1772698451840286000,0.355285888671875,-0.005329374223947525,0.13487322628498077,-0.045483529567718506
1772698451850243000,0.3652431640625,-0.007540596649050713,0.13626259565353394,-0.09279432147741318
1772698451860201200,0.375201171875,0.023161906749010086,0.13144434988498688,-0.12500135600566864
1772698451870158000,0.385157958984375,0.06628088653087616,0.12095709890127182,-0.13313224911689758
1772698451880115000,0.395114990234375,0.10555239766836166,0.11237163841724396,-0.124517060816288
1772698451890072000,0.405072021484375,0.1350967139005661,0.1020691990852356,-0.10194410383701324
1772698451900029200,0.415029296875,0.14476105570793152,0.07958923280239105,-0.06559023261070251
1772698451909986000,0.424986083984375,0.14467424154281616,0.0512276366353035,-0.029534226283431053
1772698451919943200,0.434943115234375,0.1436353325843811,0.025109682232141495,-0.0021007966715842485
1772698451929900300,0.444900390625,0.14512723684310913,-0.002959769917652011,0.016396455466747284
1772698451939857000,0.45485693359375,0.15437079966068268,-0.016502510756254196,0.02925190143287182
1772698451949814000,0.46481396484375,0.16368600726127625,-0.0351872481405735,0.035913534462451935
1772698451959771100,0.474771240234375,0.18062850832939148,-0.04552900046110153,0.02644515223801136
1772698451969728000,0.48472802734375,0.1828429251909256,-0.04192361235618591,0.024712499231100082
1772698451979685000,0.49468505859375,0.17648357152938843,-0.03194984421133995,0.008866528980433941
1772698451989642200,0.504642333984375,0.16252727806568146,-0.02002820186316967,-0.008990764617919922
1772698451999599000,0.51459912109375,0.14874620735645294,-0.014639806002378464,-0.03327726572751999
1772698452009556000,0.524555908203125,0.14781489968299866,-0.017708299681544304,-0.051615793257951736
1772698452019514600,0.5345146484375,0.15261231362819672,-0.00321411294862628,-0.052286166697740555
1772698452029471500,0.544471435546875,0.1450854241847992,0.0011476119980216026,-0.0068089645355939865
1772698452039428400,0.554428466796875,0.1097809448838234,-0.008588428609073162,0.07122182846069336
1772698452049385500,0.564385498046875,0.06727369874715805,-0.03214835003018379,0.1258765459060669
1772698452059342300,0.57434228515625,0.03399144113063812,-0.053026750683784485,0.13031181693077087
1772698452069299500,0.584299560546875,0.03306838870048523,-0.0455470010638237,0.08940966427326202
1772698452079256600,0.594256591796875,0.050498779863119125,-0.030806658789515495,0.04359579458832741
1772698452089213400,0.60421337890625,0.08356671780347824,-0.04280206561088562,0.026745442301034927
1772698452099170600,0.614170654296875,0.12341316789388657,-0.06520336121320724,0.060752227902412415
1772698452109127400,0.62412744140625,0.13772153854370117,-0.09981859475374222,0.15078331530094147
1772698452119084300,0.634084228515625,0.11332780122756958,-0.1460520625114441,0.23727406561374664
1772698452129041400,0.64404150390625,0.09783006459474564,-0.19666171073913574,0.3184528052806854
1772698452138998500,0.65399853515625,0.1029161587357521,-0.201394721865654,0.35441356897354126
1772698452148955600,0.66395556640625,0.10301922261714935,-0.17808140814304352,0.3289252519607544
1772698452158912500,0.67391259765625,0.08963361382484436,-0.165104478597641,0.2629340887069702
1772698452168869400,0.683869384765625,0.05044093355536461,-0.1469624936580658,0.1997213065624237
1772698452178826500,0.693826416015625,-0.02243509329855442,-0.08776053786277771,0.1523384004831314
1772698452188783400,0.703783447265625,-0.12182959169149399,-0.013126509264111519,0.1301095187664032
1772698452198741500,0.713741455078125,-0.210531547665596,0.04172320291399956,0.12286082655191422
1772698452208698600,0.72369873046875,-0.17586572468280792,0.007763635832816362,0.1422627568244934
1772698452218655500,0.733655517578125,-0.11581965535879135,-0.07301947474479675,0.1957627683877945
1772698452228612400,0.7436123046875,-0.08529689908027649,-0.10723203420639038,0.220602348446846
1772698452238569500,0.753569580078125,-0.05822345241904259,-0.10823651403188705,0.2533624768257141
1772698452248526600,0.763526611328125,-0.076421357691288,-0.11605235934257507,0.29917311668395996
1772698452258483500,0.7734833984375,-0.09470504522323608,-0.10688447207212448,0.3375837504863739
1772698452268440600,0.783440673828125,-0.11503374576568604,-0.09367599338293076,0.3459948003292084
1772698452278397400,0.7933974609375,-0.12924011051654816,-0.08631555736064911,0.33519065380096436
1772698452288354300,0.803354248046875,-0.11784018576145172,-0.05646311864256859,0.29882413148880005
1772698452298311400,0.8133115234375,-0.07116296142339706,-0.025539802387356758,0.22651179134845734
1772698452308268500,0.8232685546875,-0.015814751386642456,-0.003235562238842249,0.13271072506904602
1772698452318225400,0.833225341796875,0.04225388541817665,-0.004585219081491232,0.009607074782252312
1772698452328182500,0.8431826171875,0.0679163783788681,-0.0393112450838089,-0.05660310387611389
1772698452338139600,0.8531396484375,0.08049047738313675,-0.07769647985696793,-0.08495953679084778
1772698452348096300,0.86309619140625,0.07064396888017654,-0.05002117529511452,-0.09459006041288376
1772698452358053400,0.873053466796875,0.018382083624601364,-0.018414581194519997,-0.08307328075170517
1772698452368011500,0.883011474609375,-0.06397324800491333,0.04378647729754448,-0.09301246702671051
1772698452377968600,0.89296875,-0.1735634058713913,0.08489947766065598,-0.14296966791152954
1772698452387925500,0.902925537109375,-0.2681117653846741,0.07729162275791168,-0.21174685657024384
1772698452397882400,0.91288232421875,-0.31491515040397644,0.0025789174251258373,-0.30578646063804626
1772698452407839500,0.922839599609375,-0.26901984214782715,-0.06169487535953522,-0.4063847064971924
1772698452417796400,0.93279638671875,-0.13272619247436523,-0.10556516796350479,-0.4677651524543762
1772698452427753500,0.94275341796875,-0.008662042208015919,-0.13703706860542297,-0.499389111995697
1772698452437710600,0.952710693359375,0.05718647688627243,-0.038600243628025055,-0.4454697072505951
1772698452447667500,0.96266748046875,-0.025414124131202698,-0.31022775173187256,-0.01720915175974369
1772698452457624300,0.972624267578125,-0.11055884510278702,-0.32739049196243286,0.5337482690811157
1772698452467581400,0.98258154296875,-0.19676083326339722,-0.34810003638267517,0.8721222877502441
1772698452477538600,0.99253857421875,-0.30186566710472107,-0.3452253043651581,0.9859681129455566
1772698452487495400,1.002495361328125,-0.37974369525909424,-0.3257136344909668,0.9075734615325928
1772698452497452500,1.01245263671875,-0.423020601272583,-0.29531002044677734,0.6962031126022339
1772698452507409700,1.02240966796875,-0.42732611298561096,-0.2271333634853363,0.4408850371837616
1772698452517366500,1.032366455078125,-0.40956658124923706,-0.12154360860586166,0.2297135889530182
1772698452527323400,1.042323486328125,-0.41369158029556274,-0.060228049755096436,0.1398201733827591
1772698452537280500,1.052280517578125,-0.412667840719223,-0.03521298989653587,0.18220335245132446
1772698452547238400,1.06223828125,-0.3893875479698181,-0.013999582268297672,0.2991020381450653
1772698452557195500,1.072195556640625,-0.33834487199783325,-0.027030397206544876,0.4065740406513214
1772698452567152400,1.08215234375,-0.2737576365470886,-0.04774392768740654,0.4350576102733612
1772698452577109500,1.092109619140625,-0.1772310882806778,-0.05563731491565704,0.35964423418045044
1772698452587066400,1.10206640625,-0.05311340466141701,-0.0856199860572815,0.22096890211105347
1772698452597023500,1.1120234375,0.0685475617647171,-0.12747833132743835,0.08378419280052185
1772698452606980600,1.121980712890625,0.14906850457191467,-0.17894898355007172,-0.016857992857694626
1772698452616937500,1.1319375,0.18647921085357666,-0.18452021479606628,-0.0928393304347992
1772698452626894600,1.14189453125,0.17960985004901886,-0.16890396177768707,-0.14354297518730164
1772698452636851500,1.1518515625,0.14921072125434875,-0.12687590718269348,-0.1507415473461151
1772698452646808300,1.161808349609375,0.10819324105978012,-0.0721503347158432,-0.07959841191768646
1772698452656765400,1.171765380859375,0.05506926402449608,-0.01813679188489914,0.01417437195777893
1772698452666722600,1.18172265625,0.01703985594213009,0.023964321240782738,0.08828029036521912
1772698452676679400,1.191679443359375,0.0018921045120805502,0.03771357983350754,0.1402716487646103
1772698452686636500,1.201636474609375,-0.006125608459115028,0.022179095074534416,0.14878976345062256
1772698452696593400,1.211593505859375,-0.016260584816336632,-0.005223956424742937,0.12126151472330093
1772698452706550300,1.22155029296875,-0.05128275230526924,-0.01786864548921585,0.06798257678747177
1772698452716507400,1.23150732421875,-0.09133640676736832,0.009363031014800072,0.03324440121650696
1772698452726465500,1.241465576171875,-0.12085036188364029,0.05829329043626785,0.040931880474090576
1772698452736422700,1.251422607421875,-0.14059185981750488,0.09379475563764572,0.08248139917850494
1772698452746379300,1.261379150390625,-0.15968193113803864,0.13477040827274323,0.10540908575057983
1772698452756336400,1.27133642578125,-0.15641021728515625,0.20786334574222565,0.08967810869216919
1772698452766293500,1.28129345703125,-0.12496547400951385,0.1973920613527298,0.06369765102863312
1772698452776250400,1.29125048828125,-0.10379600524902344,0.20245660841464996,0.06771495938301086
1772698452786207500,1.30120751953125,-0.0795266181230545,0.20576079189777374,0.1007421538233757
1772698452796164600,1.31116455078125,-0.04005802795290947,0.20161642134189606,0.1381991058588028
1772698452806121500,1.32112158203125,-0.021800193935632706,0.17996545135974884,0.18299081921577454
1772698452816078300,1.331078369140625,-0.042186714708805084,0.15246237814426422,0.22883205115795135
1772698452826035500,1.341035400390625,-0.08992094546556473,0.1161978542804718,0.27840331196784973
1772698452835992600,1.35099267578125,-0.18045829236507416,0.06909749656915665,0.3018651008605957
1772698452845949400,1.360949462890625,-0.2728976607322693,0.029629984870553017,0.3191375732421875
1772698452855906600,1.370906494140625,-0.3442520201206207,-0.006492353044450283,0.3656396269798279
1772698452865863700,1.38086376953125,-0.3977959156036377,-0.03087385930120945,0.45015156269073486
1772698452875820300,1.3908203125,-0.44287556409835815,-0.003393543418496847,0.5460366606712341
1772698452885777400,1.40077734375,-0.48305732011795044,0.08015887439250946,0.6393756866455078
1772698452895734500,1.410734619140625,-0.49061083793640137,0.1601460725069046,0.6892662048339844
1772698452905692700,1.420692626953125,-0.4019851088523865,0.1717555969953537,0.627439558506012
1772698452915649500,1.4306494140625,-0.22017298638820648,0.12836040556430817,0.4403901696205139
1772698452925606400,1.4406064453125,-0.032210540026426315,0.07982642203569412,0.16806252300739288
1772698452935563500,1.4505634765625,0.052152324467897415,0.057426221668720245,-0.133966326713562
1772698452945520400,1.460520263671875,0.050464410334825516,0.05632153898477554,-0.3591073155403137
1772698452955477500,1.4704775390625,-0.004911203868687153,0.05358176678419113,-0.44594821333885193
1772698452965434600,1.4804345703125,-0.07838462293148041,-0.01753927767276764,-0.3636232316493988
1772698452975391500,1.4903916015625,-0.17848274111747742,-0.07928181439638138,-0.12803684175014496
1772698452985348400,1.500348388671875,-0.3063930571079254,-0.14593222737312317,0.16650797426700592
1772698452995305500,1.510305419921875,-0.4453866481781006,-0.20662017166614532,0.37884294986724854
1772698453005262300,1.520262451171875,-0.57049959897995,-0.25846368074417114,0.4208218455314636
1772698453015219500,1.530219482421875,-0.6376964449882507,-0.34476980566978455,0.25848937034606934
1772698453025176000,1.540176025390625,-0.65754634141922,-0.47153493762016296,-0.07999866455793381
1772698453035133000,1.5501328125,-0.7093806862831116,-0.5886885523796082,-0.4921537935733795
1772698453045090000,1.560090087890625,-0.7980807423591614,-0.681350588798523,-0.7864088416099548
1772698453055047000,1.570046875,-0.9061963558197021,-0.7414135336875916,-0.8674881458282471
1772698453065003800,1.580003662109375,-1.0174211263656616,-0.7451603412628174,-0.7721771001815796
1772698453074961000,1.5899609375,-1.0788503885269165,-0.6951074600219727,-0.6111451387405396
1772698453084919000,1.5999189453125,-1.0853227376937866,-0.6222361922264099,-0.46663957834243774
1772698453094876200,1.609876220703125,-1.0403791666030884,-0.5125548839569092,-0.42096278071403503
1772698453104832800,1.619832763671875,-0.9373010396957397,-0.39056849479675293,-0.4687657058238983
1772698453114790000,1.629789794921875,-0.8095834851264954,-0.263917475938797,-0.544550895690918
1772698453124747000,1.6397470703125,-0.636198103427887,-0.17087462544441223,-0.5693193078041077
1772698453134703900,1.649703857421875,-0.3890586495399475,-0.11723782122135162,-0.48151788115501404
1772698453144661000,1.659660888671875,-0.12022905796766281,-0.08492276072502136,-0.24101288616657257
1772698453154618000,1.6696181640625,0.08666955679655075,-0.07657204568386078,0.08227910846471786
1772698453164575000,1.679574951171875,0.18734237551689148,-0.06423122435808182,0.3666514456272125
1772698453174531800,1.68953173828125,0.18976210057735443,-0.05050826817750931,0.5537011027336121
1772698453184489000,1.699489013671875,0.14301536977291107,-0.03591334819793701,0.6350172758102417
1772698453194445800,1.70944580078125,0.06801596283912659,-0.0027857765089720488,0.6469115614891052
1772698453204403000,1.71940283203125,-0.009169105440378189,0.006678298581391573,0.6290411949157715
1772698453214360000,1.729360107421875,-0.0370740070939064,-0.008932741358876228,0.5758617520332336
1772698453224317200,1.739317138671875,-0.018536008894443512,-0.055493053048849106,0.46532055735588074
1772698453234273800,1.749273681640625,0.017133066430687904,-0.10615693032741547,0.2968636155128479
1772698453244231000,1.75923095703125,0.05891460180282593,-0.14754298329353333,0.1433858871459961
1772698453254188000,1.76918798828125,0.08122232556343079,-0.16066615283489227,0.07277136296033859
1772698453264145000,1.779144775390625,0.056722577661275864,-0.1778198480606079,0.07789847999811172
1772698453274103000,1.78910302734375,0.02312416583299637,-0.19985473155975342,0.09912169724702835
1772698453284060000,1.799059814453125,-0.02410646341741085,-0.19840091466903687,0.11431369930505753
1772698453294017000,1.80901708984375,-0.0697898119688034,-0.18981198966503143,0.12946906685829163
1772698453303974000,1.818973876953125,-0.10822828114032745,-0.17249344289302826,0.16263553500175476
1772698453313931000,1.828930908203125,-0.11567211896181107,-0.14904022216796875,0.19189776480197906
1772698453323888000,1.83888818359375,-0.08324839919805527,-0.12907902896404266,0.21728141605854034
1772698453333845000,1.848844970703125,-0.02514888159930706,-0.10077310353517532,0.24685776233673096
1772698453343801900,1.8588017578125,0.0456286184489727,-0.07529224455356598,0.2891966998577118
1772698453353759000,1.868759033203125,0.14019055664539337,-0.047959621995687485,0.35224440693855286
1772698453363715800,1.8787158203125,0.23782257735729218,-0.009336331859230995,0.4325301945209503
1772698453373673000,1.8886728515625,0.3205818831920624,0.023962458595633507,0.5038524270057678
1772698453383630000,1.898630126953125,0.3801648020744324,0.04521128907799721,0.5515917539596558
1772698453393587000,1.9085869140625,0.4147861897945404,0.06887754797935486,0.5819534063339233
1772698453403544000,1.9185439453125,0.41125375032424927,0.08785975724458694,0.6041998863220215
1772698453413501000,1.9285009765625,0.41164839267730713,0.09875376522541046,0.6256876587867737
1772698453423457800,1.938457763671875,0.41177621483802795,0.11022373288869858,0.6606288552284241
1772698453433415000,1.948414794921875,0.3850887715816498,0.12761899828910828,0.7147274017333984
1772698453443372000,1.9583720703125,0.32982659339904785,0.12078772485256195,0.7960302233695984
1772698453453330000,1.968329833984375,0.2669849991798401,0.09534569829702377,0.8786962628364563
1772698453463286800,1.978286865234375,0.2257438451051712,0.0958479717373848,0.9254435300827026
1772698453473244000,1.988243896484375,0.2179710865020752,0.13853614032268524,0.94756019115448
1772698453483201000,1.998200927734375,0.26474153995513916,0.22322119772434235,0.9437977075576782
1772698453493158000,2.008157958984375,0.37711334228515625,0.31967002153396606,0.8431625962257385
1772698453503115000,2.018114990234375,0.5034254789352417,0.38452839851379395,0.5756024718284607
1772698453513072000,2.028072021484375,0.601071298122406,0.43536823987960815,0.17504166066646576
1772698453523028700,2.03802880859375,0.6712616086006165,0.4552050828933716,-0.2274663746356964
1772698453532985900,2.04798583984375,0.754138708114624,0.43031051754951477,-0.4897913634777069
1772698453542943000,2.05794287109375,0.8028998374938965,0.3371078670024872,-0.6404109597206116
1772698453552900000,2.067900146484375,0.7739549279212952,0.17849472165107727,-0.7632594704627991
1772698453562857000,2.07785693359375,0.6431655287742615,-0.03245159238576889,-0.902980387210846
1772698453572814000,2.08781396484375,0.39790546894073486,-0.21778514981269836,-0.9345976710319519
1772698453582771000,2.09777099609375,0.05197920650243759,-0.32238373160362244,-0.743615448474884
1772698453592727800,2.107727783203125,-0.3186819553375244,-0.37618571519851685,-0.3467940092086792
1772698453602685000,2.117684814453125,-0.6332582235336304,-0.3516175448894501,0.08083988726139069
1772698453612642000,2.12764208984375,-0.8123880624771118,-0.26662081480026245,0.3398382067680359
1772698453622599000,2.137598876953125,-0.7821323871612549,-0.14263096451759338,0.3281424045562744
1772698453632556000,2.14755615234375,-0.51650470495224,-0.021278679370880127,0.11249846965074539
1772698453642514000,2.157513916015625,-0.10923469066619873,0.0665968507528305,-0.2061293125152588
1772698453652471000,2.167470947265625,0.29920682311058044,0.12387063354253769,-0.5046577453613281
1772698453662428000,2.177427978515625,0.6021317839622498,0.16452111303806305,-0.6339555382728577
1772698453672385000,2.187385009765625,0.7417504191398621,0.15885287523269653,-0.5837470293045044
1772698453682342100,2.197342041015625,0.7228336930274963,0.09751628339290619,-0.46122509241104126
1772698453692299000,2.207299072265625,0.5967416167259216,0.010306723415851593,-0.3634149432182312
1772698453702255900,2.217255859375,0.3844253718852997,-0.09119699895381927,-0.319750040769577
1772698453712213000,2.227212890625,0.09135404974222183,-0.14493542909622192,-0.31852972507476807
1772698453722169900,2.237169921875,-0.2261517494916916,-0.16635896265506744,-0.3417876362800598
1772698453732127000,2.247126953125,-0.4868490695953369,-0.18239693343639374,-0.387026846408844
1772698453742084000,2.257083984375,-0.6312108039855957,-0.19166366755962372,-0.43269312381744385
1772698453752041000,2.267041015625,-0.6468436121940613,-0.20205473899841309,-0.43159016966819763
1772698453761997800,2.276997802734375,-0.5493583679199219,-0.21522754430770874,-0.36231735348701477
1772698453771955000,2.286954833984375,-0.3770347833633423,-0.21879807114601135,-0.24485135078430176
1772698453781911800,2.296911865234375,-0.1855071485042572,-0.21539294719696045,-0.11377110332250595
1772698453791869000,2.306868896484375,-0.03469680994749069,-0.1807120144367218,-0.018479790538549423
1772698453801826000,2.316825927734375,0.05857294797897339,-0.12132351845502853,0.025491662323474884
1772698453811783200,2.326783203125,0.09390934556722641,-0.047537244856357574,0.03850913047790527
1772698453821740000,2.336739990234375,0.09367205947637558,0.019915295764803886,0.04048493504524231
1772698453831698000,2.346697998046875,0.08743681013584137,0.06803810596466064,0.029769103974103928
1772698453841655000,2.356655029296875,0.12357430905103683,0.09065846353769302,0.02423798479139805
1772698453851612000,2.36661181640625,0.19127188622951508,0.08082909882068634,0.023132994771003723
1772698453861569000,2.376569091796875,0.24451033771038055,0.04596380144357681,0.00334837194532156
1772698453871526000,2.38652587890625,0.26836344599723816,0.00958891212940216,-0.025234760716557503
1772698453881483000,2.39648291015625,0.24476358294487,-0.021438512951135635,-0.0424150787293911
1772698453891439900,2.40643994140625,0.1706443578004837,-0.04978571832180023,-0.04135490953922272
1772698453901397000,2.41639697265625,0.06719385832548141,-0.06408396363258362,0.017011992633342743
1772698453911354000,2.42635400390625,-0.06024692580103874,-0.06972403079271317,0.15598778426647186
1772698453921311000,2.43631103515625,-0.16217729449272156,-0.09530049562454224,0.3140370845794678
1772698453931268000,2.44626806640625,-0.2203492671251297,-0.11160233616828918,0.4057832956314087
1772698453941225000,2.456224853515625,-0.19903919100761414,-0.11318185925483704,0.42034652829170227
1772698453951181800,2.466181884765625,-0.11083339899778366,-0.10763410478830338,0.4019138813018799
1772698453961139000,2.476138916015625,-0.0020174370147287846,-0.08457912504673004,0.4036116302013397
1772698453971096000,2.486095947265625,0.10896741598844528,-0.037631817162036896,0.407050758600235
1772698453981053000,2.496052978515625,0.22050005197525024,0.004647727124392986,0.37189781665802
1772698453991010000,2.506010009765625,0.3128366470336914,0.05625199154019356,0.3100498616695404
1772698454000967000,2.515966796875,0.32289034128189087,0.10642540454864502,0.2434719055891037
1772698454010923800,2.525923828125,0.23697569966316223,0.14467111229896545,0.17650657892227173
1772698454020882000,2.5358818359375,0.15005891025066376,0.14435073733329773,0.12684927880764008
1772698454030839000,2.545839111328125,0.09435838460922241,0.13436128199100494,0.09046363085508347
1772698454040796000,2.5557958984375,0.09961865842342377,0.11288128793239594,0.08707049489021301
1772698454050752800,2.565752685546875,0.1321864277124405,0.10045009106397629,0.12110786885023117
1772698454060710000,2.5757099609375,0.13006548583507538,0.1013995036482811,0.14675010740756989
1772698454070666800,2.585666748046875,0.11156931519508362,0.14139196276664734,0.09952494502067566
1772698454080623900,2.595623779296875,0.12844230234622955,0.18790434300899506,0.00795002281665802
1772698454090581000,2.6055810546875,0.22808709740638733,0.1898948699235916,-0.07119560986757278
1772698454100537900,2.615537841796875,0.39556795358657837,0.12468630820512772,-0.11303786188364029
1772698454110495000,2.625494873046875,0.5368342995643616,0.03468051552772522,-0.14040720462799072
1772698454120451800,2.635451904296875,0.5195139050483704,-0.02951950766146183,-0.23702828586101532
1772698454130409000,2.645408935546875,0.33108219504356384,-0.043037381023168564,-0.42483457922935486
1772698454140365800,2.65536572265625,0.07132119685411453,0.01282455213367939,-0.6336700916290283
1772698454150323000,2.665322998046875,-0.1447724997997284,0.0598738007247448,-0.7598282098770142
1772698454160280000,2.675280029296875,-0.20062671601772308,0.0954618826508522,-0.7409764528274536
1772698454170237000,2.68523681640625,-0.08242759108543396,0.11877454817295074,-0.5260838270187378
1772698454180193800,2.69519384765625,0.11921472102403641,0.05137553811073303,-0.1543308049440384
1772698454190151000,2.70515087890625,0.2688678801059723,-0.04996807873249054,0.1544349044561386
1772698454200108800,2.71510888671875,0.29715943336486816,-0.1327740103006363,0.27858132123947144
1772698454210066000,2.72506591796875,0.2126873880624771,-0.17717407643795013,0.28554850816726685
1772698454220023000,2.73502294921875,0.08233924210071564,-0.16915263235569,0.24157308042049408
1772698454229980000,2.74497998046875,-0.02612358145415783,-0.1194993183016777,0.2024514526128769
1772698454239936800,2.754936767578125,-0.09183761477470398,-0.07818756252527237,0.1858445256948471
1772698454249894000,2.764893798828125,-0.09197504073381424,-0.041796568781137466,0.16628052294254303
1772698454259851000,2.77485107421875,-0.06125015392899513,-0.007998126558959484,0.10580918192863464
1772698454269807900,2.784807861328125,0.01710536889731884,-0.01320328563451767,-0.027998648583889008
1772698454279765000,2.794764892578125,0.16339227557182312,-0.05843441188335419,-0.1751614660024643
1772698454289721900,2.804721923828125,0.34263744950294495,-0.14306843280792236,-0.22888566553592682
1772698454299678700,2.8146787109375,0.4890202283859253,-0.23788069188594818,-0.15258876979351044
1772698454309635800,2.8246357421875,0.4968390166759491,-0.2907783091068268,-0.01032076682895422
1772698454319593000,2.834593017578125,0.3351084291934967,-0.3182187080383301,0.11224828660488129
1772698454329549800,2.8445498046875,0.07704170048236847,-0.31980282068252563,0.16687603294849396
1772698454339507000,2.8545068359375,-0.17963670194149017,-0.33339425921440125,0.12667721509933472
1772698454349464000,2.864464111328125,-0.3421348035335541,-0.3464994430541992,0.020562324672937393
1772698454359420700,2.874420654296875,-0.39232659339904785,-0.35959339141845703,-0.10777514427900314
1772698454369377800,2.884377685546875,-0.365278422832489,-0.35641616582870483,-0.2361120730638504
1772698454379335000,2.8943349609375,-0.2958226501941681,-0.3359748125076294,-0.3577836751937866
1772698454389292000,2.9042919921875,-0.17858634889125824,-0.2806737720966339,-0.4352799355983734
1772698454399250000,2.91425,-0.05454188585281372,-0.22558307647705078,-0.45940685272216797
1772698454409206800,2.924206787109375,0.07140537351369858,-0.17782998085021973,-0.44191986322402954
1772698454419164000,2.934163818359375,0.18222351372241974,-0.1433795988559723,-0.3744470775127411
1772698454429120800,2.944120849609375,0.24237127602100372,-0.11036088317632675,-0.27148035168647766
1772698454439078000,2.954077880859375,0.2528292238712311,-0.08170101046562195,-0.19516828656196594
1772698454449035000,2.964034912109375,0.22875425219535828,-0.05889721214771271,-0.16377103328704834
1772698454458991900,2.973991943359375,0.1975254863500595,-0.03592798486351967,-0.14634810388088226
1772698454468948700,2.98394873046875,0.17448942363262177,-0.037882156670093536,-0.09595406800508499
1772698454478905900,2.99390576171875,0.13926778733730316,-0.06299763172864914,-0.0138821080327034
1772698454488863000,3.003863037109375,0.10980523377656937,-0.09280374646186829,0.06993402540683746
1772698454498819800,3.01381982421875,0.07661160081624985,-0.11948622763156891,0.17847782373428345
1772698454508777000,3.02377685546875,0.015432940796017647,-0.1376311033964157,0.3217006027698517
1772698454518734000,3.033734130859375,-0.08046242594718933,-0.17880091071128845,0.44154632091522217
1772698454528690700,3.043690673828125,-0.2028392255306244,-0.20653004944324493,0.4599294662475586
1772698454538647800,3.053647705078125,-0.3123137950897217,-0.20609435439109802,0.37316447496414185
1772698454548605000,3.06360498046875,-0.3478981852531433,-0.19999712705612183,0.2616874575614929
1772698454558561800,3.073561767578125,-0.2778048515319824,-0.16758538782596588,0.21189726889133453
1772698454568519000,3.083518798828125,-0.133363738656044,-0.10289474576711655,0.22712847590446472
1772698454578476000,3.09347607421875,0.04623238369822502,0.02230391837656498,0.19491462409496307
1772698454588434000,3.103433837890625,0.22070083022117615,0.1645674854516983,-0.0048905969597399235
1772698454598390800,3.113390869140625,0.3708557188510895,0.2577594816684723,-0.335830420255661
1772698454608348000,3.123347900390625,0.4832419455051422,0.31997185945510864,-0.6755905151367188
1772698454618305000,3.133304931640625,0.5461697578430176,0.31374725699424744,-0.8855810165405273
1772698454628262000,3.143261962890625,0.5560138821601868,0.26747503876686096,-0.8364766836166382
1772698454638218800,3.15321875,0.4941542446613312,0.1491883248090744,-0.519079327583313
1772698454648175900,3.16317578125,0.29545578360557556,-0.014055442065000534,-0.07506220787763596
1772698454658132700,3.1731328125,-0.027609355747699738,-0.1440616399049759,0.25379928946495056
1772698454668089900,3.18308984375,-0.3940097391605377,-0.1604481190443039,0.3248397707939148
1772698454678047000,3.193046875,-0.6634361147880554,-0.1140902116894722,0.2022704780101776
1772698454688003800,3.20300390625,-0.6720269322395325,-0.06737925112247467,0.0236692875623703
1772698454697961000,3.2129609375,-0.4046252965927124,-0.06434697657823563,-0.15772473812103271
1772698454707917800,3.222917724609375,0.007500410079956055,-0.11548865586519241,-0.3461377024650574
1772698454717874700,3.232874755859375,0.39105498790740967,-0.16867676377296448,-0.5359100699424744
1772698454727831800,3.242831787109375,0.600960373878479,-0.20126086473464966,-0.6769072413444519
1772698454737789000,3.252788818359375,0.5983512997627258,-0.23446249961853027,-0.7147068381309509
1772698454747746000,3.26274609375,0.42977604269981384,-0.2764817178249359,-0.6465329527854919
1772698454757703700,3.27270361328125,0.1524094194173813,-0.34258535504341125,-0.538115918636322
1772698454767660800,3.282660888671875,-0.16585831344127655,-0.4055537283420563,-0.4440223276615143
1772698454777618000,3.292617919921875,-0.45541393756866455,-0.4251742959022522,-0.38710206747055054
1772698454787574800,3.30257470703125,-0.6672987937927246,-0.4091460704803467,-0.33610570430755615
1772698454797532000,3.312531982421875,-0.7530350089073181,-0.36396899819374084,-0.2903864085674286
1772698454807489000,3.322489013671875,-0.712110698223114,-0.308177649974823,-0.2618325352668762
1772698454817446000,3.33244580078125,-0.5576231479644775,-0.24323832988739014,-0.24250808358192444
1772698454827402800,3.34240283203125,-0.3251992166042328,-0.16259536147117615,-0.19910243153572083
1772698454837359900,3.35235986328125,-0.08668012917041779,-0.07601600140333176,-0.1631540060043335
1772698454847317000,3.36231689453125,0.09313542395830154,-0.001237703487277031,-0.1447329819202423
1772698454857273900,3.37227392578125,0.20366644859313965,0.059159331023693085,-0.1246788501739502
1772698454867231000,3.38223095703125,0.2471385896205902,0.09371314197778702,-0.09408769756555557
1772698454877187800,3.392187744140625,0.21791119873523712,0.12329766154289246,-0.03551812842488289
1772698454887144700,3.402144775390625,0.13908587396144867,0.14621807634830475,0.04395007714629173
1772698454897101800,3.412101806640625,0.03966580703854561,0.16560082137584686,0.1333039253950119
1772698454907059000,3.422058837890625,-0.03562362864613533,0.16965731978416443,0.1985490620136261
1772698454917015800,3.432015869140625,-0.061588384211063385,0.1791379153728485,0.23569485545158386
1772698454926973000,3.441972900390625,-0.05329286679625511,0.1988246589899063,0.23254071176052094
1772698454936930000,3.451929931640625,0.005286024883389473,0.2368178516626358,0.2325926423072815
1772698454946888000,3.461887939453125,0.10279739648103714,0.26461562514305115,0.237372025847435
1772698454956844800,3.4718447265625,0.20849080383777618,0.271986186504364,0.2198590785264969
1772698454966802000,3.481802001953125,0.2997863292694092,0.2817303538322449,0.17611083388328552
1772698454976759000,3.491759033203125,0.3484896719455719,0.273616760969162,0.1279212087392807
1772698454986716000,3.5017158203125,0.35053661465644836,0.2605116367340088,0.10820675641298294
1772698454996672800,3.5116728515625,0.3144851326942444,0.25106221437454224,0.1039680689573288
1772698455006630000,3.5216298828125,0.2640491724014282,0.2348642200231552,0.12325959652662277
1772698455016586800,3.531586669921875,0.21063119173049927,0.1960078924894333,0.173350989818573
1772698455026543900,3.5415439453125,0.1465693861246109,0.1502382755279541,0.2477213442325592
1772698455036501000,3.5515009765625,0.06749428808689117,0.08331862837076187,0.3520203232765198
1772698455046458000,3.5614580078125,-0.03312850371003151,0.0034228400327265263,0.4368446171283722
1772698455056415000,3.5714150390625,-0.17980049550533295,-0.07378486543893814,0.4886705279350281
1772698455066371800,3.581371826171875,-0.3461543321609497,-0.11535872519016266,0.5441334247589111
1772698455076329000,3.591328857421875,-0.4666237533092499,-0.10501421242952347,0.6016680598258972
1772698455086286000,3.6012861328125,-0.4709005355834961,-0.023537971079349518,0.6345140933990479
1772698455096243000,3.611242919921875,-0.316876083612442,0.10816999524831772,0.6025497913360596
1772698455106200000,3.621199951171875,-0.02060338854789734,0.2647516429424286,0.5433254837989807
1772698455116157000,3.631156982421875,0.3138406276702881,0.3765631318092346,0.5140799880027771
1772698455126113800,3.64111376953125,0.5857424736022949,0.42509084939956665,0.4530031681060791
1772698455136072000,3.651072021484375,0.6885442137718201,0.39960652589797974,0.29226061701774597
1772698455146029000,3.661029052734375,0.5893987417221069,0.27668264508247375,0.05802444368600845
1772698455155986200,3.670986083984375,0.33038368821144104,0.08771886676549911,-0.20490998029708862
1772698455165942800,3.68094287109375,-0.02256394550204277,-0.10386822372674942,-0.46091699600219727
1772698455175900000,3.69089990234375,-0.3726940155029297,-0.2689152657985687,-0.6690379977226257
1772698455185857000,3.70085693359375,-0.670182466506958,-0.3957495391368866,-0.779765784740448
1772698455195814000,3.71081396484375,-0.868860125541687,-0.44862979650497437,-0.7997860908508301
1772698455205771000,3.72077099609375,-0.920566201210022,-0.4286190867424011,-0.720453679561615
1772698455215728000,3.73072802734375,-0.8090029358863831,-0.3525426685810089,-0.5031389594078064
1772698455225685000,3.74068505859375,-0.5734772086143494,-0.2260134369134903,-0.18908777832984924
1772698455235641900,3.750641845703125,-0.32766690850257874,-0.0006647352129220963,0.06825640052556992
1772698455245599000,3.760598876953125,-0.11009649187326431,0.27765369415283203,0.15031558275222778
1772698455255555800,3.770555908203125,0.11282899975776672,0.5438941717147827,0.10053684562444687
1772698455265513000,3.780512939453125,0.3646976947784424,0.7711122632026672,-0.00024996930733323097
1772698455275470000,3.790469970703125,0.6292738914489746,0.900841236114502,-0.06918429583311081
1772698455285427000,3.800427001953125,0.8478374481201172,0.9240132570266724,-0.07173069566488266
1772698455295383800,3.8103837890625,0.9661087393760681,0.8389524221420288,-0.0217231847345829
1772698455305341000,3.8203408203125,0.9258127212524414,0.6586484909057617,0.04045852646231651
1772698455315298000,3.830298095703125,0.6909288167953491,0.4237246513366699,0.08633013814687729
1772698455325256000,3.840255859375,0.3082604706287384,0.19023653864860535,0.11034359037876129
1772698455335213000,3.850213134765625,-0.11222361773252487,-0.016693470999598503,0.14608614146709442
1772698455345170000,3.860169921875,-0.44497302174568176,-0.1822308599948883,0.2797142267227173
1772698455355126800,3.870126708984375,-0.6419119238853455,-0.27520954608917236,0.5132611989974976
1772698455365084000,3.880083984375,-0.7346162796020508,-0.31678837537765503,0.7230098247528076
1772698455375041000,3.890041015625,-0.7473092079162598,-0.30379828810691833,0.7987291216850281
1772698455384998100,3.899998046875,-0.6610168814659119,-0.2344098836183548,0.6939840912818909
1772698455394955000,3.909955078125,-0.4895034730434418,-0.11360438168048859,0.44258326292037964
1772698455404911900,3.919911865234375,-0.26031821966171265,0.017043909057974815,0.11640356481075287
1772698455414869000,3.929868896484375,-0.0028803013265132904,0.13318783044815063,-0.1833045929670334
1772698455424825900,3.939825927734375,0.22998331487178802,0.22352758049964905,-0.40048298239707947
1772698455434783000,3.949782958984375,0.3797552287578583,0.27309006452560425,-0.5270422697067261
1772698455444740000,3.959739990234375,0.4322570562362671,0.2996335029602051,-0.5709681510925293
1772698455454697000,3.969697021484375,0.3895295560359955,0.31027230620384216,-0.5170084834098816
1772698455464654000,3.979654052734375,0.29028603434562683,0.2807457447052002,-0.3743436634540558
1772698455474611000,3.98961083984375,0.18560703098773956,0.22015056014060974,-0.165957972407341
1772698455484567800,3.99956787109375,0.10320592671632767,0.15286698937416077,0.06732013821601868
1772698455494525000,4.00952490234375,0.045111462473869324,0.09599865972995758,0.251996785402298
1772698455504482000,4.01948193359375,0.0011224146001040936,0.0848521962761879,0.3355043828487396
1772698455514440000,4.02943994140625,-0.012346256524324417,0.095033198595047,0.30551639199256897
1772698455524396800,4.039396728515625,0.026317788287997246,0.10712902992963791,0.213667631149292
1772698455534354000,4.04935400390625,0.11625432968139648,0.12186669558286667,0.15251904726028442
1772698455544311000,4.05931103515625,0.21629680693149567,0.11862703412771225,0.20669417083263397
1772698455554268000,4.069267822265625,0.26442304253578186,0.08693888038396835,0.3467594087123871
1772698455564225000,4.07922509765625,0.23069408535957336,0.040881842374801636,0.43150776624679565
1772698455574182100,4.08918212890625,0.1429288238286972,-0.005698708817362785,0.389970988035202
1772698455584138800,4.099138671875,0.03180071339011192,-0.05056709051132202,0.2623535692691803
1772698455594095900,4.109095947265625,-0.030938565731048584,-0.09685389697551727,0.12629880011081696
1772698455604053000,4.119052978515625,-0.06828754395246506,-0.10996679216623306,0.017624855041503906
1772698455614009900,4.129009765625,-0.15120694041252136,-0.07571587711572647,-0.0215931199491024
1772698455623967000,4.138967041015625,-0.2809348404407501,-0.004033801145851612,0.002367917913943529
1772698455633924000,4.148924072265625,-0.4101184010505676,0.07287323474884033,0.05069443956017494
1772698455643881000,4.158880859375,-0.47179296612739563,0.15450231730937958,0.10320714116096497
1772698455653837800,4.168837890625,-0.39783698320388794,0.25769874453544617,0.14938636124134064
1772698455663795000,4.178794921875,-0.16648229956626892,0.3614094853401184,0.17820215225219727
1772698455673752000,4.188751953125,0.16471321880817413,0.4484652876853943,0.13103890419006348
1772698455683709000,4.198708984375,0.43713968992233276,0.3901844918727875,-0.11193467676639557
1772698455693666000,4.208666015625,0.5346774458885193,0.17049077153205872,-0.6534554362297058
1772698455703624000,4.2186240234375,0.3722642660140991,-0.02835700660943985,-1.4463807344436646
1772698455713581000,4.2285810546875,0.029674405232071877,-0.1174706369638443,-1.9333900213241577
1772698455723538000,4.238537841796875,-0.3371054232120514,-0.0739128589630127,-1.7607685327529907
1772698455733495000,4.2484951171875,-0.6016010046005249,0.03364928811788559,-1.0201424360275269
1772698455743452200,4.2584521484375,-0.743262529373169,0.08483301103115082,-0.05674856901168823
1772698455753409000,4.268408935546875,-0.7260190844535828,0.11034609377384186,0.6746798157691956
1772698455763366000,4.278365966796875,-0.5585360527038574,0.10869714617729187,0.821075439453125
1772698455773323000,4.288322998046875,-0.3107912540435791,0.11075097322463989,0.4498920142650604
1772698455783279900,4.29827978515625,-0.07955140620470047,0.07626452296972275,-0.15030264854431152
1772698455793237000,4.308237060546875,0.053586676716804504,0.11143343150615692,-0.5975257158279419
1772698455803194000,4.318194091796875,0.07133828103542328,0.2059723287820816,-0.7141512632369995
1772698455813151000,4.32815087890625,0.0589015856385231,0.27899911999702454,-0.5861661434173584
1772698455823107800,4.33810791015625,0.0895707979798317,0.29611867666244507,-0.3608929216861725
1772698455833065000,4.34806494140625,0.16472680866718292,0.25648975372314453,-0.13449440896511078
1772698455843021800,4.358021728515625,0.24729838967323303,0.19407624006271362,0.04969793185591698
1772698455852979000,4.36797900390625,0.2688305675983429,0.1266668438911438,0.1724667251110077
1772698455862936000,4.37793603515625,0.2134149670600891,0.08488760143518448,0.22238026559352875
1772698455872893000,4.387892822265625,0.10294384509325027,0.07992187142372131,0.22270171344280243
1772698455882850000,4.39785009765625,-0.026519890874624252,0.10085158050060272,0.17605376243591309
1772698455892808000,4.407807861328125,-0.11657281965017319,0.12267272174358368,0.08445220440626144
1772698455902765000,4.41776513671875,-0.13864505290985107,0.12909746170043945,-0.01938566006720066
1772698455912722000,4.427721923828125,-0.07397764921188354,0.12703511118888855,-0.10600310564041138
1772698455922679000,4.437678955078125,0.030139995738863945,0.12890318036079407,-0.13456988334655762
1772698455932636000,4.447635986328125,0.11782511323690414,0.126874640583992,-0.10186386853456497
1772698455942592800,4.4575927734375,0.14895978569984436,0.16753393411636353,-0.008677473291754723
1772698455952550000,4.4675498046875,0.1120036318898201,0.2321198582649231,0.14739681780338287
1772698455962507000,4.477507080078125,0.05476781725883484,0.2635335922241211,0.29986152052879333
1772698455972464000,4.487464111328125,0.03589212894439697,0.2508856952190399,0.3650447726249695
1772698455982421000,4.4974208984375,0.05628316476941109,0.22080719470977783,0.2973192036151886
1772698455992378000,4.507378173828125,0.09997338801622391,0.16641585528850555,0.1504993736743927
1772698456002335000,4.5173349609375,0.1345987617969513,0.09748747944831848,-0.03165605291724205
1772698456012291800,4.527291748046875,0.1322045773267746,0.025550169870257378,-0.21376833319664001
1772698456022249500,4.53724951171875,0.10139153152704239,-0.037400055676698685,-0.40532997250556946
1772698456032206300,4.547206298828125,0.07904575020074844,-0.07999491691589355,-0.5761168599128723
1772698456042163500,4.55716357421875,0.1019822284579277,-0.10404882580041885,-0.632131040096283
1772698456052120300,4.567120361328125,0.20490434765815735,-0.07795650511980057,-0.508172869682312
1772698456062077200,4.5770771484375,0.317395955324173,-0.04949261620640755,-0.21468612551689148
1772698456072034300,4.587034423828125,0.39106857776641846,-0.04583502933382988,0.19350135326385498
1772698456081992400,4.596992431640625,0.4233700633049011,-0.06020992994308472,0.552411675453186
1772698456091949600,4.606949462890625,0.40848830342292786,-0.07104340940713882,0.71230548620224
1772698456101906200,4.61690625,0.3727244734764099,-0.10314717888832092,0.6584840416908264
1772698456111863300,4.62686328125,0.36042094230651855,-0.15651719272136688,0.48709630966186523
1772698456121820400,4.6368203125,0.3528461158275604,-0.22784575819969177,0.27038201689720154
1772698456131777300,4.64677734375,0.322881281375885,-0.29697954654693604,0.10113439708948135
1772698456141734400,4.656734375,0.25420287251472473,-0.3598672151565552,0.05183646082878113
1772698456151691500,4.66669140625,0.1541905254125595,-0.43619847297668457,0.10256008803844452
1772698456161648400,4.6766484375,0.06087306886911392,-0.528417706489563,0.2034020721912384
1772698456171605200,4.686605224609375,-0.01552742999047041,-0.5959981083869934,0.3157413899898529
1772698456181562400,4.696562255859375,-0.09125836938619614,-0.62164306640625,0.3701897859573364
1772698456191519500,4.70651953125,-0.14729633927345276,-0.6015146374702454,0.33864811062812805
1772698456201476400,4.716476318359375,-0.13202685117721558,-0.5657561421394348,0.26448309421539307
1772698456211433500,4.72643359375,-0.03786438703536987,-0.5735794305801392,0.19071941077709198
1772698456221390600,4.736390625,0.0846194177865982,-0.6624196767807007,0.10322795808315277
1772698456231347200,4.74634716796875,0.13422054052352905,-0.8081526160240173,-0.03674166649580002
1772698456241304300,4.75630419921875,0.03621331602334976,-0.9067387580871582,-0.2035529762506485
1772698456251261400,4.766261474609375,-0.17986838519573212,-0.9265984892845154,-0.3223011791706085
1772698456261219600,4.776219482421875,-0.42958953976631165,-0.8387029767036438,-0.34301650524139404
1772698456271176400,4.786176513671875,-0.6200271248817444,-0.7177256941795349,-0.2706555128097534
1772698456281133300,4.79613330078125,-0.6900038719177246,-0.6102387309074402,-0.14430886507034302
1772698456291090400,4.80609033203125,-0.6220980882644653,-0.5272825956344604,-0.05343036353588104
1772698456301047300,4.81604736328125,-0.502228319644928,-0.42078697681427,-0.05928533524274826
1772698456311004400,4.82600439453125,-0.3991791605949402,-0.2926394045352936,-0.12393809854984283
1772698456320961500,4.83596142578125,-0.29990479350090027,-0.15993303060531616,-0.17915897071361542
1772698456330918400,4.84591845703125,-0.17928330600261688,-0.05902373790740967,-0.20733708143234253
1772698456340875300,4.855875244140625,-0.03039982169866562,0.006497215013951063,-0.21087029576301575
1772698456350832400,4.865832275390625,0.09942688047885895,0.03439968824386597,-0.22408996522426605
1772698456360789200,4.875789306640625,0.1635216772556305,0.06000295281410217,-0.25351279973983765
1772698456370746400,4.885746337890625,0.15787552297115326,0.07481066137552261,-0.28670963644981384
1772698456380703500,4.895703369140625,0.08239835500717163,0.07889175415039062,-0.3068358600139618
1772698456390660400,4.905660400390625,-0.034365542232990265,0.07353667169809341,-0.283022403717041
1772698456400617500,4.915617431640625,-0.15968722105026245,0.05858337879180908,-0.1967591792345047
1772698456410574300,4.92557421875,-0.24048353731632233,0.04058466851711273,-0.05286752060055733
1772698456420531200,4.93553125,-0.2659628391265869,0.024747803807258606,0.10741863399744034
1772698456430488300,4.94548828125,-0.24227933585643768,0.015382531099021435,0.27132076025009155
1772698456440445400,4.955445556640625,-0.1707766205072403,0.020399758592247963,0.40592727065086365
1772698456450402600,4.965402587890625,-0.07314301282167435,0.04314208775758743,0.4701749384403229
1772698456460360200,4.975360107421875,0.009059443138539791,0.059480827301740646,0.44688114523887634
1772698456470317300,4.9853173828125,0.07570824772119522,0.04919197037816048,0.339234322309494
1772698456480274400,4.9952744140625,0.1223931685090065,0.03790166601538658,0.1710008829832077
1772698456490231300,5.005231201171875,0.12351860851049423,0.010758459568023682,-0.031110413372516632
1772698456500188400,5.0151884765625,0.07593332976102829,-0.011761484667658806,-0.19640755653381348
1772698456510145500,5.0251455078125,-0.0259978286921978,-0.035099562257528305,-0.2745217978954315
1772698456520102400,5.035102294921875,-0.15796974301338196,-0.04702188819646835,-0.2507376968860626
1772698456530059300,5.045059326171875,-0.26240721344947815,-0.06668400764465332,-0.16280463337898254
1772698456540016400,5.055016357421875,-0.32423168420791626,-0.09378775954246521,-0.04759936034679413
1772698456549973500,5.064973388671875,-0.33393970131874084,-0.11505176872015,0.05268703028559685
1772698456559930400,5.074930419921875,-0.29908105731010437,-0.11161340773105621,0.12708421051502228
1772698456569887500,5.084887451171875,-0.23837324976921082,-0.09573058784008026,0.16535408794879913
1772698456579844400,5.09484423828125,-0.162690207362175,-0.04890208691358566,0.1610136479139328
1772698456589801200,5.10480126953125,-0.07213740050792694,0.023840297013521194,0.12634648382663727
1772698456599758300,5.11475830078125,0.04684010148048401,0.09345687180757523,0.06922264397144318
1772698456609715500,5.124715576171875,0.15303924679756165,0.1499297320842743,-0.008264427073299885
1772698456619672300,5.13467236328125,0.24128682911396027,0.20220232009887695,-0.050597675144672394
1772698456629629400,5.14462939453125,0.26272687315940857,0.2326670140028,-0.018063433468341827
1772698456639586600,5.154586669921875,0.23331168293952942,0.22731152176856995,0.08688580244779587
1772698456649544400,5.16454443359375,0.173977792263031,0.1878969967365265,0.21089215576648712
1772698456659501300,5.174501220703125,0.09418918937444687,0.12508225440979004,0.2869718074798584
1772698456669458400,5.18445849609375,-0.006171769462525845,0.08592312783002853,0.29581907391548157
1772698456679415600,5.19441552734375,-0.08645803481340408,0.11744478344917297,0.29027852416038513
1772698456689372400,5.204372314453125,-0.12907686829566956,0.17495466768741608,0.3246926963329315
1772698456699329300,5.214329345703125,-0.10866748541593552,0.2345622479915619,0.37388500571250916
1772698456709286400,5.224286376953125,-0.013264000415802002,0.299363374710083,0.373821884393692
1772698456719243300,5.2342431640625,0.14219166338443756,0.38314300775527954,0.3101913332939148
1772698456729200400,5.244200439453125,0.3128432631492615,0.4580113887786865,0.26205870509147644
1772698456739157500,5.254157470703125,0.46894022822380066,0.5324353575706482,0.3112528622150421
1772698456749114400,5.2641142578125,0.631831169128418,0.5302920341491699,0.43601688742637634
1772698456759071200,5.2740712890625,0.7749454379081726,0.4132050573825836,0.45370057225227356
1772698456769028400,5.2840283203125,0.8022153973579407,0.10125059634447098,0.14764611423015594
1772698456778985500,5.2939853515625,0.6461445093154907,-0.2177106738090515,-0.4767307639122009
1772698456788942300,5.3039423828125,0.2632538974285126,-0.5073520541191101,-1.065430760383606
1772698456798899500,5.3138994140625,-0.325295090675354,-0.5488895177841187,-1.1517688035964966
1772698456808856600,5.323856689453125,-0.9297026991844177,-0.45359867811203003,-0.7614092826843262
1772698456818813400,5.3338134765625,-1.306369662284851,-0.35385701060295105,-0.18859654664993286
1772698456828771300,5.343771240234375,-1.2491928339004517,-0.37947583198547363,0.3507513701915741
1772698456838728400,5.353728515625,-0.8530713319778442,-0.40351149439811707,0.6434512138366699
1772698456848685600,5.363685546875,-0.34719032049179077,-0.4379453659057617,0.5718867778778076
1772698456858642400,5.373642333984375,0.05722911283373833,-0.36752796173095703,0.214688241481781
1772698456868599300,5.383599365234375,0.26924628019332886,-0.2231052815914154,-0.22006720304489136
1772698456878556400,5.393556396484375,0.3040308952331543,-0.06281901150941849,-0.5390186309814453
1772698456888513300,5.40351318359375,0.263443261384964,0.060019563883543015,-0.6444848775863647
1772698456898470400,5.413470458984375,0.21621905267238617,0.11902337521314621,-0.5770532488822937
1772698456908427500,5.423427490234375,0.20666097104549408,0.10319753736257553,-0.3758205473423004
1772698456918384400,5.43338427734375,0.22437147796154022,0.06477010995149612,-0.1118161529302597
1772698456928341500,5.443341552734375,0.19596301019191742,0.03588306903839111,0.12357879430055618
1772698456938298400,5.45329833984375,0.12241235375404358,0.04193323850631714,0.24264127016067505
1772698456948255200,5.463255126953125,0.027311144396662712,0.056224558502435684,0.23803186416625977
1772698456958212400,5.47321240234375,-0.06080054119229317,0.06528646498918533,0.14034374058246613
1772698456968169500,5.48316943359375,-0.1058090329170227,0.06702204793691635,-0.003215296659618616
1772698456978126300,5.493126220703125,-0.12533701956272125,0.05506516247987747,-0.14665551483631134
1772698456988083500,5.50308349609375,-0.11467158794403076,0.04446737840771675,-0.2606486678123474
1772698456998040300,5.513040283203125,-0.09166105836629868,0.04321259632706642,-0.3142584264278412
1772698457007997200,5.5229970703125,-0.0747944563627243,0.06360601633787155,-0.300642728805542
1772698457017955300,5.532955322265625,-0.06929850578308105,0.08517330884933472,-0.20632004737854004
1772698457027912200,5.542912109375,-0.0691475048661232,0.10345856845378876,-0.07862972468137741
1772698457037869300,5.552869384765625,-0.054004471749067307,0.119779072701931,0.030087847262620926
1772698457047826200,5.562826171875,-0.02363990806043148,0.12472749501466751,0.11167486011981964
1772698457057783000,5.572782958984375,0.021855365484952927,0.13730120658874512,0.151777982711792
1772698457067740200,5.582740234375,0.05047769099473953,0.15097840130329132,0.16699235141277313
1772698457077697300,5.592697265625,0.08716890960931778,0.16700094938278198,0.15947821736335754
1772698457087654100,5.602654052734375,0.13554388284683228,0.1738300919532776,0.14432775974273682
1772698457097611300,5.612611328125,0.1847822517156601,0.1721537858247757,0.12531423568725586
1772698457107568400,5.622568359375,0.2122998833656311,0.15081600844860077,0.1026637926697731
1772698457117525000,5.63252490234375,0.2099754959344864,0.10691089928150177,0.10719608515501022
1772698457127482000,5.642482177734375,0.20179639756679535,0.05582668259739876,0.10519924759864807
1772698457137439200,5.652439208984375,0.1938551366329193,0.0018767081201076508,0.10239683091640472
1772698457147396400,5.662396240234375,0.18098567426204681,-0.05764733999967575,0.11595392227172852
1772698457157353200,5.672353271484375,0.14850975573062897,-0.1196284368634224,0.09906448423862457
1772698457167310300,5.682310302734375,0.07602623105049133,-0.15299493074417114,0.06869858503341675
1772698457177267200,5.69226708984375,-0.025835173204541206,-0.1813768595457077,0.062095023691654205
1772698457187224000,5.70222412109375,-0.14965885877609253,-0.2107083797454834,0.09458079189062119
1772698457197181200,5.71218115234375,-0.23797698318958282,-0.25146615505218506,0.1517915278673172
1772698457207138300,5.72213818359375,-0.26032355427742004,-0.2677907943725586,0.19799257814884186
1772698457217096400,5.732096435546875,-0.2362600415945053,-0.2589901387691498,0.20981435477733612
1772698457227053000,5.742052978515625,-0.1535041779279709,-0.22652457654476166,0.23413780331611633
1772698457237010200,5.75201025390625,-0.03304484859108925,-0.16605235636234283,0.2689056396484375
1772698457246967300,5.76196728515625,0.09295089542865753,-0.08197557181119919,0.27916544675827026
1772698457256924200,5.771924072265625,0.20104964077472687,0.002938943449407816,0.2373296618461609
1772698457266881300,5.78188134765625,0.2883363366127014,0.06903354078531265,0.128868967294693
1772698457276838400,5.79183837890625,0.35767361521720886,0.08698836714029312,-0.005380095914006233
1772698457286795300,5.801795166015625,0.37548086047172546,0.05093155801296234,-0.12183479964733124
1772698457296752000,5.811752197265625,0.3244006335735321,-0.05165502429008484,-0.21607016026973724
1772698457306709200,5.821709228515625,0.17338232696056366,-0.1982244998216629,-0.29964813590049744
1772698457316666000,5.831666015625,-0.07425250113010406,-0.3503980338573456,-0.33755770325660706
1772698457326623200,5.841623291015625,-0.35109925270080566,-0.4431908130645752,-0.2955932021141052
1772698457336580400,5.851580322265625,-0.6281559467315674,-0.43445339798927307,-0.1962430328130722
1772698457346537200,5.861537109375,-0.8307652473449707,-0.3596683740615845,-0.11489225924015045
1772698457356494000,5.871494140625,-0.8873533606529236,-0.245973140001297,-0.11080781370401382
1772698457366451200,5.881451171875,-0.7911397814750671,-0.08583486825227737,-0.1593785434961319
1772698457376408000,5.891407958984375,-0.5851650238037109,0.1388542503118515,-0.18395528197288513
1772698457386366200,5.9013662109375,-0.3289516270160675,0.4111824631690979,-0.15800756216049194
1772698457396323300,5.9113232421875,-0.041331563144922256,0.6786191463470459,-0.13469567894935608
1772698457406280200,5.9212802734375,0.2788879871368408,0.8771559596061707,-0.17320099472999573
1772698457416237000,5.931237060546875,0.6265767216682434,0.9694451093673706,-0.25981995463371277
1772698457426194200,5.941194091796875,0.9460460543632507,0.9233519434928894,-0.341133177280426
1772698457436151300,5.9511513671875,1.1487301588058472,0.7530853748321533,-0.3626726269721985
1772698457446108200,5.961108154296875,1.1530985832214355,0.5010475516319275,-0.28970786929130554
1772698457456065300,5.971065185546875,0.9143930077552795,0.21202121675014496,-0.1375458985567093
1772698457466022100,5.981022216796875,0.4787680208683014,-0.06229395419359207,0.04379592463374138
1772698457475979300,5.990979248046875,-0.02557365596294403,-0.28820371627807617,0.21473658084869385
1772698457485936000,6.00093603515625,-0.46198639273643494,-0.4804283082485199,0.36340221762657166
1772698457495893200,6.010893310546875,-0.7637025117874146,-0.6345144510269165,0.4751126170158386
1772698457505850400,6.020850341796875,-0.9329123497009277,-0.7198730707168579,0.5250210762023926
1772698457515807200,6.03080712890625,-0.9869409799575806,-0.7440915703773499,0.49454280734062195
1772698457525764400,6.040764404296875,-0.9309471845626831,-0.6899260878562927,0.3717615008354187
1772698457535721200,6.05072119140625,-0.7531713843345642,-0.5975339412689209,0.1876770257949829
1772698457545678000,6.060677978515625,-0.4761749505996704,-0.482383668422699,-0.012646741233766079
1772698457555635200,6.07063525390625,-0.18290840089321136,-0.36092230677604675,-0.16302531957626343
1772698457565592300,6.08059228515625,0.05504530668258667,-0.24786315858364105,-0.2462770640850067
1772698457575549200,6.090549072265625,0.1867191642522812,-0.14544017612934113,-0.25807544589042664
1772698457585507000,6.100507080078125,0.21645362675189972,-0.05988426133990288,-0.2100224494934082
1772698457595464200,6.110464111328125,0.1794586032629013,-0.007623142562806606,-0.13617445528507233
1772698457605421300,6.12042138671875,0.12084482610225677,0.017995135858654976,-0.04810664802789688
1772698457615378200,6.130378173828125,0.07242771983146667,0.02164888009428978,0.03753216937184334
1772698457625335300,6.140335205078125,0.05639735609292984,0.03868485614657402,0.11089160293340683
1772698457635292400,6.15029248046875,0.06750117242336273,0.0710892528295517,0.16514328122138977
1772698457645249000,6.1602490234375,0.10678733140230179,0.11432567238807678,0.18918044865131378
1772698457655206100,6.1702060546875,0.17999444901943207,0.1743118166923523,0.18703648447990417
1772698457665163300,6.180163330078125,0.2733859121799469,0.22754468023777008,0.18233467638492584
1772698457675120000,6.1901201171875,0.3503997027873993,0.26882895827293396,0.16226419806480408
1772698457685077200,6.2000771484375,0.3739761412143707,0.3039552569389343,0.1314525008201599
1772698457695034400,6.210034423828125,0.3542727530002594,0.33382922410964966,0.09004703164100647
1772698457704991000,6.219990966796875,0.3025807738304138,0.34741562604904175,0.08097364008426666
1772698457714948000,6.229947998046875,0.22543910145759583,0.3314317464828491,0.09381388872861862
1772698457724905200,6.2399052734375,0.10371746122837067,0.30454233288764954,0.09058400243520737
1772698457734862300,6.2498623046875,-0.06653493642807007,0.2773773670196533,0.04501810669898987
1772698457744819200,6.259819091796875,-0.25369390845298767,0.2952730357646942,-0.00047614099457859993
1772698457754776300,6.2697763671875,-0.4063265919685364,0.4061683714389801,-0.01810459978878498
1772698457764733400,6.2797333984375,-0.44335198402404785,0.49481886625289917,-0.049114979803562164
1772698457774691000,6.289691162109375,-0.2898026406764984,0.5796962380409241,-0.06972336024045944
1772698457784648200,6.299648193359375,-0.0018054796382784843,0.5779726505279541,-0.06209925562143326
1772698457794605300,6.309605224609375,0.30647435784339905,0.5243417620658875,-0.08343448489904404
1772698457804562400,6.3195625,0.5058119893074036,0.47535210847854614,-0.20245008170604706
1772698457814519000,6.32951904296875,0.5434807538986206,0.4392198622226715,-0.36853283643722534
1772698457824476200,6.33947607421875,0.5022768974304199,0.4510807991027832,-0.4679292142391205
1772698457834433300,6.349433349609375,0.4335995614528656,0.4303099811077118,-0.4152980148792267
1772698457844390100,6.35939013671875,0.3603042960166931,0.2996888756752014,-0.19908607006072998
1772698457854347300,6.36934716796875,0.22960960865020752,0.02668488584458828,-0.025087431073188782
1772698457864304400,6.379304443359375,-0.009249572642147541,-0.26208141446113586,-0.07989048957824707
1772698457874261200,6.38926123046875,-0.3290685713291168,-0.46159815788269043,-0.24907895922660828
1772698457884218000,6.399218017578125,-0.6694676876068115,-0.5214921236038208,-0.282088041305542
1772698457894175200,6.40917529296875,-0.9300863742828369,-0.5058317184448242,-0.12878793478012085
1772698457904132000,6.419132080078125,-1.0208338499069214,-0.43834027647972107,0.04263681918382645
1772698457914089200,6.429089111328125,-0.9304920434951782,-0.36699140071868896,0.07130296528339386
1772698457924046300,6.43904638671875,-0.6632416844367981,-0.2967928647994995,-0.04420978203415871
1772698457934003200,6.449003173828125,-0.25548145174980164,-0.2652002274990082,-0.24545975029468536
1772698457943961000,6.458961181640625,0.18403173983097076,-0.22269245982170105,-0.49193981289863586
1772698457953918200,6.468918212890625,0.5199176073074341,-0.1814804971218109,-0.7806693911552429
1772698457963875300,6.478875244140625,0.6680793762207031,-0.14517468214035034,-1.02606201171875
1772698457973832200,6.488832275390625,0.6063781976699829,-0.13472868502140045,-1.1648058891296387
1772698457983789300,6.498789306640625,0.39781543612480164,-0.17774006724357605,-1.1561658382415771
1772698457993746200,6.50874609375,0.09765081852674484,-0.27904853224754333,-1.0417301654815674
1772698458003703000,6.518703125,-0.22165313363075256,-0.3812803626060486,-0.8795402646064758
1772698458013660200,6.52866015625,-0.4989052712917328,-0.47127893567085266,-0.6798185706138611
1772698458023617300,6.5386171875,-0.6935274600982666,-0.5430641770362854,-0.45868486166000366
1772698458033574400,6.548574462890625,-0.7682278156280518,-0.600640058517456,-0.263674795627594
1772698458043531500,6.558531494140625,-0.7330096960067749,-0.6116018891334534,-0.11543712764978409
1772698458053488400,6.56848828125,-0.6187413930892944,-0.5915580987930298,-0.0012026748154312372
1772698458063445200,6.5784453125,-0.448748379945755,-0.5463189482688904,0.06438885629177094
1772698458073402400,6.58840234375,-0.2505873739719391,-0.47887712717056274,0.0730634331703186
1772698458083359500,6.598359375,-0.06393013894557953,-0.3984467387199402,0.04625978693366051
1772698458093316400,6.60831640625,0.09741141647100449,-0.3169596195220947,0.005230702459812164
1772698458103273500,6.6182734375,0.2172270268201828,-0.23849117755889893,-0.014429018832743168
1772698458113230600,6.628230712890625,0.2741941809654236,-0.16187873482704163,0.006529363803565502
1772698458123188500,6.6381884765625,0.26990383863449097,-0.10359199345111847,0.07461094856262207
1772698458133145300,6.648145263671875,0.23099739849567413,-0.08246365189552307,0.18049803376197815
1772698458143102500,6.6581025390625,0.19219566881656647,-0.09053036570549011,0.28234371542930603
1772698458153059600,6.6680595703125,0.16643495857715607,-0.10297515243291855,0.35739293694496155
1772698458163016200,6.67801611328125,0.16406847536563873,-0.10399061441421509,0.40287548303604126
1772698458172973300,6.687973388671875,0.18177048861980438,-0.09168180078268051,0.42714929580688477
1772698458182930400,6.697930419921875,0.22499972581863403,-0.069220170378685,0.43729671835899353
1772698458192887300,6.70788720703125,0.2841828465461731,-0.05354838818311691,0.4267142415046692
1772698458202844400,6.717844482421875,0.35029447078704834,-0.0518341138958931,0.3940894603729248
1772698458212801500,6.727801513671875,0.40897008776664734,-0.0471777506172657,0.35713860392570496
1772698458222758400,6.73775830078125,0.43683552742004395,-0.03111409954726696,0.34136390686035156
1772698458232715300,6.74771533203125,0.44437626004219055,-0.018480051308870316,0.36435574293136597
1772698458242672400,6.75767236328125,0.43490099906921387,-0.013252532109618187,0.4017467796802521
1772698458252629200,6.767629150390625,0.4121094048023224,-0.025706328451633453,0.40971729159355164
1772698458262586400,6.77758642578125,0.37529653310775757,-0.04854053631424904,0.39158540964126587
1772698458272543500,6.78754345703125,0.3699992001056671,-0.07719997316598892,0.4036056101322174
1772698458282500400,6.797500244140625,0.3550010919570923,-0.12892282009124756,0.44166484475135803
1772698458292457200,6.807457275390625,0.29701554775238037,-0.15923063457012177,0.45158475637435913
1772698458302414300,6.817414306640625,0.1909618228673935,-0.18387551605701447,0.44658440351486206
1772698458312372500,6.82737255859375,0.06804895401000977,-0.18785560131072998,0.48339828848838806
1772698458322329300,6.837329345703125,-0.04682942479848862,-0.18191862106323242,0.6119410991668701
1772698458332286500,6.847286376953125,-0.12435774505138397,-0.1435346156358719,0.7800106406211853
1772698458342243300,6.857243408203125,-0.10808396339416504,-0.06190260127186775,0.8742713928222656
1772698458352200200,6.8672001953125,0.030056297779083252,0.05284062400460243,0.8198503851890564
1772698458362157300,6.8771572265625,0.2668595016002655,0.13813340663909912,0.58324134349823
1772698458372114400,6.887114501953125,0.5280256271362305,0.18926356732845306,0.23680680990219116
1772698458382071600,6.897071533203125,0.7342094779014587,0.20032554864883423,-0.15492872893810272
1772698458392028400,6.9070283203125,0.8207350373268127,0.18494096398353577,-0.539435088634491
1772698458401985300,6.9169853515625,0.7147353291511536,0.09533145278692245,-0.8906716704368591
1772698458411942400,6.9269423828125,0.4118756055831909,-0.07942275702953339,-1.1664575338363647
1772698458421899300,6.936899169921875,-0.020143989473581314,-0.25048956274986267,-1.2846262454986572
1772698458431856400,6.9468564453125,-0.4638913571834564,-0.29439374804496765,-1.1793335676193237
1772698458441813500,6.9568134765625,-0.7967391014099121,-0.27459606528282166,-0.8438287973403931
1772698458451770400,6.966770263671875,-0.954342782497406,-0.23118457198143005,-0.39223241806030273
1772698458461727500,6.9767275390625,-0.9073507785797119,-0.15553802251815796,-0.09034311771392822
1772698458471685400,6.986685302734375,-0.6787757277488708,-0.0810154378414154,-0.06880149245262146
1772698458481642500,6.996642578125,-0.37921085953712463,-0.024726327508687973,-0.23380163311958313
1772698458491599400,7.006599365234375,-0.07248950749635696,0.02782611735165119,-0.4335228204727173
1772698458501556500,7.016556396484375,0.1945062279701233,0.06825636327266693,-0.5400617122650146
1772698458511513300,7.026513427734375,0.36711424589157104,0.09467171877622604,-0.48334917426109314
1772698458521470200,7.03647021484375,0.4127272665500641,0.09347089380025864,-0.2912133038043976
1772698458531427300,7.04642724609375,0.340181440114975,0.08159839361906052,-0.046364281326532364
1772698458541384400,7.056384521484375,0.2090950757265091,0.06175704300403595,0.18074476718902588
1772698458551341300,7.06634130859375,0.06837598234415054,0.0440649650990963,0.302010715007782
1772698458561298400,7.07629833984375,-0.029089052230119705,0.02895658276975155,0.2872091233730316
1772698458571255600,7.086255615234375,-0.08083772659301758,0.0011904891580343246,0.15686732530593872
1772698458581212200,7.096212158203125,-0.04786113277077675,-0.05227486416697502,0.005271666683256626
1772698458591169300,7.106169189453125,0.04791547358036041,-0.10307593643665314,-0.05028737336397171
1772698458601126400,7.11612646484375,0.12428614497184753,-0.15770776569843292,-0.02850937284529209
1772698458611083300,7.126083251953125,0.14568625390529633,-0.19150510430335999,0.004601338412612677
1772698458621040400,7.136040283203125,0.11907567828893661,-0.20615196228027344,0.01836082711815834
1772698458630997500,7.14599755859375,0.09658391028642654,-0.21439406275749207,0.0066614774987101555
1772698458640954400,7.155954345703125,0.12519904971122742,-0.22811412811279297,0.01946941763162613
1772698458650912300,7.165912353515625,0.20406833291053772,-0.239842027425766,0.05788406729698181
1772698458660869400,7.175869384765625,0.28937017917633057,-0.23485791683197021,0.09482318162918091
1772698458670826500,7.185826416015625,0.3553566038608551,-0.21281024813652039,0.12328308820724487
1772698458680783400,7.195783447265625,0.394623339176178,-0.16569946706295013,0.1610824018716812
1772698458690740200,7.205740234375,0.4164583086967468,-0.12527374923229218,0.2061053067445755
1772698458700697300,7.215697265625,0.4367324411869049,-0.08818231523036957,0.2344285547733307
1772698458710654500,7.225654541015625,0.45384088158607483,-0.0388072244822979,0.2433677464723587
1772698458720611300,7.235611328125,0.45745399594306946,0.03248373046517372,0.23869310319423676
1772698458730568400,7.245568359375,0.46779665350914,0.08069179207086563,0.25450649857521057
1772698458740525600,7.255525634765625,0.5055214166641235,0.11077885329723358,0.27590474486351013
1772698458750482400,7.265482421875,0.5838577151298523,0.11503240466117859,0.31946998834609985
1772698458760439300,7.275439208984375,0.6424126029014587,0.10467670112848282,0.34282615780830383
1772698458770396400,7.285396484375,0.6638718247413635,0.08363784849643707,0.34926000237464905
1772698458780353300,7.295353271484375,0.6966567039489746,0.05318459868431091,0.3691604733467102
1772698458790310400,7.305310302734375,0.744896650314331,0.009932881221175194,0.4042711555957794
1772698458800267500,7.315267578125,0.7747067213058472,-0.03824663162231445,0.47962501645088196
1772698458810224400,7.325224365234375,0.7375010848045349,-0.09331025183200836,0.5774874687194824
1772698458820181200,7.33518115234375,0.6024641394615173,-0.1311654895544052,0.6322481632232666
1772698458830139400,7.345139404296875,0.4547346234321594,-0.13779906928539276,0.6124715805053711
1772698458840096500,7.355096435546875,0.3598131835460663,-0.13511967658996582,0.5782235860824585
1772698458850053400,7.365053466796875,0.3578246235847473,-0.1606113463640213,0.5580313801765442
1772698458860010500,7.375010498046875,0.40443527698516846,-0.20795488357543945,0.5672121047973633
1772698458869967400,7.38496728515625,0.4196980893611908,-0.21033558249473572,0.5047618746757507
1772698458879924200,7.39492431640625,0.33948713541030884,-0.21299181878566742,0.2762410342693329
1772698458889881300,7.40488134765625,0.15516947209835052,-0.21460358798503876,-0.04776971414685249
1772698458899838500,7.41483837890625,-0.058193400502204895,-0.161105215549469,-0.25776928663253784
1772698458909795300,7.42479541015625,-0.2337561547756195,-0.15342511236667633,-0.25125062465667725
1772698458919752400,7.43475244140625,-0.32102662324905396,-0.19161804020404816,-0.1368926465511322
1772698458929709300,7.444709228515625,-0.3041578531265259,-0.23273052275180817,-0.03248598054051399
1772698458939666200,7.454666259765625,-0.2594444453716278,-0.25356337428092957,0.013014391995966434
1772698458949623300,7.464623291015625,-0.2516861855983734,-0.23544901609420776,0.017503241077065468
1772698458959580400,7.474580322265625,-0.2611081898212433,-0.17189399898052216,-0.006732323672622442
1772698458969537500,7.48453759765625,-0.2901422083377838,-0.06951504945755005,-0.06553370505571365
1772698458979494400,7.494494384765625,-0.31890514492988586,0.029928185045719147,-0.15961065888404846
1772698458989451500,7.504451416015625,-0.3426973223686218,0.10925009101629257,-0.2797030210494995
1772698458999409400,7.514409423828125,-0.3743409812450409,0.15775105357170105,-0.4172725975513458
1772698459009366300,7.5243662109375,-0.40919724106788635,0.16063392162322998,-0.5400562882423401
1772698459019323400,7.534323486328125,-0.44475817680358887,0.13797494769096375,-0.5977433323860168
1772698459029280300,7.5442802734375,-0.498634397983551,0.11536173522472382,-0.5683570504188538
1772698459039237000,7.554237060546875,-0.5703272223472595,0.08489996194839478,-0.4818112552165985
1772698459049194000,7.564194091796875,-0.6252312064170837,0.06274955719709396,-0.3900941014289856
1772698459059151000,7.574151123046875,-0.6259183287620544,0.03552912175655365,-0.32566317915916443
1772698459069108000,7.58410791015625,-0.5970763564109802,0.03501555323600769,-0.3114684522151947
1772698459079065000,7.594065185546875,-0.5516678690910339,0.05817600339651108,-0.3490014374256134
1772698459089022200,7.604022216796875,-0.5153215527534485,0.11032351851463318,-0.4216199219226837
1772698459098979000,7.61397900390625,-0.5064436197280884,0.19787627458572388,-0.5007120966911316
1772698459108936200,7.623936279296875,-0.48949870467185974,0.2816530764102936,-0.5468476414680481
1772698459118893000,7.63389306640625,-0.40920600295066833,0.33796775341033936,-0.506070613861084
1772698459128850000,7.643849853515625,-0.28562605381011963,0.3720480501651764,-0.39379674196243286
1772698459138807000,7.65380712890625,-0.19068065285682678,0.373384952545166,-0.2651625871658325
1772698459148764200,7.66376416015625,-0.14648756384849548,0.37564295530319214,-0.1472759246826172
1772698459158721300,7.67372119140625,-0.13883736729621887,0.3953455686569214,-0.05502483621239662
1772698459168679000,7.683678955078125,-0.1530458778142929,0.4375411570072174,0.022779090330004692
1772698459178636000,7.693635986328125,-0.16716356575489044,0.4873414635658264,0.0905325710773468
1772698459188593200,7.70359326171875,-0.14906767010688782,0.5296526551246643,0.14408685266971588
1772698459198550000,7.713550048828125,-0.08738646656274796,0.5590877532958984,0.17496326565742493
1772698459208507100,7.723507080078125,-0.016904519870877266,0.5721787214279175,0.16710497438907623
1772698459218464300,7.73346435546875,0.05191582441329956,0.5734043121337891,0.13037411868572235
1772698459228421000,7.743421142578125,0.10091636329889297,0.5426306128501892,0.12408533692359924
1772698459238378000,7.7533779296875,0.10295315086841583,0.5006131529808044,0.1233242005109787
1772698459248335000,7.763335205078125,0.03716559335589409,0.49090102314949036,0.10275202244520187
1772698459258292200,7.773292236328125,-0.09447605162858963,0.518227756023407,0.02617921680212021
1772698459268249000,7.7832490234375,-0.20271536707878113,0.5362074971199036,-0.1424431949853897
1772698459278206200,7.793206298828125,-0.23379285633563995,0.5187254548072815,-0.43981948494911194
1772698459288163000,7.8031630859375,-0.2061479389667511,0.4848922789096832,-0.7901674509048462
1772698459298120000,7.813119873046875,-0.1526266634464264,0.4668205976486206,-1.065014362335205
1772698459308077000,7.8230771484375,-0.08169417828321457,0.4409967362880707,-1.145235300064087
1772698459318034200,7.8330341796875,-0.019392717629671097,0.44133496284484863,-0.9527187943458557
1772698459327991000,7.842990966796875,0.028364378958940506,0.45633265376091003,-0.5099765658378601
1772698459337949000,7.852948974609375,0.06686809659004211,0.41990089416503906,0.0749364048242569
1772698459347906000,7.862906005859375,0.07976900786161423,0.36550483107566833,0.6059743762016296
1772698459357863200,7.87286328125,0.06859438866376877,0.321892112493515,0.8997132778167725
1772698459367820000,7.882820068359375,0.03582203388214111,0.2916736602783203,0.8918660879135132
1772698459377777200,7.892777099609375,-0.00033863261342048645,0.2794335186481476,0.7125370502471924
1772698459387734300,7.902734375,-0.006514224223792553,0.28793996572494507,0.46420273184776306
1772698459397691100,7.912691162109375,0.011246929876506329,0.29162126779556274,0.22185160219669342
1772698459407648000,7.92264794921875,0.08112110942602158,0.2894096076488495,0.02047370746731758
1772698459417605000,7.932605224609375,0.21213506162166595,0.2703717350959778,-0.1356048285961151
1772698459427562000,7.94256201171875,0.3825078308582306,0.2471587359905243,-0.23460008203983307
1772698459437519000,7.95251904296875,0.5201032161712646,0.23592045903205872,-0.28522172570228577
1772698459447476200,7.962476318359375,0.5848015546798706,0.23991651833057404,-0.28580495715141296
1772698459457433000,7.97243310546875,0.5783625245094299,0.2534256875514984,-0.2562750279903412
1772698459467390000,7.982389892578125,0.5094205737113953,0.2474389374256134,-0.22145037353038788
1772698459477347000,7.99234716796875,0.42673787474632263,0.2226286679506302,-0.1743829995393753
1772698459487304200,8.00230419921875,0.3584959805011749,0.15923640131950378,-0.10184281319379807
1772698459497261000,8.012260986328124,0.2973921597003937,0.06556477397680283,-0.006853449624031782
1772698459507219200,8.02221923828125,0.2403397560119629,-0.02530268207192421,0.11546382308006287
1772698459517176000,8.032176025390624,0.17843323945999146,-0.09688898921012878,0.2506219148635864
1772698459527133000,8.0421328125,0.11980243027210236,-0.13676951825618744,0.35049617290496826
1772698459537090000,8.052090087890624,0.09522731602191925,-0.1494070142507553,0.3854197859764099
1772698459547047200,8.062047119140624,0.09543798863887787,-0.15351833403110504,0.3419802784919739
1772698459557004000,8.072004150390624,0.11732491105794907,-0.1736033707857132,0.26661574840545654
1772698459566961200,8.081961181640626,0.16925255954265594,-0.18215452134609222,0.21519173681735992
1772698459576918000,8.09191796875,0.21669410169124603,-0.1811278760433197,0.1727910190820694
1772698459586875100,8.101875244140626,0.24134136736392975,-0.14581285417079926,0.08655015379190445
1772698459596832000,8.11183203125,0.19405081868171692,-0.1289164274930954,-0.04180968552827835
1772698459606789000,8.1217890625,0.1284819394350052,-0.14685223996639252,-0.10899365693330765
1772698459616746200,8.131746337890625,0.0679866373538971,-0.14482450485229492,-0.11898370832204819
1772698459626703000,8.141703125,0.0020579644478857517,-0.15189304947853088,-0.13628903031349182
1772698459636660200,8.15166015625,-0.026647184044122696,-0.14230619370937347,-0.15164081752300262
1772698459646617000,8.1616171875,0.03574774041771889,-0.1594407558441162,-0.07781653106212616
1772698459656574000,8.171573974609375,0.04953226074576378,-0.08112490177154541,-0.11706220358610153
1772698459666531000,8.181531005859375,-0.02413182519376278,-0.08418641984462738,-0.16094008088111877
1772698459676488200,8.19148828125,-0.08254293352365494,-0.09295380860567093,-0.13022397458553314
1772698459686446000,8.201446044921875,-0.07078293710947037,-0.16569535434246063,-0.06388983875513077
1772698459696403000,8.21140283203125,0.034355465322732925,-0.22535547614097595,0.0005139191634953022
1772698459706360000,8.221360107421875,0.11161988973617554,-0.20738233625888824,0.016175970435142517
1772698459716317200,8.231317138671875,0.12361610680818558,-0.16449372470378876,0.0253918394446373
1772698459726274000,8.241274169921875,0.07148712128400803,-0.07144102454185486,0.04935818910598755
1772698459736231200,8.251231201171874,-0.005316848400980234,0.03091171197593212,0.04798160493373871
1772698459746188300,8.261188232421874,-0.06002539396286011,0.10610409826040268,0.027306197211146355
1772698459756145000,8.271144775390624,-0.11142653226852417,0.15330997109413147,-0.032377105206251144
1772698459766102000,8.28110205078125,-0.13689351081848145,0.20826496183872223,-0.13097098469734192
1772698459776059100,8.29105908203125,-0.11629315465688705,0.3031193017959595,-0.22276002168655396
1772698459786016000,8.30101611328125,0.08545111864805222,0.4118664562702179,0.2711222469806671
1772698459795973000,8.31097314453125,0.19153307378292084,0.2497454434633255,0.2843480408191681
1772698459805930200,8.32093017578125,0.24997881054878235,0.19707900285720825,-0.0016439261380583048
1772698459815886800,8.330886962890625,0.2799729108810425,0.14838522672653198,-0.34612005949020386
1772698459825844000,8.340843994140625,0.27958276867866516,0.19576740264892578,-0.6635387539863586
1772698459835801000,8.350801025390625,0.22114315629005432,0.1612807959318161,-0.876901388168335
1772698459845758200,8.36075830078125,0.025415221229195595,0.30076873302459717,-0.9127233028411865
1772698459855716000,8.370716064453125,-0.19805355370044708,0.4674975275993347,-0.7148006558418274
1772698459865673000,8.3806728515625,-0.33467188477516174,0.487618088722229,-0.513376772403717
1772698459875630000,8.390630126953125,-0.23162567615509033,0.4074223041534424,-0.28456276655197144
1772698459885587000,8.4005869140625,-0.21975722908973694,0.3480369746685028,-0.17150790989398956
1772698459895544000,8.4105439453125,-0.1925082951784134,0.3094770610332489,-0.15464957058429718
1772698459905501200,8.420501220703125,-0.1976785808801651,0.4381795823574066,-0.20530085265636444
1772698459915458300,8.430458251953125,-0.19567881524562836,0.4209055006504059,-0.23625478148460388
1772698459925415000,8.440414794921875,-0.13967521488666534,0.36132654547691345,-0.20163030922412872
1772698459935372000,8.4503720703125,-0.011380627751350403,0.15180768072605133,-0.08526535332202911
1772698459945329200,8.4603291015625,0.08982347697019577,0.24858398735523224,0.013544950634241104
1772698459955286000,8.4702861328125,0.10676225274801254,0.23125505447387695,0.035326942801475525
1772698459965243100,8.4802431640625,0.05576170235872269,0.05133289843797684,0.026005256921052933
1772698459975200300,8.4902001953125,-0.025889482349157333,0.0027041081339120865,-0.015176001936197281
1772698459985157000,8.5001572265625,-0.11682606488466263,-0.020077170804142952,-0.08379241079092026
1772698459995114000,8.510114013671876,-0.19108672440052032,-0.040315330028533936,-0.15201380848884583
1772698460005071000,8.520071044921876,-0.2262021005153656,-0.02569674141705036,-0.21564407646656036
1772698460015028000,8.530028076171876,-0.23719508945941925,0.002845688257366419,-0.2750045955181122
1772698460024986000,8.539986083984376,-0.2230616956949234,0.009641263633966446,-0.29810217022895813
1772698460034942700,8.549942626953126,-0.1906968355178833,0.002119166310876608,-0.2768213748931885
1772698460044899600,8.559899658203125,-0.13932658731937408,0.002219878602772951,-0.21583859622478485
1772698460054856400,8.5698564453125,-0.07072141766548157,-0.01428506150841713,-0.13207179307937622
1772698460064813600,8.5798134765625,-0.009081518277525902,-0.03215070068836212,-0.04374510794878006
1772698460074770700,8.589770751953125,0.03894566372036934,-0.048055898398160934,0.03130489960312843
1772698460084727600,8.5997275390625,0.0642731562256813,-0.040262553840875626,0.09777086228132248
1772698460094684700,8.6096845703125,0.06907803565263748,-0.0315561480820179,0.12872770428657532
1772698460104641800,8.619641845703125,0.07162635773420334,-0.044288910925388336,0.1281312257051468
1772698460114598400,8.629598388671875,0.04956154152750969,-0.06498939543962479,0.10908561944961548
1772698460124555500,8.639555419921875,0.03062007948756218,-0.06539762765169144,0.07923893630504608
1772698460134512600,8.6495126953125,-0.09828836470842361,-0.0455714575946331,-0.002775769680738449
1772698460144469500,8.659469482421875,-0.12562626600265503,-0.08806225657463074,0.0739879310131073
1772698460154426600,8.669426513671874,0.07231158018112183,-0.047847192734479904,0.12660425901412964
1772698460164383700,8.6793837890625,0.05869010090827942,0.00744528928771615,0.15635888278484344
1772698460174340600,8.689340576171874,-0.037485167384147644,0.055783528834581375,0.1427927315235138
1772698460184297500,8.69929736328125,-0.12336627393960953,0.10765514522790909,0.05614949390292168
1772698460194255600,8.709255615234374,-0.16457177698612213,0.040303803980350494,-0.05911078676581383
1772698460204212700,8.719212646484374,-0.12204057723283768,0.1209634318947792,-0.1753154695034027
1772698460214169600,8.729169677734374,-0.0840737521648407,0.08249379694461823,-0.29838627576828003
1772698460224126500,8.73912646484375,0.022745629772543907,0.04145552217960358,-0.33051055669784546
1772698460234083600,8.74908349609375,0.11268404126167297,0.004945711698383093,-0.2850882112979889
1772698460244040400,8.75904052734375,0.16240501403808594,-0.020932413637638092,-0.1603398621082306
1772698460253997600,8.76899755859375,0.15063011646270752,-0.0339968167245388,-0.06414808332920074
1772698460263954700,8.77895458984375,0.11316956579685211,-0.020482849329710007,-0.011254312470555305
1772698460273911600,8.78891162109375,0.0689762681722641,-0.013687260448932648,-0.007632680237293243
1772698460283868700,8.79886865234375,0.03320680186152458,-0.015065247192978859,-0.019262496381998062
1772698460293825500,8.808825439453125,0.004586874507367611,-0.009853174909949303,-0.02575128711760044
1772698460303782700,8.81878271484375,-0.011009398847818375,-0.0033984824549406767,-0.028516680002212524
1772698460313739500,8.828739501953125,-0.016790587455034256,-0.0011774059385061264,-0.030606195330619812
1772698460323696600,8.838696533203125,0.0007391707040369511,-0.0022105895914137363,-0.03171125799417496
1772698460333653800,8.84865380859375,0.028902098536491394,-0.008518552407622337,-0.025573205202817917
1772698460343610600,8.858610595703125,0.05107821524143219,-0.026560228317975998,-0.01943194307386875
1772698460353567500,8.8685673828125,0.055622100830078125,-0.03608955070376396,-0.017122449353337288
1772698460363525600,8.878525634765625,0.04197874665260315,-0.03456294909119606,-0.025478627532720566
1772698460373482800,8.888482666015625,0.017242245376110077,-0.02174275740981102,-0.03186701610684395
1772698460383439600,8.898439697265625,-0.0011634101392701268,-0.009987086988985538,-0.034190982580184937
1772698460393396700,8.908396728515624,-0.014008634723722935,0.006494684610515833,-0.029922204092144966
1772698460403353600,8.918353515625,-0.02451374940574169,0.03503281623125076,-0.016123197972774506
1772698460413310500,8.928310546875,-0.028371872380375862,0.04432698339223862,0.014582250267267227
1772698460423267600,8.938267578125,-0.03690012916922569,0.03842935711145401,0.051415540277957916
1772698460433224700,8.948224609375,-0.04173776134848595,0.015513388440012932,0.05970889329910278
1772698460443181600,8.958181640625,-0.028226979076862335,-0.005966223776340485,0.006975024007260799
1772698460453138700,8.968138671875,-0.0013647391460835934,-0.014306179247796535,-0.02596241980791092
1772698460463095600,8.978095458984376,0.03765270113945007,-0.0368780680000782,0.11230863630771637
1772698460473052400,8.988052490234375,0.07670875638723373,-0.0432392917573452,0.19782805442810059
1772698460483009500,8.998009521484375,0.06825907528400421,-0.017860734835267067,0.15738406777381897
1772698460492966700,9.007966552734375,0.02177678793668747,-0.01150163821876049,0.08047384768724442
1772698460502923500,9.017923583984375,-0.018927790224552155,-0.008961083367466927,0.03838289901614189
1772698460512880600,9.027880615234375,-0.026030175387859344,-0.028208814561367035,0.018470710143446922
1772698460522838500,9.037838623046875,-0.016713060438632965,-0.0429721437394619,-0.004568551201373339
1772698460532795600,9.047795654296875,-0.014941524714231491,-0.051439397037029266,-0.03403136879205704
1772698460542752500,9.05775244140625,-0.015954870730638504,-0.0458686426281929,-0.07337730377912521
1772698460552709600,9.067709716796875,-0.02953033335506916,-0.03275497257709503,-0.12178771942853928
1772698460562666800,9.077666748046875,-0.0463591068983078,-0.018032729625701904,-0.17505154013633728
1772698460572623600,9.08762353515625,-0.05472942069172859,0.0014501586556434631,-0.22586971521377563
1772698460582580500,9.09758056640625,-0.04966702312231064,0.009151210077106953,-0.21595579385757446
1772698460592537600,9.10753759765625,-0.040435973554849625,0.014453298412263393,-0.14890778064727783
