time,seconds_elapsed,z,y,x
1772614992462309600,0.0643095703125,0.2283466910764575,0.18596563920378684,0.015478030041046439
1772614992472377600,0.074377685546875,0.1628103890657425,0.15146014301180838,-0.03636935383509844
1772614992482444500,0.084444580078125,0.07834843731075525,0.14012217191755771,-0.05488412122353911
1772614992492512800,0.0945126953125,0.00865092396736145,0.12989362336993215,-0.03445844217985868
1772614992502580700,0.104580810546875,-0.014396774142980575,0.11406886225044727,-0.042363845009543
1772614992512647700,0.114647705078125,-0.042834640859067435,0.08006254775226115,-0.1029814318511635
1772614992522715600,0.124715576171875,-0.05461889441609382,0.02520341483950615,-0.1259649421514943
1772614992532783600,0.13478369140625,-0.05916238306462764,-0.003155249160528183,-0.22536044180728493
1772614992542850800,0.144850830078125,-0.039161213043332095,0.024757424637675284,-0.19699531153384595
1772614992552918800,0.154918701171875,-0.04767711245417595,0.03360240987241268,-0.057162660614773625
1772614992562985700,0.16498583984375,-0.05505027157068252,0.06087853933274746,-0.009976144689135253
1772614992573053700,0.1750537109375,-0.04746493100821972,0.07379004335403443,-0.022716712590306994
1772614992583121200,0.18512109375,-0.01395955176949501,0.031157354807853695,-0.029838636892102657
1772614992593188000,0.19518798828125,0.03718114514201879,-0.0011567688196897506,-0.07027352313306182
1772614992603256300,0.20525634765625,0.06930149976313114,-0.032331074762344356,-0.09133779234122484
1772614992613323300,0.2153232421875,0.094290979591012,-0.05345277324616909,-0.062353105397336184
1772614992623391200,0.22539111328125,0.08291676813960075,-0.05441138914525508,-0.03917114991545677
1772614992633459200,0.235459228515625,0.06767828247547149,-0.041776363977789874,-0.07831128363814205
1772614992643526100,0.245526123046875,0.03309109934940934,0.005897825866937637,-0.06824011760931462
1772614992653594000,0.255593994140625,-0.006960925053805112,0.043998131680488585,0.0006047974927350879
1772614992663661000,0.2656611328125,-0.02199380514323711,0.04374269561469555,-0.030872473451867697
1772614992673729300,0.275729248046875,-0.05432298020943999,0.03813537712693214,-0.06870364346783608
1772614992683797200,0.28579736328125,-0.0457183796018362,0.03739771050214767,-0.07763287291992456
1772614992693864200,0.2958642578125,-0.05504208826422691,0.018931494963169097,-0.07450297739636152
1772614992703932200,0.30593212890625,-0.06865443403124809,0.019157704934477805,-0.07433799609299749
1772614992714000100,0.316000244140625,-0.06930953693911433,0.03510989182591438,-0.027840485344827172
1772614992724067300,0.3260673828125,-0.04175985123440623,0.031092472878098486,-0.018047734398581088
1772614992734135000,0.336135009765625,-0.0007946575090289115,-0.032032384076714514,-0.1203393208220601
1772614992744202200,0.3462021484375,0.054817924119532103,-0.08430325406193732,-0.17420283029358832
1772614992754270000,0.35627001953125,0.12190861596539616,-0.08125204979777335,-0.14466668347939848
1772614992764338000,0.366337890625,0.13232932608425615,-0.050658174091577524,-0.0459127696627751
1772614992774405000,0.376405029296875,0.1425605049803853,-0.02798398546874523,0.00325352190323174
1772614992784473000,0.38647314453125,0.11938231235817075,0.03470189554691314,0.022546105263754723
1772614992794540300,0.396540283203125,0.11429171122089028,0.11065759250223636,0.0949877296835184
1772614992804608000,0.40660791015625,0.08858136977255344,0.15393500869274138,0.0792715800376609
1772614992814676000,0.416676025390625,0.06615180356055497,0.07608370724916458,-0.10131897853165864
1772614992824743000,0.426742919921875,0.03525806812494993,-0.02385316927433014,-0.2323426288448274
1772614992834811100,0.43681103515625,0.030759295400977132,-0.03579495148062706,-0.18719518099874258
1772614992844879000,0.446879150390625,0.016574994964897633,0.010441899037361145,-0.06686634503807873
1772614992854946000,0.456946044921875,0.003001519903540611,0.029781390279531476,-0.035948899933323265
1772614992865014000,0.467013916015625,0.0007429273217916488,0.04388181182444095,-0.051833720676973456
1772614992875081000,0.4770810546875,0.018741671479493377,0.05190320571660995,-0.05298004116788506
1772614992885149000,0.48714892578125,0.0503609447106719,0.002808043158054352,-0.05116535642873495
1772614992895217200,0.497217041015625,0.059049131948500866,-0.06509937189817429,-0.028710546177625654
1772614992905284000,0.5072841796875,0.02636851309612393,-0.08207447209656238,0.01636321537774056
1772614992915352000,0.51735205078125,-0.02255026998221874,-0.057628597626090045,0.056585591379180546
1772614992925419000,0.5274189453125,-0.07422025146484375,-0.06711947954893112,0.04597429059166461
1772614992935487000,0.537487060546875,-0.14030337370336055,-0.06039806233942508,-0.046065037615038454
1772614992945555200,0.54755517578125,-0.1261234571814537,-0.029532968476414678,-0.11309548717364667
1772614992955622100,0.5576220703125,-0.0842868874490261,-0.00002221183180809021,-0.10548745985534042
1772614992965690000,0.567690185546875,-0.004457563930749893,-0.016699790388345716,-0.09059537647608668
1772614992975757000,0.577757080078125,0.06679682346582412,-0.008556231421232224,-0.030117051974684
1772614992985825000,0.587824951171875,0.13289222066402434,0.008754968863725662,-0.001909340752661228
1772614992995893000,0.59789306640625,0.15868249548077581,-0.018205518776178358,-0.024327618385665117
1772614993005960200,0.607960205078125,0.14952712912261484,0.0019499650239944457,0.0011265563445165753
1772614993016028200,0.618028076171875,0.12082725046947598,0.03750409348607063,0.05830909070353955
1772614993026096000,0.62809619140625,0.08781389253139495,0.03890811506509781,0.117579537252523
1772614993036163000,0.6381630859375,0.03484685697555542,0.008140051835775375,0.01889134561587125
1772614993046231000,0.64823095703125,-0.020067074864357708,-0.03184475255012512,-0.08143003671318293
1772614993056298000,0.658298095703125,-0.0648537265740335,-0.07690086885094642,-0.12346928941085934
1772614993066366200,0.6683662109375,-0.09922244464382529,-0.11759820542037486,-0.1594350308811292
1772614993076434200,0.67843408203125,-0.11646525586768984,-0.11814707147479056,-0.1411772704610601
1772614993086501000,0.688501220703125,-0.10277750677689909,-0.09492050966620445,-0.10635668043792247
1772614993096569000,0.698569091796875,-0.08260551023334264,-0.07334346863031387,-0.0958113210260868
1772614993106636000,0.708635986328125,-0.09381503264233469,-0.03567629353702068,-0.10065225825123489
1772614993116704300,0.718704345703125,-0.06469605179429054,0.051990299478173255,-0.017295381661318242
1772614993126772200,0.728772216796875,-0.03231266232281923,0.11004910521507262,0.06979896442387253
1772614993136839200,0.738839111328125,0.02949497455358505,0.13422843770384787,0.042577889619022605
1772614993146907100,0.7489072265625,0.09840718273818493,0.1430810217231512,0.0151935505438596
1772614993156975000,0.75897509765625,0.14245207616984842,0.1601782869964838,0.03529091094862669
1772614993167042000,0.7690419921875,0.16069325078129768,0.1393523565888405,0.06488978426810353
1772614993177110300,0.7791103515625,0.12806874603033064,0.08087094152569771,-0.009523505550809204
1772614993187177200,0.78917724609375,0.0643225423067808,0.049747488987445826,-0.08309687394686043
1772614993197245200,0.7992451171875,0.0063899932980537415,0.018514146333932877,-0.11740925871953367
1772614993207313200,0.809313232421875,-0.04511924466490745,-0.06280804609060286,-0.1792205123251304
1772614993217380000,0.819380126953125,-0.09014145869612693,-0.08638824364244937,-0.17877148991599678
1772614993227448300,0.8294482421875,-0.09345686685442924,-0.040136195555329324,-0.07328527216967194
1772614993237515300,0.839515380859375,-0.08275894722938537,0.010601473513245582,0.042630898447893556
1772614993247583200,0.849583251953125,-0.06525353954657911,0.010077741900086402,0.01818001900874078
1772614993257651200,0.859651123046875,-0.0590891716979444,0.000685059654712677,-0.08892382653467357
1772614993267718100,0.86971826171875,-0.03457140103504062,0.02174947499334812,-0.1684805801892653
1772614993277786000,0.8797861328125,0.006337386327981948,0.04450374311506748,-0.11032492648176848
1772614993287854000,0.88985400390625,0.028168255994468927,0.04951660284101963,-0.023913228898495436
1772614993297921300,0.89992138671875,0.026990882778167722,0.06812544172108173,-0.03806454038042575
1772614993307989200,0.9099892578125,0.04029650068357587,0.09181786747574806,-0.04891217067446559
1772614993318056200,0.92005615234375,0.05007072959244251,0.10196867461204528,-0.012006298809871077
1772614993328124200,0.930124267578125,0.021492431492358445,0.0523585482686758,-0.03048471624329686
1772614993338192100,0.940192138671875,-0.0016460136413574218,0.005226210215687752,-0.15086491706501692
1772614993348259300,0.95025927734375,0.001771101325750351,-0.03167056502699852,-0.20172266884930432
1772614993358327000,0.9603271484375,0.0039022681355476378,-0.03790916715562343,-0.18974822648242115
1772614993368394200,0.970394287109375,0.001689268261194229,-0.04525251565575599,-0.15783391582742332
1772614993378462000,0.9804619140625,0.0364871715284884,0.02048983032107353,-0.027550160628743468
1772614993388530000,0.990530029296875,0.01780804389119148,0.03893266498446464,0.04489840498846024
1772614993398597000,1.00059716796875,0.0593342325001955,0.0727449182152748,0.02771908745486289
1772614993408665000,1.0106650390625,0.06673778675496578,0.07284720954596996,0.0352220834961161
1772614993418732300,1.020732177734375,0.04717223167195916,0.03709025198817253,-0.014471191086061298
1772614993428800000,1.030800048828125,0.0348521176725626,-0.023251111727952956,-0.1371740261690691
1772614993438868000,1.040867919921875,0.022540917631983754,-0.04405190769433975,-0.11732516063265502
1772614993448935000,1.050934814453125,-0.0033610008656978605,-0.02191898634135723,-0.03299772197753191
1772614993459003100,1.061003173828125,-0.025051439148187638,0.005175941333174706,-0.032864962443336844
1772614993469071000,1.071071044921875,-0.05454875178933143,-0.007879355072975158,-0.11160817122533917
1772614993479138000,1.081137939453125,-0.05831424180269241,0.0034229601860046384,-0.18730404820069668
1772614993489206000,1.0912060546875,-0.021586393386125564,0.022944237735867498,-0.16891944653056562
1772614993499273000,1.10127294921875,-0.0034457565397024155,0.03625847733914852,-0.04640734824668616
1772614993509341000,1.1113408203125,0.029237784922122954,0.024102175599336622,0.010871997550316155
1772614993519409200,1.1214091796875,0.029114743064343928,0.0027881694138050077,-0.04034855966437608
1772614993529476000,1.13147607421875,0.024624153646826744,-0.008638649007678032,-0.0978068787574768
1772614993539544000,1.1415439453125,0.021528817979991434,-0.010340776750445365,-0.06288198810964822
1772614993549611000,1.151611083984375,0.018765490746498106,0.02530745973587036,0.07629687507580965
1772614993559679000,1.161678955078125,0.0017985738545656202,0.015802549287676812,0.1461181974619627
1772614993569747200,1.171747314453125,-0.04542597252652049,-0.029655718073248863,0.03973243706002831
1772614993579814100,1.181814208984375,-0.0889868818335235,-0.0396446126461029,-0.072778601289168
1772614993589882600,1.191882568359375,-0.10043883469626307,-0.03044190001487732,-0.12000665480159223
1772614993599950600,1.20195068359375,-0.07730185086727141,-0.03708148415982723,-0.13601736694723368
1772614993610017500,1.212017578125,-0.054329409950226545,-0.006911386823654175,-0.1486661283791065
1772614993620085800,1.222085693359375,-0.026996143475174903,0.05172434201836586,-0.06751984051074832
1772614993630152700,1.232152587890625,0.013879472270607948,0.08240764957368374,0.06864752936642617
1772614993640220700,1.242220703125,0.03214899619370699,0.07204875264465808,0.0735509008359164
1772614993650288600,1.25228857421875,0.06226677882075309,0.06142682086527347,-0.008303096910379826
1772614993660355600,1.26235546875,0.04889905546456575,0.03747837452292442,-0.05225691452510654
1772614993670423600,1.272423583984375,0.050256899814307684,0.006439093136787414,-0.02865318996720016
1772614993680490800,1.28249072265625,0.029283962151408195,-0.039221418797969816,-0.03252937381342053
1772614993690558700,1.292558837890625,0.010061375287175179,-0.08033727304041385,-0.1238153263695538
1772614993700626700,1.302626708984375,0.0014048983618617057,-0.08639291981756686,-0.16812420449964702
1772614993710693600,1.312693603515625,-0.021672902625799177,-0.08481295714974403,-0.16433803702443836
1772614993720761600,1.32276171875,-0.048127778831124304,-0.04489654182493687,-0.12319010714329778
1772614993730828500,1.33282861328125,-0.05968816050440073,-0.0006225158125162124,-0.07155373566932975
1772614993740896800,1.342896728515625,-0.04998538939654827,0.04819558337032795,0.005246010894700884
1772614993750964700,1.35296484375,-0.05229015920758247,0.07007014604806899,0.04209101941753179
1772614993761031700,1.36303173828125,-0.049101592299342155,0.08226911788582801,0.015306363268569111
1772614993771099600,1.373099609375,-0.019852701461315153,0.08258066805303096,-0.054672049375437196
1772614993781167600,1.383167724609375,0.023089783686399457,0.08183014194667339,-0.08344309356864542
1772614993791234800,1.39323486328125,0.07445581378638744,0.0650111090928316,-0.03852024825867265
1772614993801302800,1.403302734375,0.09861614931374788,0.03852116157412529,-0.030373145627602932
1772614993811369700,1.41336962890625,0.11160890187770127,0.028614100065827368,-0.018624913232028483
1772614993821437700,1.423437744140625,0.11355389846563338,0.027928455889225004,-0.009915865869261324
1772614993831505700,1.433505615234375,0.09666472298502922,0.02502981183826923,-0.04526351197380572
1772614993841572600,1.443572509765625,0.0945440775692463,0.007169745498895644,-0.09977112803515047
1772614993851640600,1.453640625,0.06343187707737089,-0.017478373545408248,-0.07895217535756528
1772614993861708500,1.46370849609375,0.03642389703392982,-0.027204233267903326,-0.05389748480636626
1772614993871775700,1.473775634765625,-0.013092705807089804,-0.015022212564945221,-0.01602700569331646
1772614993881843500,1.483843505859375,-0.05130626273676753,0.004699555993080139,0.005262414040230214
1772614993891910700,1.49391064453125,-0.08694967691749333,0.009292144480347634,0.016551321828365325
1772614993901978600,1.503978515625,-0.11535364136397838,-0.004991816937923431,-0.01989741738587618
1772614993912046600,1.514046630859375,-0.09746201084256172,0.018570844957232473,-0.06918689694013447
1772614993922113500,1.524113525390625,-0.05355769492536783,0.03512976557016372,-0.059742776768468314
1772614993932181500,1.534181396484375,-0.011178981140255928,0.05047989491522312,0.0013480901407077908
1772614993942248700,1.544248779296875,0.02668517782986164,0.07311901222467422,0.010985358264297246
1772614993952316400,1.55431640625,0.05371230096518993,0.0695078359901905,0.01562595061175525
1772614993962384600,1.564384521484375,0.08261515484452248,0.04282908790111541,0.007029094919189811
1772614993972451600,1.57445166015625,0.08314312424138189,0.015493337208032608,-0.07916519705373794
1772614993982519600,1.58451953125,0.07904869453459977,-0.007960019093751906,-0.11799926050193607
1772614993992586500,1.59458642578125,0.07143339722529053,-0.008927987343072891,-0.06250077023971826
1772614994002654500,1.604654541015625,0.044266427227854725,0.005298106408119201,0.0016096271537244318
1772614994012722700,1.61472265625,0.01416647251844406,0.029599019449949263,-0.005192563674412667
1772614994022789600,1.62478955078125,-0.007813011838495731,0.037165070790052414,-0.05198255456313491
1772614994032857600,1.634857666015625,-0.012980915995687245,0.023706454280018805,-0.1047177541244775
1772614994042925600,1.644925537109375,-0.008543079678714274,0.026888006925582884,-0.0794100386602804
1772614994052992500,1.654992431640625,0.018300357452780008,0.04012158250808716,-0.02110288418550044
1772614994063060500,1.665060546875,0.039112697726488115,0.01842939065992832,-0.042286797717958687
1772614994073127400,1.67512744140625,0.05475362671166658,-0.007466098096966743,-0.06536430644467472
1772614994083195600,1.685195556640625,0.06954378408640623,0.003451601758599281,-0.04427939630728215
1772614994093263600,1.695263671875,0.06959639105647802,-0.01877542761862278,-0.01722659074142575
1772614994103330600,1.70533056640625,0.06308306363970041,-0.019905892953276633,-0.03398421226423234
1772614994113398500,1.7153984375,0.05157528893649578,-0.010431377643346786,-0.060266106522828336
1772614994123465500,1.725465576171875,0.04417816442251205,0.0298632233440876,-0.0232770498868078
1772614994133533700,1.73553369140625,0.03538710133209824,0.037915596896409984,-0.0013919292824342846
1772614994143601700,1.7456015625,0.009636427873373031,0.0442196654766798,-0.03646503276191652
1772614994153668600,1.755668701171875,-0.0052472530037164684,0.06823883896768093,-0.017727854794450104
1772614994163736600,1.765736572265625,-0.018505963027477264,0.0748363375365734,0.02750000134408474
1772614994173804500,1.775804443359375,-0.03829144447147846,0.023849077621102333,-0.03707026864606887
1772614994183871500,1.78587158203125,-0.04935498253852129,-0.007736731731891632,-0.108144477170147
1772614994193939700,1.795939697265625,-0.011438362728804349,-0.0073012629240751265,-0.05838566307108849
1772614994204006700,1.806006591796875,0.011812018346786498,-0.031363106513023375,-0.005874700719676912
1772614994214074600,1.81607470703125,0.000034048400074243547,-0.08520867846906184,-0.044967159375734624
1772614994224142600,1.826142578125,0.018781418967992066,-0.06833353151381015,-0.06343721083961427
1772614994234209500,1.83620947265625,0.007649345709383487,-0.031131635844707486,-0.012085574591159819
1772614994244277800,1.84627783203125,-0.021995850969851016,0.03485504028201103,0.07538432680815457
1772614994254344700,1.8563447265625,-0.04992985981702804,0.07381167066395282,0.04104432337619364
1772614994264412700,1.86641259765625,-0.06385112540274858,0.07482055544555187,-0.03326408129613846
1772614994274480600,1.876480712890625,-0.03159866883456707,0.06951309668719768,-0.06152173260711133
1772614994284547600,1.886547607421875,-0.0011383563801646232,0.05291793571710586,0.033676169228367504
1772614994294615600,1.896615478515625,0.018341712376475333,0.01187514671087265,-0.015038981036655604
1772614994304682800,1.906682861328125,0.05033317992091178,-0.08131810077130794,-0.18035850337911397
1772614994314750700,1.916750732421875,0.0665840574979782,-0.13214987786412238,-0.2115403350410983
1772614994324818700,1.926818603515625,0.08734393693208695,-0.12772095550596713,-0.12305073520522564
1772614994334885600,1.9368857421875,0.06680822164267301,-0.08829203143715858,-0.0344977512769401
1772614994344953600,1.94695361328125,0.028529344391822812,-0.024225509718060492,0.030560229164920745
1772614994355021800,1.957021728515625,-0.012985007648915052,0.0213800571590662,0.08416278614532202
1772614994365088800,1.9670888671875,-0.033114334094524384,0.027208324921131132,0.04721544975917786
1772614994375156700,1.97715673828125,-0.0685275927811861,-0.004313187023997306,-0.0995498864999041
1772614994385223700,1.9872236328125,-0.07449789936244487,-0.03310965791940689,-0.1653056399475783
1772614994395291600,1.997291748046875,-0.07233195350021124,-0.03928513168394565,-0.15415486198849976
1772614994405359600,2.007359619140625,-0.08831468166038393,-0.036977439263463016,-0.13950674343295394
1772614994415426800,2.0174267578125,-0.06779284876585007,-0.004485036459565162,-0.06672079908754676
1772614994425494800,2.027494873046875,-0.034949440567195414,0.03413198670446872,-0.025438867563195525
1772614994435561700,2.037561767578125,-0.023568945505470035,0.05889350299537181,-0.04627981287688017
1772614994445629700,2.047629638671875,0.01781871141567826,0.08063654824793338,-0.015553469897434115
1772614994455697700,2.05769775390625,0.05128434316590428,0.08448796297907829,-0.003041084728948772
1772614994465764600,2.0677646484375,0.07786781418696045,0.07049684702754021,-0.01859517568089068
1772614994475832600,2.07783251953125,0.10796586920022964,0.05325111319422721,0.00786755503732711
1772614994485899800,2.087899658203125,0.10215776744335889,0.04685059850215911,-0.011408917438611388
1772614994495967700,2.0979677734375,0.0797603499352932,0.03926642698347568,-0.0363967532986775
1772614994506035500,2.108035400390625,0.040081835019588466,0.02289455337524414,-0.059204651303775606
1772614994516102700,2.1181025390625,0.017354454904794692,0.03911795842349529,-0.07401614372748881
1772614994526170600,2.128170654296875,-0.003266162189096212,0.022436872735619545,-0.07276344025265424
1772614994536238600,2.138238525390625,-0.008580196818709373,-0.018118425014615056,-0.11508410370759665
1772614994546305500,2.148305419921875,-0.01654547660946846,-0.021063830816745756,-0.10266966248825192
1772614994556373500,2.15837353515625,0.013111410507559776,0.013232406538724898,-0.02681622033100575
1772614994566440700,2.168440673828125,0.0291050984531641,0.019681436547636984,0.052222281603142615
1772614994576508400,2.17850830078125,0.002200432653725147,0.006581131955981254,0.014580314016342162
1772614994586576000,2.188575927734375,-0.04619856433421373,-0.0024228432327508924,-0.08258099684659391
1772614994596643000,2.19864306640625,-0.05358692101985216,0.006131634622812271,-0.10472060366868972
1772614994606710800,2.208710693359375,-0.04580182010158896,0.026232173365354536,-0.046745201898925004
1772614994616778800,2.21877880859375,-0.02923310874700546,0.019288053315877914,-0.031674108690954744
1772614994626846000,2.228845947265625,0.002200871045142412,-0.010907178461551665,-0.07837759034000337
1772614994636913700,2.23891357421875,0.025075989067554472,-0.006252630653977393,-0.06597867548335343
1772614994646980900,2.24898095703125,0.026245178977400065,-0.00820084211230278,-0.04261679685730487
1772614994657048800,2.259048828125,0.009236176509410143,-0.027201310658454894,-0.07335727795995771
1772614994667116800,2.26911669921875,-0.002782324194908142,-0.030181203252077102,-0.10429094354715197
1772614994677183700,2.279183837890625,-0.002802197939157486,-0.015808394506573675,-0.0941870442925021
1772614994687251700,2.289251708984375,-0.009598287820070982,-0.005107552272081375,-0.07219660015013069
1772614994697319000,2.29931884765625,0.0045262452527880664,0.004949731361865997,-0.07711589984111487
1772614994707387000,2.309386962890625,0.03629588674008846,0.03227379161715507,-0.054728053878992794
1772614994717454800,2.319454833984375,0.06491875463426112,0.04606500108242035,-0.0031546646386384964
1772614994727521800,2.329521728515625,0.055198155608773225,0.035008185017108916,0.00699223350752145
1772614994737589800,2.33958984375,0.03850830209255218,0.026480010646581648,-0.04017671022880822
1772614994747657700,2.34965771484375,0.033803631532937285,-0.009268179082870483,-0.1196770575210452
1772614994757724700,2.359724609375,0.03993921167850494,-0.02964402763545513,-0.18394633527062831
1772614994767793000,2.36979296875,0.029735797572135923,-0.018428806138038635,-0.15992475062683223
1772614994777859800,2.37985986328125,0.007839023062586783,0.008424129474163055,-0.04967606771904975
1772614994787927800,2.389927734375,-0.004705839603394269,0.047347442108392715,0.03796575618106872
1772614994797995800,2.399995849609375,0.0021367197677493095,0.05056172797977924,-0.0021848332257941366
1772614994808062700,2.410062744140625,-0.023719898283481596,0.0450257211625576,-0.07218538463637232
1772614994818131000,2.420130859375,-0.04919686936736106,0.037542671930789945,-0.14518964790757743
1772614994828198000,2.430197998046875,-0.05002367558032274,-0.004203296908736229,-0.2213959951557219
1772614994838265900,2.440265869140625,-0.0204639652274549,-0.015662848556041716,-0.18902977601476012
1772614994848333800,2.450333740234375,0.0073369187593460075,0.005920622220635414,-0.071248834438622
1772614994858400800,2.46040087890625,0.006117313836514949,0.02864975590109825,0.011445961513370274
1772614994868468700,2.47046875,0.026332418869435787,0.03526537464857101,0.022664653609506785
1772614994878536000,2.480535888671875,0.0561316370666027,0.02925415153503418,0.013134754850529133
1772614994888604000,2.49060400390625,0.0717909784913063,0.006626724663376808,0.029006241188570855
1772614994898671900,2.500671875,0.05368073678314685,-0.026937691286206242,0.025177586278505623
1772614994908738800,2.51073876953125,0.023256080164015293,-0.04814882161915302,-0.04598674821443856
1772614994918806800,2.520806884765625,-0.013137421731650828,-0.048531098935008045,-0.1297620328795165
1772614994928875000,2.530875,-0.06363982073962689,-0.021781623697280882,-0.1341434628341347
1772614994938942000,2.54094189453125,-0.08934533988237381,0.02319090597331524,-0.11822072123289108
1772614994949010000,2.551010009765625,-0.08555237734019756,0.05005436297953129,-0.09621255877073853
1772614994959076900,2.561076904296875,-0.045103462573885915,0.05904314059913158,-0.0526467906255275
1772614994969144800,2.571144775390625,0.0037038229539990424,0.01904723029732704,-0.018064247141964734
1772614994979212800,2.581212890625,0.05216331795752048,-0.014368132570385932,-0.024441600154154003
1772614994989280000,2.591280029296875,0.0800669316664338,-0.030806641674041745,-0.05019008165579289
1772614994999348000,2.601347900390625,0.09524579609781503,-0.0417751949340105,-0.08405461306311189
1772614995009416000,2.611416015625,0.08198094859421252,-0.03626139994859695,-0.07000720034707338
1772614995019483000,2.62148291015625,0.039486207213997836,-0.0053548050314188,-0.04082611404825002
1772614995029550800,2.63155078125,-0.006110591834783553,-0.0016676409512758254,-0.04723879410214722
1772614995039617800,2.64161767578125,-0.02958206831514835,-0.011761164942383766,-0.1434645046154037
1772614995049686000,2.65168603515625,-0.04295622141212225,-0.01799158376455307,-0.18893347603343427
1772614995059754000,2.66175390625,-0.028114333850145338,-0.00220423204600811,-0.123201614918001
1772614995069821000,2.671821044921875,-0.026717764925211666,0.027927286845445633,-0.01942614661231637
1772614995079889000,2.681888916015625,-0.026197686573863028,0.05546995828747749,0.048124563960731025
1772614995089955800,2.691955810546875,-0.04059431458637118,0.06480185025632382,0.0472717465236783
1772614995100024000,2.702024169921875,-0.051990591739118096,0.033733342775702474,-0.04369491095021367
1772614995110092000,2.712092041015625,-0.052095221157371994,0.01726736114323139,-0.15152948192097246
1772614995120159000,2.722158935546875,-0.027559476446360347,0.03213116827607155,-0.11007420312371104
1772614995130227000,2.73222705078125,0.02817410121336579,0.0422504112303257,-0.05811364119667559
1772614995140295000,2.742294921875,0.05687587956264615,0.041249709755182266,-0.015484240586124359
1772614995150361900,2.75236181640625,0.05935892855003476,0.048014381584525104,0.044290027299150825
1772614995160430000,2.76243017578125,0.040867432439327236,0.02617372117638588,0.0025781799249351024
1772614995170497000,2.7724970703125,0.008970803571492433,-0.0022930793732404706,-0.08726345557440071
1772614995180565000,2.78256494140625,-0.015137363377213477,0.005288754057884216,-0.0960037017930299
1772614995190632700,2.7926328125,-0.018988778108358383,0.004501403072476387,-0.07447864667270332
1772614995200700000,2.802699951171875,-0.03985504052639007,0.017756021443009376,-0.08277904016934334
1772614995210768000,2.812767822265625,-0.023157295964658257,0.004511924466490745,-0.09811744254399091
1772614995220835000,2.8228349609375,-0.015164835906028747,0.020270634612441062,-0.06343490928467363
1772614995230902800,2.83290283203125,0.015188362912088632,0.041191257566213606,-0.03360942413508892
1772614995240970800,2.842970703125,0.01793400835841894,0.047665422016382214,-0.014176518988423049
1772614995251038000,2.853037841796875,0.003949029886722564,0.047208910420536994,-0.0486036892471835
1772614995261105700,2.863105712890625,0.00020458266139030456,0.0299678527623415,-0.06446129319034516
1772614995271172900,2.8731728515625,0.0159293905377388,-0.018678981506824493,-0.08509451403748243
1772614995281240800,2.88324072265625,0.008452771046757698,-0.056150341767072676,-0.1179386528884992
1772614995291308800,2.893308837890625,0.021912556600570676,-0.0565630142211914,-0.09357508640661835
1772614995301375700,2.903375732421875,0.02986263882219791,-0.04755611642301082,-0.05322513850275427
1772614995311443700,2.913443603515625,0.012272329334914683,-0.037515783923864364,-0.060969870878010986
1772614995321512000,2.923511962890625,0.007917348995804787,-0.0036930092990398403,-0.025804157211631536
1772614995331579000,2.933578857421875,0.013028992921113968,0.020156652843952176,-0.00817917826976627
1772614995341646800,2.943646728515625,0.0008645078748464583,0.013763152414560317,-0.05467997695356607
1772614995351713800,2.9537138671875,-0.0010012859970331192,-0.003327683117985725,-0.1355065678808838
1772614995361781800,2.96378173828125,0.0070148471981286995,0.0038157588958740232,-0.10258673344515264
1772614995371849700,2.973849609375,0.0251227508187294,0.009911737683415413,-0.042803186274878675
1772614995381916700,2.983916748046875,0.04040858275592327,0.002567220139503479,-0.05233798040468245
1772614995391985000,2.99398486328125,0.05035860662311315,-0.013512392523884772,-0.07353175774402916
1772614995402051800,3.0040517578125,0.03936696474850178,-0.025225626671314238,-0.07706102784872054
1772614995412119800,3.014119873046875,0.03484641858413815,-0.004397942698001861,-0.06419091528374701
1772614995422187800,3.024187744140625,0.03476400099769234,0.0097597619920969,-0.028284721980988976
1772614995432254700,3.034254638671875,0.009087854079902171,0.016608020451664925,-0.021753237853012978
1772614995442323000,3.044322998046875,-0.006265344005078077,0.026349077743291854,-0.01844396717455238
1772614995452391000,3.054390869140625,-0.013935586372017859,0.030448914277553557,-0.035771643670275806
1772614995462457900,3.064457763671875,-0.008842062625288962,0.02999649433493614,-0.09384086120333522
1772614995472525800,3.07452587890625,-0.000990618472546339,0.04108779719173908,-0.08254139548856765
1772614995482592800,3.0845927734375,0.005973813712596893,0.05793313353061676,-0.010796009704656898
1772614995492660700,3.09466064453125,0.0001467149943113327,0.06441957294046878,0.02354629528224468
1772614995502729000,3.10472900390625,0.0028190029434859753,0.03237140677273273,-0.04322422469854355
1772614995512796000,3.1147958984375,0.0026826632127165792,0.014953238981962203,-0.12352386914230883
1772614995522863900,3.12486376953125,0.012905366541445255,0.001886252138018608,-0.13086992105618117
1772614995532930800,3.134930908203125,0.03196019562333822,-0.011842998006939887,-0.12836250481251626
1772614995542998800,3.144998779296875,0.04595101931393146,0.004296235889196396,-0.10154007393643259
1772614995553067000,3.15506689453125,0.0449561630576849,0.03928513168394565,-0.044931649670936165
1772614995563134000,3.165134033203125,0.0321679931551218,0.06274725581407546,-0.02808971086554229
1772614995573202000,3.175201904296875,0.05138678062707185,0.07648585830926895,-0.04071070750765502
1772614995583270100,3.185270263671875,0.05025543850958347,0.06629355011880397,-0.02421184651888907
1772614995593337000,3.195337158203125,0.040040480095893144,0.04149170181751251,-0.00933013840317726
1772614995603405000,3.205405029296875,0.04176408901810646,0.007138181316852569,-0.0018087299223989246
1772614995613472000,3.215471923828125,0.02304199902191758,-0.04380231684744358,-0.03179890411440283
1772614995623540000,3.2255400390625,-0.010744535245746374,-0.07368015323877335,-0.07979315622635186
1772614995633608200,3.235608154296875,-0.047699908807873725,-0.059958501878380775,-0.10326591134835034
1772614995643675100,3.245675048828125,-0.04972980720028281,-0.0109971948325634,-0.05302132302634418
1772614995653743000,3.2557431640625,-0.051166562005132435,0.0009866729497909545,-0.03674596859514713
1772614995663810000,3.26581005859375,-0.029038316827267405,0.02658756267428398,-0.03882211728207767
1772614995673878000,3.2758779296875,0.024500819528102874,0.055277066063880914,0.018326478274725378
1772614995683946200,3.2859462890625,0.06835223621428012,0.048907531031966205,0.06438344218116253
1772614995694013200,3.29601318359375,0.0985737714767456,0.00196633163690567,0.03259692262429744
1772614995704081200,3.3060810546875,0.09333937795460223,-0.05842588548362255,-0.08197108478732407
1772614995714149000,3.316149169921875,0.07627016973197459,-0.11242343313097954,-0.16803374973721802
1772614995724216000,3.326216064453125,0.02212663774266839,-0.11393617578148842,-0.15745090785920618
1772614995734284000,3.336283935546875,-0.021883915027976035,-0.0567068066060543,-0.0609342150427401
1772614995744351200,3.346351318359375,-0.042270869496464726,-0.007733809122443198,0.016390322580374775
1772614995754419200,3.356419189453125,-0.06951309668719768,0.03739244980514049,0.036984234330430625
1772614995764487000,3.36648681640625,-0.0921340938180685,0.06796703628897667,0.062220418928377326
1772614995774554000,3.37655419921875,-0.09242518571913241,0.0759609576523304,0.034071086830087007
1772614995784622000,3.3866220703125,-0.0685100571244955,0.06722995418608188,-0.038534642110206185
1772614995794689000,3.39668896484375,-0.037001404660940165,0.0402022465288639,-0.08280764520931988
1772614995804757000,3.406757080078125,-0.0007252455346286297,0.052020694616436956,-0.061577517914958295
1772614995814825000,3.416824951171875,0.005945756661891937,0.05187631770968437,-0.0456926971713081
1772614995824892200,3.42689208984375,0.03767433548644185,0.06161445239186287,-0.00231832341235131
1772614995834960000,3.4369599609375,0.0658136576473713,0.07946691994667053,0.008067936447635293
1772614995845027800,3.44702783203125,0.06830898159444332,0.059524786636233326,-0.01557794675156474
1772614995855095000,3.457094970703125,0.09502192421406506,0.02778524802625179,-0.054031194188632066
1772614995865163000,3.4671630859375,0.1026081415593624,0.010203998628258704,-0.04273673344254494
1772614995875230000,3.47722998046875,0.07068637825027108,-0.012519874355196952,-0.05012085234448314
1772614995885298000,3.4872978515625,0.03668897771090269,-0.003704699736833572,-0.04648242277689278
1772614995895366000,3.497365966796875,-0.010592997945845126,-0.01754851617217064,-0.05727667891588062
1772614995905432800,3.507432861328125,-0.04724164364635944,-0.03768646431565285,-0.10665434821024536
1772614995915501000,3.5175009765625,-0.06368658249080181,-0.05381342325210571,-0.09836305133551358
1772614995925569000,3.527569091796875,-0.0749963504038751,-0.044321372285485265,-0.09102317343410105
1772614995935636000,3.537635986328125,-0.07201002806946635,-0.02356032380759716,-0.06849727070815861
1772614995945704000,3.547703857421875,-0.042494156858325,-0.013481412863731383,-0.03073193247001618
1772614995955771000,3.55777099609375,-0.02878478045761585,-0.018805238234996795,-0.04949241824783385
1772614995965839000,3.567839111328125,-0.00862257465571165,0.00943126069009304,-0.052854113233275705
1772614995975907000,3.577906982421875,0.010118220040947198,0.04484802650809288,0.010444858179427682
1772614995985974000,3.58797412109375,0.03650704527273774,0.06498539012968539,0.02133928675726056
1772614995996042000,3.5980419921875,0.06367255396544932,0.059441784527897834,0.007787183277495205
1772614996006109000,3.60810888671875,0.10101999558508395,0.04801321254074573,-0.012320588923431932
1772614996016177000,3.618177001953125,0.10945406193137168,0.03789046245515346,-0.027024383188970387
1772614996026245000,3.6282451171875,0.07057692652642726,0.012477788779139519,-0.05563398974277079
1772614996036312000,3.63831201171875,0.043061873743683095,0.004074117571115494,-0.09351688994597643
1772614996046380000,3.648380126953125,0.004060965828597545,-0.011768763726949691,-0.11809705832060426
1772614996056448000,3.658447998046875,-0.04084580512940884,-0.016577040791511535,-0.06532788342442362
1772614996066515000,3.668514892578125,-0.06151552206203341,-0.006579962912201881,-0.026104564930312334
1772614996076583200,3.678583251953125,-0.04313771545886993,0.012234043151140211,-0.02354143644403666
1772614996086650000,3.688650146484375,-0.02088642842322588,0.016765256839990614,-0.022660671554133295
1772614996096718000,3.698718017578125,-0.0009685527712106704,0.009432429733872413,-0.02599288471676409
1772614996106786000,3.7087861328125,0.012014262920618057,0.001084288105368614,-0.022250885176844894
1772614996116853000,3.71885302734375,0.00516658898293972,0.01698211446106434,-0.0067704805156216024
1772614996126921000,3.7289208984375,-0.00840951642692089,0.01944061352908611,-0.004891571433842182
1772614996136988000,3.73898779296875,-0.02433189270198345,0.012476035213470458,-0.03594272592086345
1772614996147056000,3.74905615234375,-0.04322480922043323,0.017424597531557083,-0.0488892281902954
1772614996157124000,3.7591240234375,-0.03973214479908347,0.023013211318850518,-0.06196352155786007
1772614996167191000,3.76919091796875,-0.003097235362976789,0.0010492167919874192,-0.07438515970297158
1772614996177259000,3.779259033203125,0.014037439311295747,-0.01021335097849369,-0.08972699614372104
1772614996187327200,3.7893271484375,0.03455401150882244,-0.011961071428656577,-0.09090930126346647
1772614996197394200,3.799394287109375,0.03982464538812637,-0.0032727380603551864,-0.05858184323031455
1772614996207462100,3.809462158203125,0.03339753495007753,0.026817864298820493,0.013794168607331812
1772614996217529000,3.819529052734375,0.019464578926563263,0.0461672924131155,0.05526964994240552
1772614996227597000,3.82959716796875,0.01584580390751362,0.050860418665409086,0.008788761535473167
1772614996237665000,3.8396650390625,0.01530278307199478,0.03713233756422996,-0.0486833303546533
1772614996247732000,3.84973193359375,0.03344517348408699,0.035384617114067075,-0.04361837511528283
1772614996257800200,3.85980029296875,0.026487024909257886,0.025951602858304976,-0.051246056982129806
1772614996267868200,3.8698681640625,0.012420067242532968,0.0009562778115272521,-0.0772895028423518
1772614996277935000,3.87993505859375,0.011194178709387778,-0.01646831972002983,-0.12127674780264495
1772614996288003000,3.890003173828125,-0.0033510639935731886,-0.0034901802033185957,-0.10576693438384681
1772614996298070000,3.900070068359375,-0.009211480459570884,0.028211364483833313,-0.015653678868897257
1772614996308138200,3.91013818359375,0.020413842475414275,0.04580255075395107,0.058463879406452174
1772614996318206000,3.9202060546875,0.029889672959595916,0.0019195698857307434,0.011448263068310916
1772614996328273200,3.930273193359375,0.03447159392237663,-0.03938800753653049,-0.07283643242362886
1772614996338341000,3.940341064453125,0.0126147130317986,-0.058036009383201595,-0.08215952003151178
1772614996348408000,3.950407958984375,-0.033498949497938156,-0.05721884778141975,-0.09361333605777472
1772614996358476000,3.96047607421875,-0.07140636308789253,0.0035918870121240615,-0.07979395994395017
1772614996368544000,3.9705439453125,-0.09200140734910964,0.05610533358156681,-0.0013118132509291171
1772614996378611200,3.980611083984375,-0.06419920818805694,0.07308277186751365,0.01636036583352834
1772614996388679000,3.990678955078125,-0.021929799996316432,0.07812485768795013,-0.02750858650933951
1772614996398747000,4.000746826171875,0.04543605552911758,0.04933364748954773,-0.048317565782181916
1772614996408814000,4.01081396484375,0.10666238538622856,-0.00675298139154911,-0.05194353772699833
1772614996418882000,4.020882080078125,0.1429521346464753,-0.026727263405919074,-0.0452201477561146
1772614996428949000,4.030948974609375,0.13482523455321788,-0.03944587520360946,-0.012323401935026049
1772614996439017000,4.041016845703125,0.08988558423891663,-0.051070262023806566,-0.03551744971349835
1772614996449085000,4.0510849609375,0.0472737923502922,-0.036461306434869764,-0.06558971269838512
1772614996459152000,4.06115185546875,0.015760025320202112,-0.016568857485055922,-0.08264967816863208
1772614996469219800,4.0712197265625,-0.030257191097736356,-0.009898878201842307,-0.06314900501538068
1772614996479287000,4.081287109375,-0.03527151212841272,0.010039747977256774,-0.03526362108290195
1772614996489355000,4.09135498046875,-0.03863850434347987,0.016737784311175345,-0.03082914576679468
1772614996499423000,4.101423095703125,-0.04200374299287796,0.01153086331784725,-0.04078541671168059
1772614996509490000,4.111489990234375,-0.050615503993630406,0.008731003466248511,-0.0661236003793776
1772614996519558000,4.121557861328125,-0.06587269435822964,0.012962941947579383,-0.07323452836312354
1772614996529626000,4.131626220703125,-0.037410277722775935,0.03753448862433433,-0.06757317813318223
1772614996539693000,4.141693115234375,-0.011793167515844106,0.05515022481381893,-0.035160489501990376
1772614996549761000,4.151760986328125,0.012954466380178928,0.06139993285834789,0.005246010894700884
1772614996559828000,4.161827880859375,0.06925663770809769,0.07771744593083858,0.04124711593929678
1772614996569896000,4.17189599609375,0.11032383050322532,0.06028758770227432,0.018268939401209352
1772614996579964000,4.1819638671875,0.13001710361912847,-0.010974398478865622,-0.044708983363583685
1772614996590030600,4.192030517578125,0.11774623558893799,-0.06812135006785393,-0.12898396117910743
1772614996600098800,4.202098876953125,0.07439268542230129,-0.09593991584181785,-0.1938288468595594
1772614996610165800,4.212165771484375,0.022106910128891467,-0.074296239310503,-0.14656363967452196
1772614996620233700,4.222233642578125,-0.017097119142860173,-0.009784896433353424,-0.009533588553406297
1772614996630301700,4.2323017578125,-0.03635068566724658,0.07704232314825057,0.09657598525565117
1772614996640368600,4.24236865234375,-0.02213043713495135,0.10153788197934627,0.10038692184593528
1772614996650436600,4.2524365234375,0.0038747956067323682,0.08849369148910045,0.04616436980366707
1772614996660504800,4.2625048828125,-0.004659370113164186,0.04330664228498936,-0.015201660785079002
1772614996670571800,4.27257177734375,-0.01425707341134548,0.009109189128875731,-0.06211209971569478
1772614996680639700,4.2826396484375,-0.02834989617168903,-0.028870120653510092,-0.11983308833297342
1772614996690706700,4.292706787109375,-0.05254617979526519,-0.046971010011434555,-0.16599555844049899
1772614996700774700,4.302774658203125,-0.05681947320029139,-0.026571196061372756,-0.08857676666267215
1772614996710843000,4.3128427734375,-0.06524550237059593,0.012522796964645385,0.00893061769157648
1772614996720909800,4.322909912109375,-0.04803951602578163,0.048132455006241796,0.026828458758071064
1772614996730977800,4.332977783203125,0.003516483688354492,0.058930912396311756,0.001281271982192993
1772614996741045800,4.343045654296875,0.050126259171962735,0.02185761154294014,-0.030947986373491585
1772614996751112700,4.35311279296875,0.08879238217473029,-0.02946808654665947,-0.08884257799200714
1772614996761180700,4.3631806640625,0.10631576390564441,-0.05364800355732441,-0.1407208319304511
1772614996771247600,4.37324755859375,0.10201251375377178,-0.07313830144703387,-0.10149652705565095
1772614996781315800,4.38331591796875,0.05057400293946266,-0.09508943649232388,-0.05260123445075005
1772614996791383800,4.3933837890625,-0.02018281019851565,-0.046530865028500554,-0.03970912924967706
1772614996801450800,4.40345068359375,-0.07138225155994296,0.0017915595918893813,-0.017646167860366404
1772614996811518700,4.413518798828125,-0.0910620806723833,0.03835691092312336,0.006694602267816662
1772614996821585700,4.423585693359375,-0.08488485334217548,0.06442600268125534,-0.042715727187134324
1772614996831654000,4.43365380859375,-0.03849836522042751,0.05791910500526428,-0.08977046995926648
1772614996841721900,4.443721923828125,0.037840193572640415,0.03877659763991832,-0.0831264288349077
1772614996851788800,4.453788818359375,0.04926715812459588,0.03674947572648525,-0.05726086029224097
1772614996861856800,4.463856689453125,0.03912847981750965,0.04325111270546913,-0.05819854300115257
1772614996871924700,4.4739248046875,0.010243746116757392,0.03623685002923011,-0.051497182198986406
1772614996881991700,4.48399169921875,-0.03806859550103545,0.008486088794469833,-0.06512658869866281
1772614996892060000,4.494059814453125,-0.05251140074282884,0.01908697778582573,-0.09367865637894719
1772614996902126800,4.504126953125,-0.07158230417668819,0.015439561194181441,-0.12417878938708454
1772614996912194800,4.51419482421875,-0.03327332404851913,0.010101707297563552,-0.1558448974346742
1772614996922262800,4.5242626953125,-0.002432633974403143,0.02531096686720848,-0.07648468926548957
1772614996932329700,4.534329833984375,0.03288242503479123,0.04223229105174541,-0.02186126480475068
1772614996942398000,4.54439794921875,0.07035948438346386,0.052691725745797155,-0.04914572370201349
1772614996952465000,4.55446484375,0.08306187569871544,0.05414367811977863,-0.05666008138749748
1772614996962532900,4.564532958984375,0.08132628407776356,0.06629647272825241,-0.04872366236504167
1772614996972600600,4.5746005859375,0.047991000708937644,0.04075403519272804,-0.042515784168243406
1772614996982667800,4.584667724609375,0.019113281270861624,0.019583236870169638,-0.08249189379103482
1772614996992735700,4.59473583984375,0.003004004121571779,0.011977438041567801,-0.09204148363117128
1772614997002803700,4.6048037109375,0.0036534079410135744,0.0001835398733615875,-0.06308989523928613
1772614997012871000,4.614870849609375,0.0019289222359657287,0.014543489137291907,-0.029163002652861175
1772614997022938600,4.624938720703125,-0.0049514849275350565,0.030931729358434676,0.03729695354141295
1772614997033005800,4.635005859375,-0.002112462109327316,0.013967150554060935,0.034968839387409384
1772614997043073500,4.645073486328125,-0.019195991118252275,-0.020326164191961288,-0.0843880828011781
1772614997053141800,4.655141845703125,-0.041785131806135176,-0.0401326884239912,-0.13427234991081058
1772614997063208700,4.665208740234375,-0.06976794823110104,-0.0477706359565258,-0.1594708693794906
1772614997073276700,4.675276611328125,-0.0908878931492567,-0.022487726140022278,-0.16055351351704447
1772614997083344600,4.6853447265625,-0.07401216167211531,-0.01158405480980873,-0.14426657824590802
1772614997093411600,4.69541162109375,-0.05876417752727866,-0.005907762739062309,-0.11157320950981228
1772614997103479600,4.7054794921875,-0.028375030612945554,0.0024000468790531158,-0.08495298667494207
1772614997113546800,4.715546630859375,0.015635960549116135,0.029575054052472113,-0.03922689869068563
1772614997123614700,4.72561474609375,0.059274319006502624,0.02810556602180004,0.006643237406760454
1772614997133682700,4.7356826171875,0.12354483886510133,0.008138298270106314,0.013795264585874973
1772614997143749600,4.74574951171875,0.13992752612829207,0.008839724537730216,0.027219942293688654
1772614997153817600,4.755817626953125,0.1066093400247395,0.012594108635187149,-0.0068649903986603015
1772614997163884500,4.765884521484375,0.046694238896667954,-0.007521043154597282,-0.1213317293928936
1772614997173952800,4.775952880859375,-0.017241057658195495,-0.003876549172401428,-0.13280319067370147
1772614997184020700,4.786020751953125,-0.05950374384820461,0.009538228195905685,-0.04345631642136723
1772614997194087700,4.796087646484375,-0.0981147756628692,-0.012134674429893492,-0.02919854889027774
1772614997204155600,4.80615576171875,-0.10177563625797628,-0.021987959924340248,-0.05909782992843538
1772614997214223600,4.8162236328125,-0.10826865153908728,-0.03304126885831356,-0.09979754111804068
1772614997224290800,4.826290771484375,-0.10914981828778982,-0.02939969748556614,-0.12776768072452396
1772614997234358800,4.83635888671875,-0.08869944319427013,-0.015762801799178123,-0.10098156327083706
1772614997244425700,4.84642578125,-0.08432415071949362,-0.002263268756866455,-0.0670120371190831
1772614997254493700,4.85649365234375,-0.08567863406836985,0.029769699841737746,-0.019335326523706314
1772614997264561700,4.866561767578125,-0.0765010558784008,0.05043196412026882,0.02358092820420861
1772614997274628600,4.876628662109375,-0.05168225644230842,0.045343116548657414,0.03869571442343294
1772614997284696800,4.88669677734375,-0.02208382151424885,0.009878419935703276,-0.03209284555967897
1772614997294764800,4.896764892578125,0.01761515166759491,-0.01150046817958355,-0.0606182444287464
1772614997304831700,4.906831787109375,0.06382745226621628,-0.017942483925819395,-0.05697663652338087
1772614997314899700,4.916899658203125,0.07927402772307396,-0.032469021928310395,-0.06722078449893742
1772614997324966700,4.926966552734375,0.07556903572529554,-0.016702128475904465,-0.07242189680598676
1772614997335035000,4.937034912109375,0.04403232621103525,0.003394318613409996,-0.08601093476265669
1772614997345102800,4.947102783203125,0.02222615259438753,0.022945406779646873,-0.08529646635036915
1772614997355169800,4.957169677734375,-0.006579670651257038,0.020547697988152504,-0.09303308848440646
1772614997365237800,4.96723779296875,-0.022985738790035248,0.020499182671308517,-0.09648651687391102
1772614997375304700,4.9773046875,-0.023776889167726037,0.028674305820465085,-0.07208181466404348
1772614997385372700,4.98737255859375,-0.019419863002002238,0.037785833036899565,-0.04267605276387185
1772614997395441000,4.99744091796875,-0.018028847035020588,0.040028059005737304,-0.023651764950715005
1772614997405507800,5.0075078125,-0.021533494155108926,0.043318332722783084,-0.022894480310007927
1772614997415575800,5.017575927734375,-0.0407207174450159,0.05384323386847972,-0.02778407898247242
1772614997425643800,5.027643798828125,-0.04539207025691867,0.04709200604259967,-0.038204716036096216
1772614997435710700,5.037710693359375,-0.062379007023572915,0.02201309436559677,-0.07493000716939568
1772614997445779000,5.047779052734375,-0.046695700201392173,-0.008393734335899353,-0.18052728407476096
1772614997455846000,5.057845947265625,-0.017154256157577038,-0.04982581492066383,-0.2453278922220692
1772614997465913900,5.067913818359375,-0.0037098143033683297,-0.056817865765094754,-0.19715930645652113
1772614997475981800,5.07798193359375,0.0032049335211515426,-0.02018354085087776,-0.10449285932742058
1772614997486048800,5.088048828125,-0.010899871937930584,0.015618424892425537,-0.03128101772014052
1772614997496116700,5.09811669921875,-0.025815701518952846,0.041191842088103295,-0.018593897039256988
1772614997506184700,5.108184814453125,-0.035337709232419724,0.0537006105273962,-0.03740282506868243
1772614997516252000,5.118251953125,-0.036329204487800595,0.06448328582644462,-0.0435803811924532
1772614997526319600,5.128319580078125,-0.031292233233898875,0.054613633719086646,-0.056700522995740174
1772614997536386800,5.13838671875,-0.011586246766895056,0.0471171404838562,-0.013951697256602346
1772614997546454800,5.148454833984375,0.002075783360749483,0.05074176072180271,-0.030514453794434664
1772614997556522800,5.158522705078125,0.023557401198148725,0.040702597266435624,-0.07067797574810683
1772614997566590000,5.16858984375,0.03064180650115013,0.03429039213657379,-0.04735105883758515
1772614997576657700,5.17865771484375,0.033658816234767436,0.017497662767767905,-0.050609476111643015
1772614997586725400,5.188725341796875,0.027602877196669578,0.004957914668321609,-0.07683682717140763
1772614997596793300,5.19879345703125,0.011899696630239485,0.017682371684908865,-0.09661876495145261
1772614997606861300,5.208861328125,0.0017997428983449935,0.03488485089838505,-0.04390223355796188
1772614997616928300,5.21892822265625,-0.023941139818727968,-0.005713116949796676,-0.04625255954377353
1772614997626996500,5.22899658203125,-0.0301987389087677,-0.005706102687120437,-0.08387658961508422
1772614997637064400,5.239064453125,-0.07148878067433834,-0.036307577177882196,-0.14029665170162917
1772614997647131400,5.24913134765625,-0.0660764002367854,-0.001419219148159027,-0.11124642524085938
1772614997657199400,5.259199462890625,-0.051311669564247125,0.003675473642349243,-0.050676440400630234
1772614997667266300,5.269266357421875,-0.0640942865088582,0.0009428338080644607,-0.03992898254543543
1772614997677334300,5.279334228515625,-0.05072831671833992,0.017097849795222282,-0.09979881975967436
1772614997687402500,5.289402587890625,0.0032569559693336487,0.032572482302784915,-0.11385726532638073
1772614997697469400,5.299469482421875,0.04467793063819408,0.05678162540793419,-0.06291201792173087
1772614997707537400,5.309537353515625,0.09439180961698293,0.07766542348265647,0.018847177680581806
1772614997717605400,5.31960546875,0.1192956569880247,0.0676432111620903,0.09044548314400017
1772614997727672300,5.32967236328125,0.10895283441096544,0.03625204759836197,0.07080101760588586
1772614997737740500,5.339740478515625,0.04645853044465184,0.012370821273326874,0.04487414733003825
1772614997747807500,5.349807373046875,-0.022343787624686955,-0.00393792397081852,-0.021115597536601124
1772614997757875500,5.35987548828125,-0.07285393154770135,-0.024876667103171348,-0.12771635239608586
1772614997767943400,5.369943359375,-0.10398761321902275,-0.028653847554326057,-0.1659700952056795
1772614997778010400,5.38001025390625,-0.10197276626527309,-0.03486205454468727,-0.12553188449647276
1772614997788078300,5.390078369140625,-0.05487023882865905,-0.0047714521855115885,-0.05135503378193825
1772614997798145300,5.400145263671875,0.011153846698999404,-0.0028518822997808456,0.00453632825538516
1772614997808213500,5.410213623046875,0.06756810009926557,-0.007211246553063392,0.03770560740754008
1772614997818281500,5.420281494140625,0.09343407050073146,-0.0171492877215147,0.03644844695329666
1772614997828348400,5.430348388671875,0.0875941123008728,-0.04565700480341911,-0.0008409808687865734
1772614997838416400,5.44041650390625,0.05065875861346721,-0.03028057197332382,-0.015131116299517453
1772614997848484600,5.450484619140625,0.011852496487647295,-0.02508124976456165,-0.02616772982701659
1772614997858551600,5.460551513671875,-0.027708675658702848,-0.027658406776189803,-0.07121832970250397
1772614997868619500,5.47061962890625,-0.0359849210947752,-0.023884733456373212,-0.04593600440789014
1772614997878686500,5.4806865234375,-0.042433951103687285,-0.004904138654470444,-0.0026647622298449276
1772614997888754400,5.49075439453125,-0.04729834226965904,0.020815993535518645,0.0018980156410485505
1772614997898822400,5.500822509765625,-0.03941577232629061,0.021944705304503438,-0.03126790251024067
1772614997908889300,5.510889404296875,-0.027779402807354924,0.016585224097967147,-0.04994966049604117
1772614997918957600,5.52095751953125,-0.03553834637105465,0.020426117435097695,-0.07619418188631534
1772614997929025500,5.531025634765625,-0.020033172594755885,0.015947510716319082,-0.11307418865729123
1772614997939092500,5.541092529296875,0.008817512705922126,0.05583411542475223,-0.07280852150339633
1772614997949160400,5.551160400390625,0.05811550436019897,0.09382686921060085,-0.0006468465361744165
1772614997959227400,5.561227294921875,0.09105404349640012,0.09028115942776202,0.06341119961552322
1772614997969295600,5.571295654296875,0.11092676483243703,0.07239069795012473,0.06307298063710332
1772614997979363300,5.58136328125,0.10455357653871178,0.049527124235033984,0.007996478646621107
1772614997989430500,5.591430419921875,0.09555646948218345,-0.003872457519173622,-0.06921513665392995
1772614997999498200,5.601498291015625,0.05660802240669727,-0.07029284888803959,-0.11143632178977131
1772614998009565400,5.6115654296875,0.011930676290392874,-0.08259878823161125,-0.13049188152402638
1772614998019633400,5.62163330078125,-0.037597909249365326,-0.07028115845024585,-0.14042210471220315
1772614998029701400,5.631701416015625,-0.05834872859418392,-0.030171850901842115,-0.08521013977378607
1772614998039768600,5.6417685546875,-0.07406418412029743,-0.0003723404437303543,0.006295191154070198
1772614998049836300,5.651836181640625,-0.058995063673704856,0.03774959267973899,0.030584669486433267
1772614998059904300,5.661904296875,-0.041268998977541924,0.0599094020396471,0.011228044446371495
1772614998069971200,5.67197119140625,-0.020566402688622473,0.05478723672032356,-0.022628815111145374
1772614998080039400,5.682039306640625,-0.012075637719035148,0.041378304570913314,-0.05689937003608793
1772614998090106400,5.6921064453125,-0.007732055556774139,0.04954992058873176,-0.059913639823347326
1772614998100174300,5.70217431640625,0.012220014625787734,0.06174596981704235,0.006729235189780592
1772614998110242300,5.7122421875,0.014211188443005084,0.04644143317937851,0.06236585528105497
1772614998120309200,5.722309326171875,-0.0035620763957500455,0.004953238493204117,0.021156367938406764
1772614998130377200,5.732377197265625,-0.0026689269483089447,0.002328150686621666,-0.06432743767760693
1772614998140445400,5.742445556640625,-0.0032812136277556416,0.02847498385608196,-0.06315331586431712
1772614998150513400,5.752513427734375,0.004848609074950218,0.02490881580710411,-0.00826389741115272
1772614998160581400,5.762581298828125,0.005903232694417238,-0.012971125254034994,-0.0803687276246026
1772614998170648300,5.7726484375,0.012633417732268571,-0.019999416455626487,-0.13545512995459139
1772614998180716500,5.782716552734375,0.007521627676486968,-0.010153145223855973,-0.09461246663033962
1772614998190784500,5.792784423828125,0.012795914817601442,-0.008471475747227668,-0.03908975524231791
1772614998200851500,5.8028515625,0.014142653251439333,0.019781974312663077,-0.025188144205138086
1772614998210919400,5.81291943359375,0.03811784147024155,0.028559739530086517,-0.01640183035507798
1772614998220986400,5.822986328125,0.05518588064908981,0.021344985845685005,-0.028526787108555433
1772614998231054300,5.833054443359375,0.06577595598548651,0.014151859471201896,-0.04214092297386378
1772614998241122600,5.84312255859375,0.06721066496372223,-0.0038718729972839353,-0.06438815488889812
1772614998251189500,5.853189453125,0.05226692446246743,-0.006569441518187523,-0.08652038212213664
1772614998261257500,5.863257568359375,0.031968817321211096,-0.01556990957558155,-0.08603311006184666
1772614998271325400,5.873325439453125,-0.005629530319571495,-0.0017073884397745133,-0.09335556190442293
1772614998281392400,5.883392333984375,-0.011075520765781402,0.01640636039972305,-0.07903017249722033
1772614998291460600,5.893460693359375,0.01648877798616886,0.017517536512017248,-0.05191979152522981
1772614998301527600,5.903527587890625,0.05270341618359089,0.047156887972354886,-0.0294102554121986
1772614998311595500,5.913595458984375,0.06943944692909718,0.04362988288998604,-0.09660828009005636
1772614998321663500,5.92366357421875,0.07631283982992172,0.04260580053925514,-0.10318382255546749
1772614998331730400,5.93373046875,0.05410393063127994,0.05625204857587814,-0.0359342868860811
1772614998341798400,5.94379833984375,0.044208559560775754,0.022363807499408722,-0.008698416370898484
1772614998351866400,5.953866455078125,0.022554069374501703,0.0013338789522647856,-0.05094060776215047
1772614998361933600,5.96393359375,0.0029220249265432354,-0.01821019495129585,-0.10905910779703408
1772614998372001500,5.97400146484375,-0.014704671048372983,-0.01810439648926258,-0.09114720167256891
1772614998382068500,5.984068359375,-0.03670329849720001,-0.004421908095479011,-0.025105763151310384
1772614998392136400,5.994136474609375,-0.04836787119731307,0.0013753800064325332,0.0288586859440431
1772614998402204400,6.004204345703125,-0.04512216727435588,0.017864157992601392,0.04370696671418845
1772614998412271600,6.014271728515625,-0.058927405264973635,0.021304069313406945,0.04110255636945367
1772614998422339300,6.02433935546875,-0.039542905837297436,0.041619127589464185,0.007464234933443367
1772614998432406500,6.034406494140625,-0.018599924921244383,0.06457973193824292,-0.02399732698537409
1772614998442474200,6.04447412109375,-0.012549684971570968,0.06202595580220222,-0.034721732758544385
1772614998452542200,6.054542236328125,0.013105273027718066,0.02945230445563793,-0.10561806396506726
1772614998462609400,6.064609375,0.01884381667971611,-0.02226151616871357,-0.1618019061429426
1772614998472677400,6.074677490234375,0.0380108739644289,-0.04778524900376797,-0.13544639865886418
1772614998482745300,6.084745361328125,0.06005509412065148,-0.0705839407891035,-0.09155264066830276
1772614998492812300,6.094812255859375,0.055553837178647515,-0.09683131172358989,-0.10230053691491484
1772614998502880300,6.10488037109375,0.05343772180750966,-0.07905249392688274,-0.0970758245365694
1772614998512947200,6.114947265625,0.04643573409095406,-0.0408779538333416,-0.021571415012702346
1772614998523015400,6.125015380859375,0.05411386750340461,-0.0027910920232534406,0.014432210782542823
1772614998533083400,6.13508349609375,0.03817044844031334,0.010989011526107787,0.02121156872436404
1772614998543150300,6.145150390625,0.006536123770475387,0.029248890838026998,-0.0074730758270248766
1772614998553218300,6.15521826171875,-0.02096022431179881,0.034599019694328305,-0.02453581777624786
1772614998563286300,6.165286376953125,-0.03617065292522311,0.0178898769557476,-0.07007840241976082
1772614998573353200,6.175353271484375,-0.039777737506479026,0.000017535656690597534,-0.11849723661933094
1772614998583421400,6.18542138671875,-0.024671938311308622,-0.007900397861003876,-0.13067461767978966
1772614998593488600,6.195488525390625,-0.013722089751809835,0.002305354332923889,-0.10801277708187698
1772614998603556600,6.205556640625,0.03252060598507523,0.039649873343110084,-0.07744582591522485
1772614998613624600,6.21562451171875,0.06592120967507362,0.06541618276238441,-0.034087088116817175
1772614998623691500,6.22569140625,0.08824643872976302,0.0726449649721384,-0.022031616402976215
1772614998633759500,6.235759521484375,0.08001198660880326,0.06881693111658096,-0.018982311834953726
1772614998643827700,6.24582763671875,0.07630436426252127,0.05540507635772228,-0.012306852659024297
1772614998653894700,6.255894775390625,0.07416559866815806,0.02976853079795837,-0.021530571545660494
1772614998663962600,6.265962646484375,0.05705225904285907,-0.0023509470403194426,-0.05738130833413452
1772614998674029600,6.276029541015625,0.012475742952525615,-0.04091185610294342,-0.12162778973001986
1772614998684097500,6.28609765625,0.0016229250267148017,-0.06542845772206783,-0.1072351803055033
1772614998694165800,6.296165771484375,-0.00247588859423995,-0.06545943738222122,-0.07035130107700824
1772614998704232700,6.306232666015625,-0.01937105542421341,-0.059958501878380775,-0.06211213624831289
1772614998714300700,6.31630078125,-0.031113807927072048,-0.0385293448805809,-0.07955226014256477
1772614998724368600,6.32636865234375,-0.024420155507326124,-0.02277823351919651,-0.06719239865466951
1772614998734435600,6.336435546875,-0.04381546858996153,0.008994038316607474,-0.02898589252028614
1772614998744503600,6.346503662109375,-0.041674657168984414,0.05032967278957367,0.03408343485500663
1772614998754570800,6.35657080078125,-0.0352072147205472,0.07062719540894032,0.06516509407814591
1772614998764638700,6.366638671875,-0.018287351840734482,0.09193301828801631,0.0730432435747236
1772614998774706700,6.376706787109375,-0.015130641375482081,0.09787526781857013,0.047963930038921535
1772614998784773600,6.386773681640625,0.0049416941858828065,0.09479892911314963,-0.008825622947141528
1772614998794841600,6.396841552734375,0.032633272579312325,0.045644145321846005,-0.057637840378470716
1772614998804909800,6.406909912109375,0.035018268019706006,-0.004077624702453613,-0.1105848925922066
1772614998814976800,6.416976806640625,0.053688627828657624,-0.03465980997085571,-0.14586889887601137
1772614998825044700,6.427044677734375,0.06537015166357159,-0.04558043243587017,-0.11776731490958481
1772614998835111700,6.437111572265625,0.047583881212770934,-0.02697393164336681,-0.08889708465822041
1772614998845179600,6.4471796875,0.04303250151872635,-0.011290040299296379,-0.061981349475495516
1772614998855247600,6.45724755859375,0.026212445751577614,0.0037701661884784695,-0.04773169218562543
1772614998865314800,6.467314697265625,-0.004784603928029537,0.025967384949326513,-0.020298983924090862
1772614998875382800,6.4773828125,-0.019869506465643644,0.03558803073167801,0.004674092758260667
1772614998885449700,6.48744970703125,-0.0370960972070694,0.03656359776556491,-0.019693382713757455
1772614998895517700,6.497517578125,-0.04404138630032539,0.024255320334434508,-0.05727434082832187
1772614998905585400,6.50758544921875,-0.03755319332480431,0.013660276561975479,-0.052657458150014276
1772614998915652600,6.517652587890625,-0.010493775355070829,0.02308569203317165,-0.03015643413700163
1772614998925720600,6.527720458984375,0.01880304627791047,0.010817162090539931,-0.036032851889729496
1772614998935788500,6.53778857421875,0.034018151066452264,0.0018289689928293227,-0.06736965491771697
1772614998945855700,6.547855712890625,0.08030264011844992,-0.015146131205558777,-0.09188479523211716
1772614998955923500,6.55792333984375,0.11134338280931115,-0.019162381109595297,-0.08636252467930317
1772614998965990700,6.56799072265625,0.13332783560231326,-0.003931494230031967,-0.05167999141998589
1772614998976058600,6.57805859375,0.12430457119122147,0.014261165064573287,-0.02023600169047713
1772614998986126600,6.588126708984375,0.10056479916349052,0.015976736810803412,-0.024021255850233136
1772614998996193500,6.598193603515625,0.06161971308887004,0.013772504764795303,-0.012154657771997153
1772614999006261500,6.608261474609375,0.006178396373987197,0.0082435122102499,0.018518384117633103
1772614999016329500,6.61832958984375,-0.05317410243526101,-0.02093698956668377,-0.03762764680050313
1772614999026396400,6.628396484375,-0.0897942526936531,-0.024979542955756186,-0.14894786792993545
1772614999036464600,6.638464599609375,-0.08762801457047462,-0.021114099699258804,-0.09996412985660136
1772614999046531600,6.648531494140625,-0.04898980248793959,-0.0084352353900671,0.03362495049778372
1772614999056599600,6.658599609375,-0.012714520144462584,0.008240005078911782,0.05908149984814226
1772614999066667500,6.66866748046875,-0.006474602841585874,0.004772036707401275,0.017850640923902393
1772614999076734500,6.678734375,-0.018097236096113918,-0.00789104551076889,-0.0494239195888862
1772614999086802700,6.688802734375,-0.05418401013016701,0.0034054245293140407,-0.11876688387356697
1772614999096870700,6.69887060546875,-0.08099354499205946,0.04241057022809982,-0.1326360174132511
1772614999106937600,6.7089375,-0.09638006082475185,0.07433598679900169,-0.10365527599211781
1772614999117005600,6.719005615234375,-0.06916998233795166,0.08310089253485202,-0.0625227628758177
1772614999127072500,6.729072509765625,-0.006096855570375919,0.07921265292465686,0.01132036237232387
1772614999137140500,6.739140380859375,0.05524404057711362,0.03974339684545994,0.015490085805021226
1772614999147208700,6.749208740234375,0.08289455630779266,0.012443301987648009,-0.003884184489585459
1772614999157275600,6.759275634765625,0.09512114680483937,-0.006536123770475387,-0.05217420467771589
1772614999167343600,6.769343505859375,0.0826456961132586,-0.032493571847677226,-0.08024320154879241
1772614999177411600,6.77941162109375,0.06219196001887321,-0.017131167542934415,-0.03703187286444008
1772614999187478500,6.789478515625,0.05584814395010471,0.0009492635488510131,-0.0201082105923444
1772614999197546800,6.799546630859375,0.043634120673686265,0.016951719322800634,0.000002922609448432922
1772614999207613700,6.80961376953125,0.0304525675393641,0.04222586131095886,0.027881401877105236
1772614999217681700,6.819681640625,0.016246201401948927,0.02964052050411701,-0.0342553573558107
1772614999227749600,6.82974951171875,0.01669642938748002,-0.011939444118738174,-0.03199698396977037
1772614999237816600,6.839816650390625,0.0455704955637455,-0.024546996757388112,-0.03035327188335359
1772614999247884500,6.849884521484375,-0.02273673246502876,-0.08816577470898627,-0.1941993606723845
1772614999257952800,6.859952880859375,-0.08462006492614746,-0.08081482742428779,-0.20332341857682912
1772614999268019700,6.870019775390625,-0.1755859917476773,-0.0022521628409624098,-0.06775478177778423
1772614999278087700,6.880087646484375,-0.19731793108433485,0.003129530197381973,0.02439293870683759
1772614999288154600,6.890154541015625,-0.08197919502854346,0.03480594044327736,-0.06944083516858518
1772614999298222600,6.90022265625,-0.04453150790482759,-0.007658405798673629,-0.05584799781963229
1772614999308290800,6.910290771484375,0.03081833211183548,0.011817863565683364,-0.026840697185136375
1772614999318357800,6.920357666015625,0.08093465441167354,0.009923428121209143,-0.02415054478570819
1772614999328425700,6.93042578125,0.09478285476118326,0.0059545244902372355,-0.04763710923735052
1772614999338493700,6.94049365234375,0.12621829585805536,0.012226444366574286,-0.03365081559140235
1772614999348560600,6.950560546875,0.11280366462022065,-0.02537058809995651,-0.0327910934895277
1772614999358628600,6.960628662109375,0.07491130246892572,-0.031975685453414913,-0.08032185627557337
1772614999368695800,6.97069580078125,0.02380012391284108,-0.02104980229139328,-0.10555391268767415
1772614999378763800,6.980763671875,-0.025681407614797352,-0.014410218146443367,-0.10042469657305628
1772614999388831500,6.99083154296875,-0.05926175178587436,-0.006169044023752212,-0.08205010484028608
1772614999398898700,7.000898681640625,-0.06768295865058899,0.02964402763545513,-0.028404950827173887
1772614999408966700,7.010966552734375,-0.07939706958085298,0.031920740395784374,-0.023610811885818837
1772614999419033600,7.02103369140625,-0.11172931338697671,0.04273088822364807,-0.013896825264208018
1772614999429101800,7.031101806640625,-0.09838263281881808,0.0608808774203062,0.028186083912104365
1772614999439169500,7.04116943359375,-0.0766840112298727,0.07498188348710537,0.072792812477611
1772614999449236700,7.05123681640625,-0.035440438954532145,0.08083528569042682,0.05834624437615275
1772614999459304400,7.061304443359375,0.021418635603785513,0.04798281740248203,0.0016197101563215255
1772614999469372400,7.071372314453125,0.05074366041794419,0.014960837766528129,-0.03045907034538686
1772614999479439600,7.081439697265625,0.061599839344620703,-0.006440262180566788,-0.05550959617812186
1772614999489507600,7.091507568359375,0.04319996704012155,-0.028346389040350913,-0.11099603067636489
1772614999499574800,7.10157470703125,0.02154869172424078,-0.00959901847243309,-0.10185180676672607
1772614999509642500,7.111642578125,0.001604658717662096,0.023372692281007766,-0.06823160550929605
1772614999519710500,7.12171044921875,-0.024553426498174664,0.04214402824640274,-0.056946497113443906
1772614999529777400,7.13177734375,-0.01674889022707939,0.057652563023567194,-0.0059886824881657955
1772614999539845600,7.141845703125,-0.021674071669578552,0.0760953976869583,0.010186024580150842
1772614999549913600,7.15191357421875,-0.030788229234516618,0.061627896395325656,-0.025303916071914134
1772614999559980500,7.16198046875,-0.03968085300326347,0.024964345386624336,-0.03497742455266416
1772614999570048500,7.172048583984375,-0.045157823109626766,0.011427987465262412,-0.02188537633270025
1772614999580115500,7.182115478515625,-0.041202217351645226,0.015360650739073752,-0.026101861516572532
1772614999590182700,7.1921826171875,-0.04076952502280473,0.025614918249845502,-0.045855559582822024
1772614999600250600,7.202250732421875,-0.028605916759371755,0.019191607204079628,-0.0849599278723821
1772614999610317800,7.21231787109375,-0.003543225564807653,0.012392448583245277,-0.1256738502504304
1772614999620385800,7.2223857421875,0.0245955120742321,0.00041442601978778834,-0.11031462428346275
1772614999630453800,7.232453857421875,0.04328749919310212,0.010457681128382683,-0.08123093394450843
1772614999640520700,7.242520751953125,0.047304918140918015,0.022927871122956276,-0.06061101097036153
1772614999650588700,7.252588623046875,0.042173400471359486,0.03229191179573536,-0.02779160470180213
1772614999660655600,7.262655517578125,0.026723317883163688,0.04990004920065403,0.002232216031476855
1772614999670723600,7.2727236328125,-0.005638152017444372,0.07418810276091098,0.0301238105090335
1772614999680791800,7.282791748046875,-0.03353153659328818,0.08811141417324543,0.021724377084709704
1772614999690858800,7.292858642578125,-0.03682371000647545,0.07961246589720249,0.00810593037046492
1772614999700926700,7.3029267578125,-0.015392653312534093,0.08213643141686916,-0.011077274331450462
1772614999710994700,7.31299462890625,0.008521744629740714,0.075851652058959,-0.02863485059291124
1772614999721061600,7.3230615234375,0.06738675218299031,0.03357669090926647,-0.013709960922598838
1772614999731129900,7.3331298828125,0.09020487932115792,-0.01962882957756519,0.02450195203926414
1772614999741196800,7.34319677734375,0.06345335825681686,-0.03647533496022224,0.06837017372976988
1772614999751264800,7.3532646484375,-0.02221007824242115,-0.033657939451932906,0.039579000063985584
1772614999761332700,7.363332763671875,-0.0984340707451105,-0.01598901177048683,0.005189567999728023
1772614999771399700,7.373399658203125,-0.15649521456956864,-0.0004214402824640274,-0.02701488470826298
1772614999781467600,7.383467529296875,-0.1796492956638336,-0.0034393267989158626,-0.07420954740773886
1772614999791535900,7.393535888671875,-0.13046820838749407,-0.0035550621330738066,-0.07452149943374096
1772614999801602800,7.403602783203125,-0.09089593032523989,-0.03254033359885215,-0.05680288739167153
1772614999811670800,7.4136708984375,-0.07972673992663622,-0.04846797057092189,-0.05641819892302155
1772614999821737700,7.42373779296875,-0.05360591798126697,-0.054798342636227605,-0.06894841200914234
1772614999831805700,7.4338056640625,-0.042102234931290144,-0.02689092953503132,-0.04686696511507034
1772614999841874000,7.4438740234375,-0.016173136165738105,0.013842647391557692,-0.005415485710091888
1772614999851940900,7.45394091796875,0.010695581537485122,0.05328267737627029,0.013705284747481346
1772614999862008800,7.4640087890625,0.051420390635728834,0.04744213465452194,-0.025529249260388312
1772614999872076800,7.474076904296875,0.08737696241885423,0.03669336162507534,-0.08278086680024861
1772614999882143700,7.484143798828125,0.09949848510622977,0.01681727928817272,-0.13841598905418068
1772614999892211700,7.494211669921875,0.08689385507702826,-0.021311083576083183,-0.17651936360765247
1772614999902279000,7.50427880859375,0.05287307366207242,-0.037815059131383895,-0.1725709547754377
1772614999912347000,7.514346923828125,0.013928718239814042,-0.015097031366825104,-0.15212156606260685
1772614999922414800,7.524414794921875,-0.04048968516811728,0.017152794852852822,-0.10165876841265707
1772614999932481800,7.534481689453125,-0.055022068389505144,0.05983282967209816,-0.0791231480102986
1772614999942549800,7.5445498046875,-0.05724222865700721,0.08430793023705482,-0.07430950065087527
1772614999952618000,7.554617919921875,-0.029019612126797437,0.09043196607530117,-0.07537734907809644
1772614999962685000,7.564684814453125,0.00906549611762166,0.07487140884995461,-0.09764931357558816
1772614999972753000,7.5747529296875,0.04643266535103321,0.050235564765334126,-0.10752956014219671
1772614999982819800,7.58481982421875,0.07508125220835209,0.04222995296418667,-0.05626695388406515
1772614999992887800,7.5948876953125,0.07636953845322132,0.03323006942868233,0.0011136237977072596
1772615000002955800,7.604955810546875,0.06640227119028567,0.03242459826469421,0.010058123884163796
1772615000013023000,7.61502294921875,0.0345469972461462,0.00943652138710022,-0.019559855994582175
1772615000023091000,7.625091064453125,0.02809153749644756,-0.00428863710463047,-0.07626633380707352
1772615000033158700,7.63515869140625,0.020211305640637875,-0.013185644787549971,-0.07690430291704833
1772615000043225900,7.645225830078125,0.02834171286523342,-0.02600070269703865,-0.08271715391427278
1772615000053293800,7.6552939453125,0.033781419701129196,-0.06802315039038657,-0.152804360694997
1772615000063360800,7.66536083984375,0.031319998023658986,-0.08338613921701908,-0.13411065654307602
1772615000073429000,7.675428955078125,0.023526421537995338,-0.07949263890981674,-0.06670315383300185
1772615000083496700,7.68549658203125,-0.024666239222884176,-0.08785480906367302,-0.038255350244790313
1772615000093564000,7.69556396484375,-0.08349646772369741,-0.08504208973050117,-0.02452767100241035
1772615000103631600,7.705631591796875,-0.03575549625307321,-0.07594517556130885,-0.031321386263147
1772615000113699600,7.715699462890625,0.017812866196781397,-0.04535480698645115,-0.002291508470661938
1772615000123766800,7.725766845703125,0.02550356682986021,-0.009380407285690307,0.023821970418468116
1772615000133834800,7.735834716796875,0.020298983924090862,0.034864392632246013,0.008700352599658071
1772615000143902000,7.74590185546875,0.015963438937813042,0.04877309099733829,-0.061154689393006265
1772615000153969700,7.7559697265625,0.029861177517473695,0.05250584778487682,-0.09253792537860572
1772615000164037600,7.76603759765625,0.059447337485849856,0.06494973429441452,-0.050904075144045054
1772615000174104600,7.7761044921875,0.07994038267731667,0.047753100299835205,-0.04981269971076399
1772615000184172800,7.7861728515625,0.08027706728577613,0.025216274321079254,-0.07277765144109725
1772615000194240800,7.79624072265625,0.038842064091563225,0.03899813143610954,-0.054007995976135134
1772615000204307700,7.8063076171875,0.10707593462318181,0.013452186769247055,-0.04584912984203547
1772615000214375700,7.816375732421875,0.1258379182383418,-0.03266659032702446,-0.08066993906088173
1772615000224442600,7.826442626953125,0.0775859285056591,-0.06545476120710372,-0.12389708636887371
1772615000234510800,7.8365107421875,0.04044336180835962,-0.04763327331244945,-0.1075734358165413
1772615000244578800,7.846578857421875,-0.03567220188379287,-0.03523322594463825,-0.09637761313933879
1772615000254645800,7.856645751953125,-0.10189327128827572,-0.01871522186398506,-0.08821805288549513
1772615000264713700,7.866713623046875,-0.19766016865074634,0.005545359167456626,-0.07879212595764547
1772615000274781700,7.87678173828125,-0.2662380303144455,0.04911854343414306,-0.05192128936257213
1772615000284848600,7.8868486328125,-0.2392582534521818,0.09625906479358673,-0.007388868142291903
1772615000294916900,7.896916748046875,-0.1782037730306387,0.12907587724626063,0.01930511404853314
1772615000304983800,7.90698388671875,-0.07685498388260603,0.11974456979930401,-0.00016728285830467938
1772615000315051800,7.9170517578125,0.038623160643875595,0.09622808513343334,-0.04581851550806314
1772615000325119700,7.92711962890625,0.10854980656802654,0.045649406018853186,-0.09772095403969287
