time,seconds_elapsed,z,y,x
1772614992462309600,0.0643095703125,0.015935629606246948,0.025929689407348633,-0.02220047451555729
1772614992472377600,0.074377685546875,0.022000622004270554,0.030740248039364815,-0.023091934621334076
1772614992482444500,0.084444580078125,0.028639085590839386,0.03550677001476288,-0.014375407248735428
1772614992492512800,0.0945126953125,0.0344659760594368,0.037424977868795395,-0.0062543293461203575
1772614992502580700,0.104580810546875,0.03538689762353897,0.03360520675778389,-0.005254578776657581
1772614992512647700,0.114647705078125,0.031492091715335846,0.02245723269879818,-0.0018416780512779951
1772614992522715600,0.124715576171875,0.017386922612786293,0.028498880565166473,-0.0066872998140752316
1772614992532783600,0.13478369140625,0.005994334351271391,0.03822113201022148,-0.007049473002552986
1772614992542850800,0.144850830078125,0.0058776880614459515,0.02624223753809929,-0.002082677325233817
1772614992552918800,0.154918701171875,0.014973705634474754,0.030420390889048576,-0.0014804089441895485
1772614992562985700,0.16498583984375,0.016960689797997475,0.031210018321871758,0.009964525699615479
1772614992573053700,0.1750537109375,0.022042110562324524,0.035331595689058304,0.009850120171904564
1772614992583121200,0.18512109375,0.022426139563322067,0.04535706713795662,0.0072197155095636845
1772614992593188000,0.19518798828125,0.016106003895401955,0.04672975465655327,-0.0005382605595514178
1772614992603256300,0.20525634765625,0.021694913506507874,0.0369277261197567,-0.010574383661150932
1772614992613323300,0.2153232421875,0.021425381302833557,0.030433451756834984,-0.01405556220561266
1772614992623391200,0.22539111328125,0.015131798572838306,0.032845743000507355,-0.02414601296186447
1772614992633459200,0.235459228515625,0.01239490695297718,0.03503384441137314,-0.029386142268776894
1772614992643526100,0.245526123046875,0.018493279814720154,0.03154483810067177,-0.022218776866793633
1772614992653594000,0.255593994140625,0.024269182235002518,0.020349223166704178,-0.017551416531205177
1772614992663661000,0.2656611328125,0.01653056964278221,0.024611612781882286,-0.01437639631330967
1772614992673729300,0.275729248046875,0.016378039494156837,0.029652463272213936,-0.017147740349173546
1772614992683797200,0.28579736328125,0.012979579158127308,0.033287413418293,-0.018575195223093033
1772614992693864200,0.2958642578125,0.0121278315782547,0.03070945292711258,-0.010457288473844528
1772614992703932200,0.30593212890625,0.013105478137731552,0.02728809043765068,-0.0009085240308195353
1772614992714000100,0.316000244140625,0.01842331700026989,0.02391817420721054,0.011858043260872364
1772614992724067300,0.3260673828125,0.012767028994858265,0.018666155636310577,0.020427029579877853
1772614992734135000,0.336135009765625,-0.000690790475346148,0.01749780774116516,0.017156993970274925
1772614992744202200,0.3462021484375,-0.005792075768113136,0.025022568181157112,0.003167674643918872
1772614992754270000,0.35627001953125,-0.0018498660065233707,0.020865891128778458,-0.007162402383983135
1772614992764338000,0.366337890625,0.00574999675154686,0.015470058657228947,-0.011103082448244095
1772614992774405000,0.376405029296875,0.01418675109744072,0.0092717744410038,-0.009890266694128513
1772614992784473000,0.38647314453125,0.023308876901865005,0.0005525853484869003,-0.012352092191576958
1772614992794540300,0.396540283203125,0.03477528691291809,-0.0006636686157435179,-0.008072900585830212
1772614992804608000,0.40660791015625,0.032993629574775696,-0.0017750055994838476,-0.004757265094667673
1772614992814676000,0.416676025390625,0.018534786999225616,-0.0008778669871389866,-0.008993958123028278
1772614992824743000,0.426742919921875,0.009979646652936935,0.0006768866442143917,-0.008507132530212402
1772614992834811100,0.43681103515625,0.012658118270337582,0.004804479889571667,-0.00661734864115715
1772614992844879000,0.446879150390625,0.018584448844194412,-0.000496542314067483,-0.004488151520490646
1772614992854946000,0.456946044921875,0.015683338046073914,-0.0013915905728936195,-0.0027578999288380146
1772614992865014000,0.467013916015625,0.012685151770710945,0.000354111660271883,-0.0020985014270991087
1772614992875081000,0.4770810546875,0.00935788918286562,0.00047785905189812183,-0.012345448136329651
1772614992885149000,0.48714892578125,0.010675887577235699,-0.0020260452292859554,-0.021582089364528656
1772614992895217200,0.497217041015625,0.013612445443868637,-0.0027177371084690094,-0.0326516292989254
1772614992905284000,0.5072841796875,0.01796431839466095,-0.005528437905013561,-0.03324338421225548
1772614992915352000,0.51735205078125,0.024620067328214645,-0.013378795236349106,-0.02444525808095932
1772614992925419000,0.5274189453125,0.021070074290037155,-0.014619028195738792,-0.006534168031066656
1772614992935487000,0.537487060546875,0.008611295372247696,-0.0011083888821303844,0.008532293140888214
1772614992945555200,0.54755517578125,0.000860431813634932,0.01201540231704712,0.020044606178998947
1772614992955622100,0.5576220703125,-0.004965350963175297,0.013745246455073357,0.024622444063425064
1772614992965690000,0.567690185546875,-0.007046877406537533,0.015036880038678646,0.022811494767665863
1772614992975757000,0.577757080078125,-0.007444064132869244,0.007144530303776264,0.013524295762181282
1772614992985825000,0.587824951171875,-0.010136786848306656,0.0014797202311456203,0.0007102293893694878
1772614992995893000,0.59789306640625,-0.012396173551678658,-0.005479070357978344,-0.009234640747308731
1772614993005960200,0.607960205078125,-0.004357420839369297,-0.00815980788320303,-0.014630204997956753
1772614993016028200,0.618028076171875,0.007271389476954937,-0.01528681255877018,-0.026136407628655434
1772614993026096000,0.62809619140625,0.012184388935565948,-0.015869511291384697,-0.023963002488017082
1772614993036163000,0.6381630859375,0.004632167052477598,-0.007812353782355785,-0.026042431592941284
1772614993046231000,0.64823095703125,-0.005236709024757147,-0.002259929431602359,-0.017439357936382294
1772614993056298000,0.658298095703125,-0.01585950329899788,0.0055571384727954865,-0.0077378349378705025
1772614993066366200,0.6683662109375,-0.023409832268953323,0.01117800548672676,0.005139614455401897
1772614993076434200,0.67843408203125,-0.027590343728661537,0.011514777317643166,0.010203066281974316
1772614993086501000,0.688501220703125,-0.029760021716356277,0.013292171061038971,0.016622083261609077
1772614993096569000,0.698569091796875,-0.03426390513777733,0.016977662220597267,0.02348017320036888
1772614993106636000,0.708635986328125,-0.03028673678636551,0.022423559799790382,0.026316439732909203
1772614993116704300,0.718704345703125,-0.016057182103395462,0.016886206343770027,0.03620731830596924
1772614993126772200,0.728772216796875,-0.00963097345083952,0.008771820925176144,0.03604459762573242
1772614993136839200,0.738839111328125,-0.006793759763240814,0.008335180580615997,0.030511096119880676
1772614993146907100,0.7489072265625,-0.0017539934488013387,0.004358547739684582,0.014971018768846989
1772614993156975000,0.75897509765625,0.007899096235632896,-0.007550328969955444,0.0020494223572313786
1772614993167042000,0.7690419921875,0.01354366634041071,-0.010812435299158096,-0.01011110283434391
1772614993177110300,0.7791103515625,0.01190341729670763,-0.003401468973606825,-0.01935800537467003
1772614993187177200,0.78917724609375,0.005195713136345148,0.002547766547650099,-0.019075974822044373
1772614993197245200,0.7992451171875,-0.0027020866982638836,0.004371785558760166,-0.01614736206829548
1772614993207313200,0.809313232421875,-0.01385780144482851,0.013652103021740913,-0.011079099029302597
1772614993217380000,0.819380126953125,-0.015966860577464104,0.018785888329148293,-0.004614777397364378
1772614993227448300,0.8294482421875,-0.0024382686242461205,0.008931126445531845,0.006672498770058155
1772614993237515300,0.839515380859375,0.008565332740545273,-0.0030590849928557873,0.0181709174066782
1772614993247583200,0.849583251953125,0.004088292829692364,-0.004617566708475351,0.02118534967303276
1772614993257651200,0.859651123046875,-0.004949528258293867,0.0048373062163591385,0.019614897668361664
1772614993267718100,0.86971826171875,-0.007858765311539173,0.010066422633826733,0.017155734822154045
1772614993277786000,0.8797861328125,0.0016710675554350019,0.003964430186897516,0.010390082374215126
1772614993287854000,0.88985400390625,0.0050652665086090565,0.006884852424263954,0.008443311788141727
1772614993297921300,0.89992138671875,0.009005827829241753,0.009469036012887955,0.0078995106741786
1772614993307989200,0.9099892578125,0.019554076716303825,0.008310028351843357,0.008088861592113972
1772614993318056200,0.92005615234375,0.025838665664196014,-0.003697425127029419,0.012786739505827427
1772614993328124200,0.930124267578125,0.018392201513051987,-0.008653035387396812,0.011469806544482708
1772614993338192100,0.940192138671875,0.006883061490952969,0.004258610308170319,0.005059154704213142
1772614993348259300,0.95025927734375,0.002864883979782462,0.011846489273011684,-0.0010988721624016762
1772614993358327000,0.9603271484375,-0.00513563584536314,0.008265454322099686,0.007884252816438675
1772614993368394200,0.970394287109375,-0.0037595806643366814,-0.003966976888477802,0.007938846945762634
1772614993378462000,0.9804619140625,0.008728772401809692,0.0023305220529437065,0.007126974873244762
1772614993388530000,0.990530029296875,0.01672464609146118,0.006668012589216232,0.00500869657844305
1772614993398597000,1.00059716796875,0.02255900949239731,-0.00017276080325245857,0.0032133623026311398
1772614993408665000,1.0106650390625,0.02798599749803543,-0.008772374130785465,0.009550620801746845
1772614993418732300,1.020732177734375,0.02301071025431156,-0.012770873494446278,0.007307207211852074
1772614993428800000,1.030800048828125,0.016107797622680664,-0.019953686743974686,0.008862758986651897
1772614993438868000,1.040867919921875,0.019917350262403488,-0.02386985346674919,0.008891548030078411
1772614993448935000,1.050934814453125,0.026591498404741287,-0.025652574375271797,0.00509254913777113
1772614993459003100,1.061003173828125,0.021947098895907402,-0.020120803266763687,0.008866940625011921
1772614993469071000,1.071071044921875,0.009394555352628231,-0.007509670220315456,0.009836597368121147
1772614993479138000,1.081137939453125,-0.002079204423353076,-0.0003901836462318897,0.009811237454414368
1772614993489206000,1.0912060546875,0.0016609389567747712,0.0038647488690912724,0.011745491996407509
1772614993499273000,1.10127294921875,0.013446037657558918,0.00039794412441551685,0.007501023821532726
1772614993509341000,1.1113408203125,0.014132334850728512,-0.007329749874770641,0.006314584985375404
1772614993519409200,1.1214091796875,0.007996607571840286,0.006435576826334,-0.0012399419210851192
1772614993529476000,1.13147607421875,0.004147008527070284,0.00418307539075613,-0.0010292859515175223
1772614993539544000,1.1415439453125,0.012656232342123985,0.0018474144162610173,-0.0037159938365221024
1772614993549611000,1.151611083984375,0.024674279615283012,-0.005021144635975361,-0.0016877304296940565
1772614993559679000,1.161678955078125,0.0327208936214447,-0.012874235399067402,-0.005528131499886513
1772614993569747200,1.171747314453125,0.026851287111639977,-0.004011501092463732,-0.001362148905172944
1772614993579814100,1.181814208984375,0.021407874301075935,-0.00472139660269022,0.008627045899629593
1772614993589882600,1.191882568359375,0.01199093833565712,-0.008663407526910305,0.01429478544741869
1772614993599950600,1.20195068359375,0.00044913997408002615,-0.0009424637537449598,0.017687471583485603
1772614993610017500,1.212017578125,-0.004988235887140036,0.006657665595412254,0.01845472864806652
1772614993620085800,1.222085693359375,0.0076478347182273865,0.006048610433936119,0.020470116287469864
1772614993630152700,1.232152587890625,0.015186977572739124,0.0003963171038776636,0.01563195139169693
1772614993640220700,1.242220703125,0.018411431461572647,-0.0016796072013676167,0.015036765486001968
1772614993650288600,1.25228857421875,0.01482442021369934,0.00577830895781517,0.005360436625778675
1772614993660355600,1.26235546875,0.017766820266842842,0.0055080377496778965,0.0010931293945759535
1772614993670423600,1.272423583984375,0.020172452554106712,-0.004507045727223158,-0.0017396750627085567
1772614993680490800,1.28249072265625,0.011215131729841232,-0.00470051821321249,-0.0033341585658490658
1772614993690558700,1.292558837890625,0.002394741866737604,-0.006061127409338951,-0.008431448601186275
1772614993700626700,1.302626708984375,-0.007746826391667128,-0.0037727830931544304,-0.0075834812596440315
1772614993710693600,1.312693603515625,-0.01770118996500969,-0.0007668728940188885,-0.006918223574757576
1772614993720761600,1.32276171875,-0.014823861420154572,0.0033291971776634455,-0.0035916243214160204
1772614993730828500,1.33282861328125,-0.008867701515555382,0.006818736903369427,0.006955825723707676
1772614993740896800,1.342896728515625,0.0012789912289008498,0.0037216104101389647,0.0135533157736063
1772614993750964700,1.35296484375,0.006162696518003941,-0.0010113595053553581,0.023862944915890694
1772614993761031700,1.36303173828125,0.0061932941898703575,-0.004964793566614389,0.03098195791244507
1772614993771099600,1.373099609375,0.004594865255057812,0.0018648826517164707,0.03405497968196869
1772614993781167600,1.383167724609375,0.007838159799575806,0.00452776812016964,0.027207016944885254
1772614993791234800,1.39323486328125,0.008908484131097794,0.004416448064148426,0.017358914017677307
1772614993801302800,1.403302734375,0.009338636882603168,0.005489829927682877,0.005960510112345219
1772614993811369700,1.41336962890625,0.01111975871026516,0.0007981390226632357,-0.0007274863310158253
1772614993821437700,1.423437744140625,0.00961958710104227,-0.00018384703435003757,-0.010647248476743698
1772614993831505700,1.433505615234375,0.002040497027337551,0.00018313666805624962,-0.01931290701031685
1772614993841572600,1.443572509765625,-0.0007172552868723869,0.001061584334820509,-0.024695733562111855
1772614993851640600,1.453640625,-0.0017100817058235407,-0.00535503588616848,-0.025889361277222633
1772614993861708500,1.46370849609375,-0.0006895665428601205,-0.0021505297627300024,-0.02859143353998661
1772614993871775700,1.473775634765625,0.006135582458227873,0.0033718012273311615,-0.025317609310150146
1772614993881843500,1.483843505859375,0.01067853718996048,0.000340284314006567,-0.009324911050498486
1772614993891910700,1.49391064453125,0.011165895499289036,-0.0024967812933027744,0.0018132270779460669
1772614993901978600,1.503978515625,0.006247719284147024,0.0032614348456263542,0.014318915084004402
1772614993912046600,1.514046630859375,-0.0000703639816492796,0.012031223624944687,0.014620119705796242
1772614993922113500,1.524113525390625,0.002260582521557808,0.009893888607621193,0.016183944419026375
1772614993932181500,1.534181396484375,0.00820236187428236,0.008648861199617386,0.012684018351137638
1772614993942248700,1.544248779296875,0.013419996947050095,0.010512305423617363,0.010286873206496239
1772614993952316400,1.55431640625,0.017030976712703705,0.002920165890827775,0.005107290577143431
1772614993962384600,1.564384521484375,0.015226457267999649,-0.002492737490683794,-0.0017421861412003636
1772614993972451600,1.57445166015625,0.008277470245957375,-0.004186241887509823,-0.009218212217092514
1772614993982519600,1.58451953125,0.00825466774404049,-0.00187987694516778,-0.01563113182783127
1772614993992586500,1.59458642578125,0.01451815664768219,-0.0017730840481817722,-0.017002925276756287
1772614994002654500,1.604654541015625,0.017323046922683716,-0.0034384960308670998,-0.010869089514017105
1772614994012722700,1.61472265625,0.01571636274456978,-0.0056723556481301785,-0.00339333014562726
1772614994022789600,1.62478955078125,0.009547929279506207,0.00009243027307093143,0.004515447653830051
1772614994032857600,1.634857666015625,0.007769736461341381,-0.00029239640571177006,0.006675271317362785
1772614994042925600,1.644925537109375,0.012706885114312172,-0.00206464109942317,0.006940302439033985
1772614994052992500,1.654992431640625,0.009703106246888638,-0.007078574039041996,0.005066501908004284
1772614994063060500,1.665060546875,0.011248201131820679,-0.003470011055469513,0.0006736814975738525
1772614994073127400,1.67512744140625,0.010686540976166725,0.003021710552275181,-0.006539490073919296
1772614994083195600,1.685195556640625,0.01060215663164854,-0.0012496814597398043,-0.011826111935079098
1772614994093263600,1.695263671875,0.014516204595565796,-0.006821281276643276,-0.011946220882236958
1772614994103330600,1.70533056640625,0.011120283976197243,-0.007206336595118046,-0.014299364760518074
1772614994113398500,1.7153984375,0.012175428681075573,-0.0038022834341973066,-0.015216290950775146
1772614994123465500,1.725465576171875,0.01364230178296566,-0.012554683722555637,-0.01092514581978321
1772614994133533700,1.73553369140625,0.014114746823906898,-0.012253480032086372,-0.013284972868859768
1772614994143601700,1.7456015625,0.014034919440746307,-0.00967959314584732,-0.009677247144281864
1772614994153668600,1.755668701171875,0.02085793763399124,-0.006691526155918837,-0.007466557435691357
1772614994163736600,1.765736572265625,0.02003275603055954,-0.011728325858712196,-0.004611643496900797
1772614994173804500,1.775804443359375,0.010537520982325077,-0.006278432905673981,-0.0033722082152962685
1772614994183871500,1.78587158203125,0.003586364910006523,0.004561915062367916,-0.002617374761030078
1772614994193939700,1.795939697265625,0.010228821076452732,-0.0008749281987547874,-0.004631789401173592
1772614994204006700,1.806006591796875,0.004259604960680008,-0.0030175200663506985,-0.010526572354137897
1772614994214074600,1.81607470703125,0.0011684736236929893,0.0009255562908947468,-0.018782373517751694
1772614994224142600,1.826142578125,0.0022452545817941427,-0.000559402396902442,-0.02324923314154148
1772614994234209500,1.83620947265625,0.017166413366794586,-0.012059198692440987,-0.01162559911608696
1772614994244277800,1.84627783203125,0.024519916623830795,-0.01788289099931717,0.0021341433748602867
1772614994254344700,1.8563447265625,0.022160088643431664,-0.008460893295705318,0.005446849390864372
1772614994264412700,1.86641259765625,0.02031041495501995,0.000025200657546520233,0.011585325933992863
1772614994274480600,1.876480712890625,0.025801053270697594,-0.0009069058578461409,0.015012813732028008
1772614994284547600,1.886547607421875,0.023989705368876457,-0.006486000493168831,0.018487172201275826
1772614994294615600,1.896615478515625,0.010298393666744232,0.0005743061192333698,0.011668946593999863
1772614994304682800,1.906682861328125,-0.009531567804515362,0.003743525827303529,0.0044131046161055565
1772614994314750700,1.916750732421875,-0.012752660550177097,0.005850885063409805,-0.006994812749326229
1772614994324818700,1.926818603515625,-0.013725238852202892,0.003196857636794448,-0.018029212951660156
1772614994334885600,1.9368857421875,-0.004424148704856634,0.0033433313947170973,-0.01359771378338337
1772614994344953600,1.94695361328125,0.004904803819954395,0.000717654125764966,-0.011345718055963516
1772614994355021800,1.957021728515625,0.014437856152653694,-0.00313221151009202,-0.007676946930587292
1772614994365088800,1.9670888671875,0.004847419913858175,-0.0035659242421388626,-0.001010377425700426
1772614994375156700,1.97715673828125,-0.007861184887588024,-0.0009688097052276134,0.00418491754680872
1772614994385223700,1.9872236328125,-0.016702909022569656,0.00700225168839097,0.007515694480389357
1772614994395291600,1.997291748046875,-0.024105429649353027,0.010066485032439232,0.008438214659690857
1772614994405359600,2.007359619140625,-0.019896669313311577,0.015703950077295303,0.016513099893927574
1772614994415426800,2.0174267578125,-0.016992226243019104,0.015780648216605186,0.020305972546339035
1772614994425494800,2.027494873046875,-0.01262167189270258,0.022225547581911087,0.0255254078656435
1772614994435561700,2.037561767578125,-0.008849837817251682,0.015186546370387077,0.027652474120259285
1772614994445629700,2.047629638671875,-0.0011485388968139887,0.014969262294471264,0.022779123857617378
1772614994455697700,2.05769775390625,-0.00196186825633049,0.009765179827809334,0.014109736308455467
1772614994465764600,2.0677646484375,0.005366727244108915,-0.0021454731468111277,0.006870575714856386
1772614994475832600,2.07783251953125,0.008466114290058613,-0.004186253063380718,-0.007310757413506508
1772614994485899800,2.087899658203125,0.012219828553497791,-0.004941070452332497,-0.01881883293390274
1772614994495967700,2.0979677734375,0.013574578799307346,-0.006024178117513657,-0.0186433307826519
1772614994506035500,2.108035400390625,0.011373229324817657,0.003044307930395007,-0.017400268465280533
1772614994516102700,2.1181025390625,0.011757790111005306,0.006691773422062397,-0.010452615097165108
1772614994526170600,2.128170654296875,0.00444427877664566,0.009557541459798813,-0.012438736855983734
1772614994536238600,2.138238525390625,0.0014141341671347618,0.019569430500268936,-0.005020235665142536
1772614994546305500,2.148305419921875,0.0024107848294079304,0.017532367259263992,-0.006793276406824589
1772614994556373500,2.15837353515625,0.014942556619644165,0.00891278125345707,-0.010027951560914516
1772614994566440700,2.168440673828125,0.01844644732773304,-0.0004292917437851429,-0.010084178298711777
1772614994576508400,2.17850830078125,0.013173388317227364,0.0007685981690883636,-0.004260378889739513
1772614994586576000,2.188575927734375,0.003404055954888463,0.004972456023097038,-0.0024882270954549313
1772614994596643000,2.19864306640625,0.005199559032917023,0.005262208171188831,0.004494048655033112
1772614994606710800,2.208710693359375,0.00726255401968956,0.001752763520926237,0.008494226261973381
1772614994616778800,2.21877880859375,0.004773030057549477,0.005757625214755535,0.008141357451677322
1772614994626846000,2.228845947265625,0.004555514082312584,0.009769353084266186,0.006292384117841721
1772614994636913700,2.23891357421875,0.010473057627677917,0.010044457390904427,0.005138969048857689
1772614994646980900,2.24898095703125,0.011616619303822517,0.005691254511475563,0.0027565050404518843
1772614994657048800,2.259048828125,0.007169939111918211,0.004984984174370766,0.008325174450874329
1772614994667116800,2.26911669921875,0.0034162369556725025,0.007923752069473267,0.005786275491118431
1772614994677183700,2.279183837890625,0.003602392040193081,0.0032600238919258118,0.010249201208353043
1772614994687251700,2.289251708984375,-0.0009047581697814167,-0.00011063017882406712,0.008858216926455498
1772614994697319000,2.29931884765625,-0.0033197125885635614,0.006794147193431854,0.007683229632675648
1772614994707387000,2.309386962890625,0.005253374110907316,0.006010448560118675,0.0008873401675373316
1772614994717454800,2.319454833984375,0.011778118088841438,-0.0021747772116214037,-0.0029382905922830105
1772614994727521800,2.329521728515625,0.012812463566660881,-0.0020250780507922173,0.0005633479449898005
1772614994737589800,2.33958984375,0.009255812503397465,-0.00180083978921175,-0.0045925322920084
1772614994747657700,2.34965771484375,-0.00007996952626854181,0.003937985748052597,-0.006133373826742172
1772614994757724700,2.359724609375,-0.008621525950729847,0.005815780721604824,-0.014697832986712456
1772614994767793000,2.36979296875,-0.007125777192413807,0.0032268031500279903,-0.010973419062793255
1772614994777859800,2.37985986328125,0.004380942787975073,-0.008861551061272621,-0.009395229630172253
1772614994787927800,2.389927734375,0.010666003450751305,-0.009977415204048157,-0.006902777124196291
1772614994797995800,2.399995849609375,0.010648425668478012,-0.005015946924686432,-0.004168243147432804
1772614994808062700,2.410062744140625,0.003569462336599827,-0.008135996758937836,0.0008272968698292971
1772614994818131000,2.420130859375,-0.007279723417013884,-0.004725818522274494,0.007148309610784054
1772614994828198000,2.430197998046875,-0.018090514466166496,-0.0029957019723951817,0.007750232703983784
1772614994838265900,2.440265869140625,-0.014125864952802658,0.0044366479851305485,0.0016164404805749655
1772614994848333800,2.450333740234375,-0.007498055696487427,0.001362294889986515,0.005014633759856224
1772614994858400800,2.46040087890625,0.0005936926463618875,-0.0013852883130311966,0.006371513940393925
1772614994868468700,2.47046875,0.003476401325315237,-0.0021070134826004505,0.007063369266688824
1772614994878536000,2.480535888671875,0.010336171835660934,-0.0026159435510635376,0.0017429059371352196
1772614994888604000,2.49060400390625,0.01625693403184414,-0.005259428173303604,-0.007512751966714859
1772614994898671900,2.500671875,0.01793925277888775,-0.011959942057728767,-0.015654567629098892
1772614994908738800,2.51073876953125,0.010438618250191212,-0.011701949872076511,-0.011610668152570724
1772614994918806800,2.520806884765625,0.0040065511129796505,-0.010453992523252964,-0.007300076074898243
1772614994928875000,2.530875,0.0026326728984713554,-0.005904464051127434,0.0045944456942379475
1772614994938942000,2.54094189453125,-0.003136266488581896,0.0024791669566184282,0.01680530421435833
1772614994949010000,2.551010009765625,0.0008485435973852873,0.00897718220949173,0.02515849843621254
1772614994959076900,2.561076904296875,0.002749774372205138,0.005380316637456417,0.026861589401960373
1772614994969144800,2.571144775390625,0.004710964858531952,0.0007877442985773087,0.021949294954538345
1772614994979212800,2.581212890625,0.004470481537282467,-0.0049529653042554855,0.01132195070385933
1772614994989280000,2.591280029296875,0.0012403866276144981,-0.007303266320377588,0.0018468822818249464
1772614994999348000,2.601347900390625,-0.001223303726874292,-0.011477772146463394,-0.004839516244828701
1772614995009416000,2.611416015625,0.0008227124344557524,-0.011884612962603569,-0.010436249896883965
1772614995019483000,2.62148291015625,0.002481062663719058,-0.013231905177235603,-0.008187476545572281
1772614995029550800,2.63155078125,-0.006204994395375252,-0.01195751503109932,-0.007340212352573872
1772614995039617800,2.64161767578125,-0.019233178347349167,0.00011219736188650131,-0.008641699329018593
1772614995049686000,2.65168603515625,-0.02299259416759014,0.0024781592655926943,-0.007529120892286301
1772614995059754000,2.66175390625,-0.017528852447867393,0.004277657251805067,-0.004869688302278519
1772614995069821000,2.671821044921875,-0.009079087525606155,0.007927164435386658,-0.00240285019390285
1772614995079889000,2.681888916015625,0.0050452533178031445,0.0034959306940436363,0.002541841007769108
1772614995089955800,2.691955810546875,0.007184814661741257,-0.0008348708506673574,0.010812394320964813
1772614995100024000,2.702024169921875,-0.0055975597351789474,-0.005609918385744095,0.017664175480604172
1772614995110092000,2.712092041015625,-0.009927491657435894,-0.0032657368574291468,0.020932376384735107
1772614995120159000,2.722158935546875,-0.009574889205396175,0.0004799992311745882,0.011823567561805248
1772614995130227000,2.73222705078125,-0.008535763248801231,0.0014080617111176252,0.0008538353722542524
1772614995140295000,2.742294921875,0.0026401919312775135,0.0038014445453882217,-0.010336501523852348
1772614995150361900,2.75236181640625,0.010740009136497974,0.0007013573776930571,-0.014533831737935543
1772614995160430000,2.76243017578125,0.007107190787792206,0.005698512773960829,-0.013497862033545971
1772614995170497000,2.7724970703125,0.0053238896653056145,0.0055130282416939735,-0.005796578247100115
1772614995180565000,2.78256494140625,0.0061731720343232155,0.008312810212373734,0.0017292485572397709
1772614995190632700,2.7926328125,0.005425945855677128,0.009270879440009594,0.007882398553192616
1772614995200700000,2.802699951171875,0.005163091700524092,0.011438160203397274,0.011018803343176842
1772614995210768000,2.812767822265625,-0.00018824241124093533,0.011318019591271877,0.006157631054520607
1772614995220835000,2.8228349609375,0.006051544100046158,0.007144046947360039,0.004541092086583376
1772614995230902800,2.83290283203125,0.006611630320549011,0.004246420226991177,0.004889056086540222
1772614995240970800,2.842970703125,0.0047301072627305984,0.004801955074071884,-0.003350498154759407
1772614995251038000,2.853037841796875,0.001806247397325933,0.007859233766794205,0.00022415281273424625
1772614995261105700,2.863105712890625,0.0005050270119681954,0.009384426288306713,-0.0014240775490179658
1772614995271172900,2.8731728515625,-0.0038286105263978243,0.009149418212473392,-0.0009512411197647452
1772614995281240800,2.88324072265625,-0.006525593809783459,0.008857536129653454,-0.0036122717428952456
1772614995291308800,2.893308837890625,-0.003907456062734127,0.003435792401432991,-0.004396320320665836
1772614995301375700,2.903375732421875,-0.0032099741511046886,-0.0014084973372519016,-0.005348400212824345
1772614995311443700,2.913443603515625,-0.004592460580170155,-0.0016578189097344875,-0.004988246597349644
1772614995321512000,2.923511962890625,-0.0010184983257204294,-0.0006767101585865021,-0.006829822901636362
1772614995331579000,2.933578857421875,0.002505968790501356,-0.0021970593370497227,-0.002881514374166727
1772614995341646800,2.943646728515625,-0.007831623777747154,-0.0011760033667087555,0.007084833458065987
1772614995351713800,2.9537138671875,-0.012155633419752121,0.004032006952911615,0.008610320277512074
1772614995361781800,2.96378173828125,-0.010124706663191319,0.003364352509379387,0.005046211648732424
1772614995371849700,2.973849609375,-0.008395947515964508,0.006157809402793646,0.006136481650173664
1772614995381916700,2.983916748046875,-0.008287823759019375,0.004631551913917065,0.006348202936351299
1772614995391985000,2.99398486328125,-0.010583280585706234,0.006281014997512102,0.005117212422192097
1772614995402051800,3.0040517578125,-0.01055798027664423,0.012294699437916279,0.006044258363544941
1772614995412119800,3.014119873046875,-0.011442087590694427,0.00791400671005249,0.0011875138152390718
1772614995422187800,3.024187744140625,-0.004644901491701603,0.000490178819745779,0.008040093816816807
1772614995432254700,3.034254638671875,-0.003361037466675043,-0.00385702564381063,0.007711675483733416
1772614995442323000,3.044322998046875,-0.00042250542901456356,-0.0028823090251535177,0.00710713816806674
1772614995452391000,3.054390869140625,-0.00405831728130579,-0.0008715647272765636,0.00923148263245821
1772614995462457900,3.064457763671875,-0.011173750273883343,0.0009851912036538124,0.008132662624120712
1772614995472525800,3.07452587890625,-0.003674022853374481,-0.0032934434711933136,0.007050087675452232
1772614995482592800,3.0845927734375,0.006963973864912987,0.00009809224866330624,0.009663714095950127
1772614995492660700,3.09466064453125,0.006721547804772854,-0.00028416956774890423,0.003566061845049262
1772614995502729000,3.10472900390625,0.001778188394382596,0.0047460091300308704,0.004000956192612648
1772614995512796000,3.1147958984375,-0.0049997055903077126,0.0077912150882184505,0.004300279542803764
1772614995522863900,3.12486376953125,-0.005354438442736864,0.0005908263847231865,0.004980717785656452
1772614995532930800,3.134930908203125,-0.006139412056654692,-0.0038987703155726194,-0.00003255927003920078
1772614995542998800,3.144998779296875,0.0019462114432826638,-0.000799915986135602,-0.001699165441095829
1772614995553067000,3.15506689453125,0.0053396024741232395,0.0003576811868697405,-0.0005695921136066318
1772614995563134000,3.165134033203125,0.004790192004293203,-0.0020849700085818768,-0.002015954814851284
1772614995573202000,3.175201904296875,0.004592890851199627,-0.0060301274061203,-0.003192899515852332
1772614995583270100,3.185270263671875,0.0074683064594864845,-0.0086522763594985,-0.0028192580211907625
1772614995593337000,3.195337158203125,0.00903579592704773,-0.005859280005097389,-0.012552360072731972
1772614995603405000,3.205405029296875,0.010786824859678745,-0.013210403732955456,-0.012608285993337631
1772614995613472000,3.215471923828125,0.006281021982431412,-0.018529001623392105,-0.01266155019402504
1772614995623540000,3.2255400390625,0.0015533785335719585,-0.01086415909230709,-0.01169908419251442
1772614995633608200,3.235608154296875,0.0009643735829740763,-0.009428005665540695,-0.0018611468840390444
1772614995643675100,3.245675048828125,-0.00027293094899505377,-0.010982759296894073,0.0037224367260932922
1772614995653743000,3.2557431640625,-0.002216208493337035,-0.0052095879800617695,0.011019529774785042
1772614995663810000,3.26581005859375,0.0002980817807838321,-0.0009501278400421143,0.012827815487980843
1772614995673878000,3.2758779296875,0.008472388610243797,-0.004739007446914911,0.010627511888742447
1772614995683946200,3.2859462890625,0.010631146840751171,-0.012608114629983902,0.0032763888593763113
1772614995694013200,3.29601318359375,0.003200927283614874,-0.017791958525776863,-0.007513142190873623
1772614995704081200,3.3060810546875,-0.011217959225177765,-0.013185754418373108,-0.01451033167541027
1772614995714149000,3.316149169921875,-0.0214509516954422,-0.00757787749171257,-0.019390372559428215
1772614995724216000,3.326216064453125,-0.024141542613506317,-0.007509700953960419,-0.013446462340652943
1772614995734284000,3.336283935546875,-0.019837787374854088,0.001115845749154687,-0.011484029702842236
1772614995744351200,3.346351318359375,-0.01236016396433115,-0.0014951173216104507,-0.006270092446357012
1772614995754419200,3.356419189453125,-0.0046852957457304,0.002919158898293972,0.0028247793670743704
1772614995764487000,3.36648681640625,-0.002004557754844427,0.000244279857724905,0.013110439293086529
1772614995774554000,3.37655419921875,-0.005194098223000765,-0.001378422835841775,0.01815219223499298
1772614995784622000,3.3866220703125,-0.008078035898506641,-0.001123025780543685,0.01495932973921299
1772614995794689000,3.39668896484375,-0.01385356392711401,-0.002929428592324257,0.015078311786055565
1772614995804757000,3.406757080078125,-0.00726437009871006,-0.0031526018865406513,0.016712427139282227
1772614995814825000,3.416824951171875,-0.002183779375627637,-0.004158645402640104,0.016576416790485382
1772614995824892200,3.42689208984375,0.005151365417987108,-0.005693957209587097,0.012882079929113388
1772614995834960000,3.4369599609375,0.007427402772009373,-0.004003658890724182,0.006588201969861984
1772614995845027800,3.44702783203125,0.007358427159488201,-0.004945086780935526,0.005615615285933018
1772614995855095000,3.457094970703125,0.009510825388133526,-0.00972149521112442,-0.00714222714304924
1772614995865163000,3.4671630859375,0.0070007964968681335,-0.011725524440407753,-0.016190316528081894
1772614995875230000,3.47722998046875,0.011376071721315384,-0.008548609912395477,-0.02244078740477562
1772614995885298000,3.4872978515625,0.00948655977845192,-0.006707566324621439,-0.022486060857772827
1772614995895366000,3.497365966796875,0.004083280451595783,-0.003568419720977545,-0.016153987497091293
1772614995905432800,3.507432861328125,-0.00066460354719311,-0.0007768943905830383,-0.009025504812598228
1772614995915501000,3.5175009765625,-0.005139215849339962,0.00909461546689272,-0.0024724986869841814
1772614995925569000,3.527569091796875,-0.0012310269521549344,0.011089323088526726,0.005653871223330498
1772614995935636000,3.537635986328125,-0.0019841997418552637,0.004383246414363384,0.015648148953914642
1772614995945704000,3.547703857421875,-0.0051192729733884335,0.004976066295057535,0.014613778330385685
1772614995955771000,3.55777099609375,-0.003226469736546278,0.014947386458516121,0.016197917982935905
1772614995965839000,3.567839111328125,0.0019355353433638811,0.009630651213228703,0.020459242165088654
1772614995975907000,3.577906982421875,0.0036769211292266846,0.004921520594507456,0.01949445903301239
1772614995985974000,3.58797412109375,0.008857568725943565,0.0015198651235550642,0.016407057642936707
1772614995996042000,3.5980419921875,0.01183275319635868,0.0006314453203231096,0.006659114267677069
1772614996006109000,3.60810888671875,0.007937081158161163,-0.008125293999910355,-0.004508318845182657
1772614996016177000,3.618177001953125,0.009871927089989185,-0.010118996724486351,-0.008544005453586578
1772614996026245000,3.6282451171875,0.006163741461932659,-0.004029413219541311,-0.015565428882837296
1772614996036312000,3.63831201171875,0.0030548619106411934,-0.0003716486971825361,-0.015013264492154121
1772614996046380000,3.648380126953125,0.0001261836150661111,0.003002842655405402,-0.010080290958285332
1772614996056448000,3.658447998046875,0.002386728534474969,0.008586099371314049,-0.006178569048643112
1772614996066515000,3.668514892578125,0.002631473122164607,0.014249044470489025,0.0007275398820638657
1772614996076583200,3.678583251953125,0.004103316459804773,0.009281540289521217,0.006964975036680698
1772614996086650000,3.688650146484375,0.004923037253320217,0.004317141138017178,0.007375368848443031
1772614996096718000,3.698718017578125,0.006038621999323368,0.003693083766847849,0.0018937662243843079
1772614996106786000,3.7087861328125,0.008426145650446415,0.0005039484240114689,-0.0061276750639081
1772614996116853000,3.71885302734375,0.007539412006735802,-0.0022537652403116226,-0.00854132603853941
1772614996126921000,3.7289208984375,0.006936739198863506,0.004395615309476852,-0.002151603577658534
1772614996136988000,3.73898779296875,0.006401456892490387,0.01143275760114193,0.004730134271085262
1772614996147056000,3.74905615234375,0.007059790194034576,0.016395291313529015,0.00929346028715372
1772614996157124000,3.7591240234375,0.005781115498393774,0.013769843615591526,0.007658338639885187
1772614996167191000,3.76919091796875,0.0018572137923911214,0.013391674496233463,0.007909474894404411
1772614996177259000,3.779259033203125,-0.0015295747434720397,0.009460721164941788,0.0033453009091317654
1772614996187327200,3.7893271484375,-0.005246815271675587,0.00893528014421463,0.0008243527263402939
1772614996197394200,3.799394287109375,0.0003402860602363944,0.0075663551688194275,-0.0007017171010375023
1772614996207462100,3.809462158203125,0.009626994840800762,0.006630253978073597,-0.0011611124500632286
1772614996217529000,3.819529052734375,0.013196037150919437,0.00715493643656373,0.0015980647876858711
1772614996227597000,3.82959716796875,0.01483468059450388,0.00758849922567606,0.000677409814670682
1772614996237665000,3.8396650390625,0.015061905607581139,0.00998920388519764,0.0007151397876441479
1772614996247732000,3.84973193359375,0.014984408393502235,0.011034495197236538,-0.0024010250344872475
1772614996257800200,3.85980029296875,0.011429461650550365,0.006450273562222719,-0.0028970553539693356
1772614996267868200,3.8698681640625,0.003936125431209803,0.004391117487102747,-0.0032829472329467535
1772614996277935000,3.87993505859375,-0.002807343378663063,0.006287722382694483,-0.001833998947404325
1772614996288003000,3.890003173828125,0.0001274599926546216,0.0097804581746459,-0.0011471696197986603
1772614996298070000,3.900070068359375,0.01001780852675438,0.004993703216314316,-0.00590860890224576
1772614996308138200,3.91013818359375,0.012225302867591381,0.0028961976058781147,-0.007769626099616289
1772614996318206000,3.9202060546875,0.005291477777063847,0.004471298307180405,-0.013757487758994102
1772614996328273200,3.930273193359375,0.0018373578786849976,-0.005770686082541943,-0.017875533550977707
1772614996338341000,3.940341064453125,0.0027823494747281075,-0.003678250126540661,-0.01719699054956436
1772614996348408000,3.950407958984375,0.0013056264724582434,0.00580286979675293,-0.007074050605297089
1772614996358476000,3.96047607421875,0.009518634527921677,0.011937904171645641,0.008223633281886578
1772614996368544000,3.9705439453125,0.01528970431536436,0.00943746231496334,0.02681143209338188
1772614996378611200,3.980611083984375,0.014179573394358158,0.011421823874115944,0.030687004327774048
1772614996388679000,3.990678955078125,0.013485820963978767,0.013975529000163078,0.026461899280548096
1772614996398747000,4.000746826171875,0.011667766608297825,0.013415110297501087,0.016947977244853973
1772614996408814000,4.01081396484375,0.0070021748542785645,0.0069319112226367,0.009154502302408218
1772614996418882000,4.020882080078125,0.00911197904497385,0.0024510046932846308,-0.003273892682045698
1772614996428949000,4.030948974609375,0.009121567010879517,-0.0027237834874540567,-0.01298990286886692
1772614996439017000,4.041016845703125,0.011771388351917267,0.002237716456875205,-0.014206060208380222
1772614996449085000,4.0510849609375,0.003414921462535858,0.004340282175689936,-0.01651715114712715
1772614996459152000,4.06115185546875,0.004131592344492674,0.0033686510287225246,-0.013145305216312408
1772614996469219800,4.0712197265625,0.00190172775182873,0.0032586625311523676,-0.007351864594966173
1772614996479287000,4.081287109375,0.005702787544578314,0.004990763030946255,-0.005212751217186451
1772614996489355000,4.09135498046875,0.0041962373070418835,0.0028567719273269176,-0.0056862616911530495
1772614996499423000,4.101423095703125,0.001360448426567018,-0.00110222352668643,0.004344346467405558
1772614996509490000,4.111489990234375,-0.0021663757506757975,-0.005152625497430563,0.010248307138681412
1772614996519558000,4.121557861328125,0.0028122160583734512,0.0027530668303370476,0.01861177757382393
1772614996529626000,4.131626220703125,0.00307560246437788,0.0013775441329926252,0.02408750355243683
1772614996539693000,4.141693115234375,0.0052358414977788925,-0.0005733687430620193,0.026930442079901695
1772614996549761000,4.151760986328125,0.01328524574637413,0.005620610900223255,0.021395595744252205
1772614996559828000,4.161827880859375,0.018923228606581688,0.0031377666164189577,0.013456113636493683
1772614996569896000,4.17189599609375,0.0187075138092041,-0.002274309052154422,0.0009613614529371262
1772614996579964000,4.1819638671875,0.010620188899338245,-0.00432839710265398,-0.0091631431132555
1772614996590030600,4.192030517578125,-0.00023512227926403284,-0.004771546460688114,-0.016648489981889725
1772614996600098800,4.202098876953125,-0.008853902108967304,0.002476324327290058,-0.018937867134809494
1772614996610165800,4.212165771484375,-0.0033568714279681444,0.0032635547686368227,-0.011816575191915035
1772614996620233700,4.222233642578125,0.009342482313513756,0.007530757691711187,-0.0029429858550429344
1772614996630301700,4.2323017578125,0.01820548065006733,0.0024276087060570717,0.0017993052024394274
1772614996640368600,4.24236865234375,0.024317201226949692,0.0022099989000707865,-0.0009197514737024903
1772614996650436600,4.2524365234375,0.024926532059907913,-0.00013145222328603268,0.0015663094818592072
1772614996660504800,4.2625048828125,0.023237135261297226,-0.002120763761922717,-0.00041097961366176605
1772614996670571800,4.27257177734375,0.011096315458416939,-0.0048017678782343864,-0.0013324333122000098
1772614996680639700,4.2826396484375,-0.0014045474817976356,0.005728527437895536,-0.0011388034326955676
1772614996690706700,4.292706787109375,-0.0036352111492305994,0.014257567003369331,0.0033017515670508146
1772614996700774700,4.302774658203125,-0.0014499463140964508,0.010776588693261147,0.015248033218085766
1772614996710843000,4.3128427734375,0.0009964334312826395,0.0166347436606884,0.01926248148083687
1772614996720909800,4.322909912109375,0.009639488533139229,0.020566873252391815,0.020883310586214066
1772614996730977800,4.332977783203125,0.011194774881005287,0.015921788290143013,0.01880737580358982
1772614996741045800,4.343045654296875,0.0027683598455041647,0.00834641419351101,0.010656602680683136
1772614996751112700,4.35311279296875,-0.01024597603827715,0.007319766096770763,-0.006210261024534702
1772614996761180700,4.3631806640625,-0.014516173861920834,0.0033653276041150093,-0.023653121665120125
1772614996771247600,4.37324755859375,-0.016416341066360474,-0.0038220114074647427,-0.028905672952532768
1772614996781315800,4.38331591796875,-0.013218792155385017,-0.00017594709061086178,-0.025230087339878082
1772614996791383800,4.3933837890625,-0.009964409284293652,0.0022408715449273586,-0.015468270517885685
1772614996801450800,4.40345068359375,-0.00604299595579505,0.0012901355512440205,0.0033979949075728655
1772614996811518700,4.413518798828125,-0.005765494424849749,0.004535996355116367,0.015831761062145233
1772614996821585700,4.423585693359375,-0.007631934713572264,0.014375930652022362,0.01448864210397005
1772614996831654000,4.43365380859375,-0.013954811729490757,0.009866666048765182,0.008187069557607174
1772614996841721900,4.443721923828125,-0.014436169527471066,0.0027307658456265926,-0.005475074052810669
1772614996851788800,4.453788818359375,-0.012792466208338737,-0.0008759533520787954,-0.013832871802151203
1772614996861856800,4.463856689453125,-0.009060923010110855,-0.0007562090177088976,-0.017385609447956085
1772614996871924700,4.4739248046875,-0.007488858886063099,0.0007460799533873796,-0.01663805916905403
1772614996881991700,4.48399169921875,-0.005849066190421581,0.0030347108840942383,-0.012988241389393806
1772614996892060000,4.494059814453125,-0.005691406317055225,0.002885041292756796,-0.0025286758318543434
1772614996902126800,4.504126953125,-0.011527425609529018,0.010598326101899147,0.0035950259771198034
1772614996912194800,4.51419482421875,-0.01237937156111002,0.006243790499866009,0.004440313205122948
1772614996922262800,4.5242626953125,-0.008776145987212658,0.002953218063339591,0.004174766596406698
1772614996932329700,4.534329833984375,-0.00451562087982893,0.0027305777184665203,-0.0028831425588577986
1772614996942398000,4.54439794921875,-0.0029631778597831726,0.004891910124570131,-0.011608504690229893
1772614996952465000,4.55446484375,-0.00040574418380856514,0.0035036043263971806,-0.019298648461699486
1772614996962532900,4.564532958984375,0.004280721768736839,0.004427978303283453,-0.018150057643651962
1772614996972600600,4.5746005859375,0.0035909630823880434,0.006521755363792181,-0.017019014805555344
1772614996982667800,4.584667724609375,-0.0012853075750172138,0.006579920649528503,-0.01467772014439106
1772614996992735700,4.59473583984375,0.004917727317661047,0.003215549048036337,-0.012309371493756771
1772614997002803700,4.6048037109375,0.00456814793869853,0.0010045049712061882,-0.011661063879728317
1772614997012871000,4.614870849609375,0.01334086712449789,-0.005012907087802887,-0.008711880072951317
1772614997022938600,4.624938720703125,0.01857191137969494,-0.012111278250813484,-0.009328072890639305
1772614997033005800,4.635005859375,0.01473110169172287,-0.007610269822180271,-0.01645788922905922
1772614997043073500,4.645073486328125,0.008731639944016933,-0.007678643800318241,-0.018616801127791405
1772614997053141800,4.655141845703125,0.0027094343677163124,-0.01242066826671362,-0.018096953630447388
1772614997063208700,4.665208740234375,-0.005481956526637077,-0.010545319877564907,-0.009647447615861893
1772614997073276700,4.675276611328125,-0.008404509164392948,-0.006564958952367306,-0.002426019636914134
1772614997083344600,4.6853447265625,-0.009115681983530521,0.002601838670670986,0.0035294967237859964
1772614997093411600,4.69541162109375,-0.01124008558690548,0.006141711957752705,0.01169661246240139
1772614997103479600,4.7054794921875,-0.009611384011805058,0.0030858232639729977,0.010365347377955914
1772614997113546800,4.715546630859375,-0.004980413243174553,0.005317285656929016,0.011715303175151348
1772614997123614700,4.72561474609375,0.0014274759450927377,-0.0016081335488706827,0.005720178596675396
1772614997133682700,4.7356826171875,0.008314943872392178,-0.009904412552714348,-0.010934432037174702
1772614997143749600,4.74574951171875,0.012598847039043903,-0.010738645680248737,-0.02212947979569435
1772614997153817600,4.755817626953125,0.0056067174300551414,-0.006340435706079006,-0.031891029328107834
1772614997163884500,4.765884521484375,-0.0018816764932125807,-0.0006725774146616459,-0.02732369303703308
1772614997173952800,4.775952880859375,-0.00044383585918694735,-0.00191520806401968,-0.020054327324032784
1772614997184020700,4.786020751953125,0.004726887680590153,0.0007806897629052401,-0.011919373646378517
1772614997194087700,4.796087646484375,0.0032158098183572292,0.0031735401134938,-0.0016243918798863888
1772614997204155600,4.80615576171875,-0.0018158324528485537,0.0014895853819325566,0.0026587669271975756
1772614997214223600,4.8162236328125,-0.007213260978460312,0.006567434407770634,0.010076469741761684
1772614997224290800,4.826290771484375,-0.009933680295944214,0.006817772053182125,0.008290287107229233
1772614997234358800,4.83635888671875,-0.013568753376603127,0.0024175478611141443,0.011742418631911278
1772614997244425700,4.84642578125,-0.009476056322455406,0.005317867733538151,0.017130747437477112
1772614997254493700,4.85649365234375,-0.0029281419701874256,0.009180250577628613,0.024976685643196106
1772614997264561700,4.866561767578125,0.00959757436066866,0.008930731564760208,0.030601222068071365
1772614997274628600,4.876628662109375,0.006513633765280247,0.0052824681624770164,0.035281725227832794
1772614997284696800,4.88669677734375,0.004610006231814623,0.009493191726505756,0.03266730159521103
1772614997294764800,4.896764892578125,0.004425715189427137,0.008381322026252747,0.020776553079485893
1772614997304831700,4.906831787109375,0.006914698518812656,0.007980704307556152,0.007689902558922768
1772614997314899700,4.916899658203125,-0.0002792987506836653,0.005972414743155241,0.0052999816834926605
1772614997324966700,4.926966552734375,-0.0017262572655454278,0.002689594402909279,0.0014676323626190424
1772614997335035000,4.937034912109375,-0.0044823624193668365,0.0018006311729550362,0.006250669248402119
1772614997345102800,4.947102783203125,-0.01068715937435627,0.0006666481494903564,0.005846369545906782
1772614997355169800,4.957169677734375,-0.010201399214565754,0.005542363505810499,0.010754840448498726
1772614997365237800,4.96723779296875,-0.01086718961596489,0.0046480740420520306,0.01186484657227993
1772614997375304700,4.9773046875,-0.00915477704256773,0.003858446842059493,0.011706123128533363
1772614997385372700,4.98737255859375,-0.0037225447595119476,-0.0002600413281470537,0.01522127166390419
1772614997395441000,4.99744091796875,0.00038697884883731604,-0.0010765667539089918,0.010115992277860641
1772614997405507800,5.0075078125,0.0037564237136393785,-0.00544026680290699,0.01117861457169056
1772614997415575800,5.017575927734375,0.010991433635354042,-0.008889592252671719,0.015913980081677437
1772614997425643800,5.027643798828125,0.01068616472184658,-0.017207197844982147,0.017004340887069702
1772614997435710700,5.037710693359375,0.001542201149277389,-0.009703741408884525,0.0136572802439332
1772614997445779000,5.047779052734375,-0.010070526972413063,-0.00013436097651720047,0.014333972707390785
1772614997455846000,5.057845947265625,-0.01955217868089676,0.005018589086830616,0.006494424305856228
1772614997465913900,5.067913818359375,-0.01629829593002796,0.006673260126262903,0.0020304634235799313
1772614997475981800,5.07798193359375,-0.01235282327979803,0.00513368658721447,0.004058727063238621
1772614997486048800,5.088048828125,-0.0050785425119102,0.007452116347849369,0.004708933178335428
1772614997496116700,5.09811669921875,-0.006137681659311056,0.01046601589769125,0.009930325672030449
1772614997506184700,5.108184814453125,-0.0026003927923738956,0.00965997576713562,0.014868970960378647
1772614997516252000,5.118251953125,-0.003614258486777544,0.008199764415621758,0.015004793182015419
1772614997526319600,5.128319580078125,-0.0008860997040756047,0.0030182087793946266,0.013949396088719368
1772614997536386800,5.13838671875,-0.0005398887442424893,0.005846219602972269,0.012257224880158901
1772614997546454800,5.148454833984375,-0.0024578748270869255,0.006625086069107056,0.0070498366840183735
1772614997556522800,5.158522705078125,-0.0030352480243891478,0.0017597571713849902,0.0037866653874516487
1772614997566590000,5.16858984375,0.00004433002322912216,-0.002221925649791956,-0.00039899349212646484
1772614997576657700,5.17865771484375,0.001278172479942441,0.000725927297025919,-0.004060307517647743
1772614997586725400,5.188725341796875,-0.004782294388860464,0.005060057621449232,-0.008006898686289787
1772614997596793300,5.19879345703125,-0.0003028574865311384,-0.00020447932183742523,-0.0048569124191999435
1772614997606861300,5.208861328125,0.0017848543357104063,0.006594320759177208,-0.009553060866892338
1772614997616928300,5.21892822265625,0.0016431740950793028,-0.0022662822157144547,-0.004738598130643368
1772614997626996500,5.22899658203125,-0.008398748934268951,-0.0008689793758094311,-0.0052050016820430756
1772614997637064400,5.239064453125,-0.014533073641359806,0.0016186791472136974,-0.0005194362020120025
1772614997647131400,5.24913134765625,-0.00902869924902916,-0.005044165067374706,0.003030983731150627
1772614997657199400,5.259199462890625,-0.005751679185777903,-0.0001564652193337679,0.01101753767579794
1772614997667266300,5.269266357421875,-0.0066619012504816055,0.005980650428682566,0.013809111900627613
1772614997677334300,5.279334228515625,-0.013013008050620556,0.009024111554026604,0.016860827803611755
1772614997687402500,5.289402587890625,-0.012801929377019405,0.007249843794852495,0.018533717840909958
1772614997697469400,5.299469482421875,-0.006929392460733652,0.00834333710372448,0.009495214559137821
1772614997707537400,5.309537353515625,0.004129078239202499,0.0035938068758696318,-0.00090007483959198
1772614997717605400,5.31960546875,0.012115632183849812,-0.002552236430346966,-0.014357293955981731
1772614997727672300,5.32967236328125,0.01836860552430153,-0.011960877105593681,-0.014877413399517536
1772614997737740500,5.339740478515625,0.015549381263554096,-0.02109205722808838,-0.01099345926195383
1772614997747807500,5.349807373046875,0.0062872120179235935,-0.017640629783272743,-0.005037127994000912
1772614997757875500,5.35987548828125,-0.00035284727346152067,-0.0091667165979743,0.0069028884172439575
1772614997767943400,5.369943359375,-0.009178400970995426,-0.004520292393863201,0.02036280557513237
1772614997778010400,5.38001025390625,-0.009802645072340965,0.004578930325806141,0.03172731399536133
1772614997788078300,5.390078369140625,-0.007801272440701723,0.0018660464556887746,0.029473355039954185
1772614997798145300,5.400145263671875,-0.003822509665042162,0.004962237551808357,0.022298533469438553
1772614997808213500,5.410213623046875,-0.0014665679773315787,-0.0026897538919001818,0.01629721000790596
1772614997818281500,5.420281494140625,-0.0003546981606632471,-0.0032556757796555758,0.007172420620918274
1772614997828348400,5.430348388671875,-0.0003477740101516247,-0.001583743141964078,0.001063662115484476
1772614997838416400,5.44041650390625,-0.0037624791730195284,-0.005750791169703007,-0.0014879126101732254
1772614997848484600,5.450484619140625,-0.009805095382034779,0.00036328425630927086,0.0012096944265067577
1772614997858551600,5.460551513671875,-0.013160145841538906,0.003241362515836954,0.00515090674161911
1772614997868619500,5.47061962890625,-0.013211842626333237,0.0025715294759720564,0.005324245430529118
1772614997878686500,5.4806865234375,-0.009522565640509129,0.005867457948625088,0.012517710216343403
1772614997888754400,5.49075439453125,-0.007996457628905773,0.004173302091658115,0.01575183868408203
1772614997898822400,5.500822509765625,-0.009540557861328125,0.002928007859736681,0.017926575616002083
1772614997908889300,5.510889404296875,-0.010702656581997871,-0.0019003103952854872,0.026012159883975983
1772614997918957600,5.52095751953125,-0.017667623236775398,-0.003016440896317363,0.029457224532961845
1772614997929025500,5.531025634765625,-0.02016216702759266,0.0036003070417791605,0.031602583825588226
1772614997939092500,5.541092529296875,-0.017021769657731056,0.005755869671702385,0.02649756707251072
1772614997949160400,5.551160400390625,-0.007477204781025648,0.0012436164543032646,0.021174773573875427
1772614997959227400,5.561227294921875,-0.0008379443315789104,-0.00398816354572773,0.013586361892521381
1772614997969295600,5.571295654296875,0.0030621695332229137,-0.006508755963295698,0.006946614943444729
1772614997979363300,5.58136328125,-0.00042444106657058,-0.005737504456192255,-0.002243688330054283
1772614997989430500,5.591430419921875,-0.004717261530458927,-0.008965807966887951,-0.009658929891884327
1772614997999498200,5.601498291015625,-0.01246253214776516,-0.004034166689962149,-0.01262249518185854
1772614998009565400,5.6115654296875,-0.020275095477700233,0.005659916903823614,-0.012415082193911076
1772614998019633400,5.62163330078125,-0.02259177900850773,0.005247925873845816,-0.0005003656260669231
1772614998029701400,5.631701416015625,-0.017871413379907608,0.002168335486203432,0.005178872495889664
1772614998039768600,5.6417685546875,-0.013589316047728062,0.006551898550242186,0.013445057906210423
1772614998049836300,5.651836181640625,-0.007440311834216118,0.009467232041060925,0.013603280298411846
1772614998059904300,5.661904296875,-0.010588967241346836,0.005803254898637533,0.014732726849615574
1772614998069971200,5.67197119140625,-0.01752067543566227,-0.00028603384271264076,0.015520459972321987
1772614998080039400,5.682039306640625,-0.01680082269012928,0.007152441423386335,0.008070799522101879
1772614998090106400,5.6921064453125,-0.015800874680280685,0.012780212797224522,0.006909191142767668
1772614998100174300,5.70217431640625,-0.00444009667262435,0.0075945062562823296,0.004586915019899607
1772614998110242300,5.7122421875,0.0005550243658944964,0.006426090840250254,0.007058949209749699
1772614998120309200,5.722309326171875,-0.003407759126275778,0.019857211038470268,0.003976340405642986
1772614998130377200,5.732377197265625,-0.006972543429583311,0.017853673547506332,0.007448699325323105
1772614998140445400,5.742445556640625,-0.0011250405805185437,0.011590983718633652,0.0063043395057320595
1772614998150513400,5.752513427734375,-0.0064615532755851746,0.0015207529067993164,0.010922323912382126
1772614998160581400,5.762581298828125,-0.012037147767841816,0.006664115935564041,0.007634651847183704
1772614998170648300,5.7726484375,-0.01615809090435505,0.00995335727930069,-0.0011372382286936045
1772614998180716500,5.782716552734375,-0.01426937710493803,0.004020366817712784,0.004357395693659782
1772614998190784500,5.792784423828125,-0.013667033985257149,0.0039706239476799965,0.006099574267864227
1772614998200851500,5.8028515625,-0.0038697964046150446,0.012968113645911217,0.006457502953708172
1772614998210919400,5.81291943359375,-0.0030671150889247656,0.015316608361899853,0.0031161338556557894
1772614998220986400,5.822986328125,0.00020431203301995993,0.012457172386348248,0.007609153166413307
1772614998231054300,5.833054443359375,0.0031034559942781925,0.006604993715882301,0.005310244858264923
1772614998241122600,5.84312255859375,0.0010991607559844851,0.007959211245179176,0.0038849210832268
1772614998251189500,5.853189453125,0.0008783708326518536,0.008775580674409866,-0.0036806077696383
1772614998261257500,5.863257568359375,-0.001243902137503028,0.010337790474295616,0.002634546020999551
1772614998271325400,5.873325439453125,-0.0010597931686788797,0.012216294184327126,0.004477410577237606
1772614998281392400,5.883392333984375,-0.0031775389797985554,0.008604515343904495,0.011524667963385582
1772614998291460600,5.893460693359375,0.0003950598184019327,0.00534776458516717,0.007060379721224308
1772614998301527600,5.903527587890625,0.001112781697884202,0.003499264596030116,0.002975623356178403
1772614998311595500,5.913595458984375,-0.004432700574398041,0.0018072501989081502,-0.0003341399133205414
1772614998321663500,5.92366357421875,-0.001976467203348875,0.004665621090680361,-0.0022422948386520147
1772614998331730400,5.93373046875,0.004180846270173788,0.0034081758931279182,-0.0038325150962918997
1772614998341798400,5.94379833984375,0.005181395914405584,0.0014986892929300666,-0.0064325593411922455
1772614998351866400,5.953866455078125,-0.0021969948429614305,0.007543274667114019,-0.015735480934381485
1772614998361933600,5.96393359375,-0.010377426631748676,0.009476729668676853,-0.016380498185753822
1772614998372001500,5.97400146484375,-0.007769392803311348,0.0072548543103039265,-0.01422466803342104
1772614998382068500,5.984068359375,-0.006377092562615871,0.005845509469509125,-0.01032180618494749
1772614998392136400,5.994136474609375,-0.002633500611409545,0.00268364860676229,-0.008726592175662518
1772614998402204400,6.004204345703125,0.0019916114397346973,0.0010820236057043076,-0.0026836134493350983
1772614998412271600,6.014271728515625,0.005214485805481672,-0.005444227252155542,0.0005878536030650139
1772614998422339300,6.02433935546875,0.008318932726979256,-0.004277762956917286,0.0044313278049230576
1772614998432406500,6.034406494140625,0.010603469796478748,0.0007671609055250883,0.010086365044116974
1772614998442474200,6.04447412109375,0.0059954021126031876,0.00041429209522902966,0.009528964757919312
1772614998452542200,6.054542236328125,-0.0012088981457054615,-0.00007635331712663174,0.006246044300496578
1772614998462609400,6.064609375,-0.00759489182382822,0.010929426178336143,0.004137886688113213
1772614998472677400,6.074677490234375,-0.008857877925038338,0.01692572981119156,-0.006122993305325508
1772614998482745300,6.084745361328125,-0.01377247553318739,0.014899862930178642,-0.005898222327232361
1772614998492812300,6.094812255859375,-0.02022182196378708,0.01159591507166624,-0.0077797118574380875
1772614998502880300,6.10488037109375,-0.015579400584101677,0.01222948171198368,-0.0033391565084457397
1772614998512947200,6.114947265625,-0.008519768714904785,0.009781120344996452,-0.0038178677204996347
1772614998523015400,6.125015380859375,-0.005280565936118364,0.0019714003428816795,-0.001492395531386137
1772614998533083400,6.13508349609375,-0.00005878182128071785,0.0002309840638190508,0.004406368359923363
1772614998543150300,6.145150390625,0.0011713324347510934,-0.0032521644607186317,0.00992230698466301
1772614998553218300,6.15521826171875,-0.0009903947357088327,-0.0019113121088594198,0.01449611410498619
1772614998563286300,6.165286376953125,-0.0022474066354334354,0.0032552205957472324,0.01634860783815384
1772614998573353200,6.175353271484375,-0.005013663321733475,0.008452408015727997,0.019878597930073738
1772614998583421400,6.18542138671875,-0.0077375443652272224,0.01090970728546381,0.02254282310605049
1772614998593488600,6.195488525390625,-0.008355248719453812,0.010785456746816635,0.023132996633648872
1772614998603556600,6.205556640625,-0.0061022150330245495,0.013779381290078163,0.017073506489396095
1772614998613624600,6.21562451171875,-0.002520693000406027,0.0069347829557955265,0.01553949061781168
1772614998623691500,6.22569140625,-0.0015094908885657787,-0.002893080236390233,0.016762414947152138
1772614998633759500,6.235759521484375,0.002606502268463373,-0.011154107749462128,0.004309285432100296
1772614998643827700,6.24582763671875,0.005246760323643684,-0.009174579754471779,0.000149428378790617
1772614998653894700,6.255894775390625,0.005566739942878485,-0.012661152519285679,-0.0057100579142570496
1772614998663962600,6.265962646484375,-0.002989730564877391,-0.015156268142163754,-0.0065713245421648026
1772614998674029600,6.276029541015625,-0.0044051907025277615,-0.007973719388246536,-0.005081683397293091
1772614998684097500,6.28609765625,-0.004696007817983627,-0.0020143636502325535,-0.007185846567153931
1772614998694165800,6.296165771484375,-0.008558578789234161,0.003852944588288665,-0.007965540513396263
1772614998704232700,6.306232666015625,-0.012387405149638653,0.011488227173686028,-0.005036063026636839
1772614998714300700,6.31630078125,-0.01601416990160942,0.01392020471394062,-0.0037584793753921986
1772614998724368600,6.32636865234375,-0.01686025597155094,0.01529945619404316,-0.0018564496422186494
1772614998734435600,6.336435546875,-0.009630417451262474,0.011438602581620216,0.005561677273362875
1772614998744503600,6.346503662109375,-0.004097700119018555,0.010767485946416855,0.011727694422006607
1772614998754570800,6.35657080078125,0.001636180211789906,0.0020056748762726784,0.012633263133466244
1772614998764638700,6.366638671875,0.008652810007333755,0.001192878233268857,0.01571027934551239
1772614998774706700,6.376706787109375,0.012495500966906548,0.004972516559064388,0.016615768894553185
1772614998784773600,6.386773681640625,0.010607587173581123,0.010213617235422134,0.01288601104170084
1772614998794841600,6.396841552734375,0.004849299788475037,0.013397159986197948,0.006276844069361687
1772614998804909800,6.406909912109375,-0.0011934125795960426,0.013399823568761349,0.005478162318468094
1772614998814976800,6.416976806640625,-0.007972877472639084,0.008704978972673416,-0.004655031021684408
1772614998825044700,6.427044677734375,-0.009138809517025948,0.008954251185059547,-0.004659825004637241
1772614998835111700,6.437111572265625,-0.008583294227719307,0.0024310213048011065,-0.01180349476635456
1772614998845179600,6.4471796875,-0.010690120980143547,0.0047136167995631695,-0.01553191989660263
1772614998855247600,6.45724755859375,-0.005459985230118036,0.007236301898956299,-0.012585713528096676
1772614998865314800,6.467314697265625,-0.0024546077474951744,0.004939591512084007,-0.00785886961966753
1772614998875382800,6.4773828125,0.0005234951386228204,0.002769312122836709,-0.00025405525229871273
1772614998885449700,6.48744970703125,0.003913166467100382,0.00458558788523078,0.008221454918384552
1772614998895517700,6.497517578125,0.0022834683768451214,0.00607156241312623,0.012008626945316792
1772614998905585400,6.50758544921875,0.005419873166829348,0.00984446331858635,0.01798609271645546
1772614998915652600,6.517652587890625,0.006029651965945959,0.009310322813689709,0.021082861348986626
1772614998925720600,6.527720458984375,0.003744659945368767,0.003954439423978329,0.01863008923828602
1772614998935788500,6.53778857421875,-0.0013120400253683329,0.0009395445231348276,0.01758357509970665
1772614998945855700,6.547855712890625,-0.007926532998681068,0.0010087864939123392,0.00922471098601818
1772614998955923500,6.55792333984375,-0.005873768590390682,0.0014532682253047824,-0.0018212819704785943
1772614998965990700,6.56799072265625,-0.0058484687469899654,-0.0034362953156232834,-0.014292332343757153
1772614998976058600,6.57805859375,-0.003430851036682725,-0.004435779992491007,-0.01592245325446129
1772614998986126600,6.588126708984375,-0.0017346837557852268,-0.005546318367123604,-0.019587229937314987
1772614998996193500,6.598193603515625,0.003202966880053282,-0.006627708673477173,-0.01746600866317749
1772614999006261500,6.608261474609375,0.0022130697034299374,-0.003993309568613768,-0.01243849191814661
1772614999016329500,6.61832958984375,-0.007058813702315092,0.004562260117381811,-0.0028497285675257444
1772614999026396400,6.628396484375,-0.015756431967020035,0.009580188430845737,0.005872922483831644
1772614999036464600,6.638464599609375,-0.00853863824158907,0.005044737830758095,0.007788093760609627
1772614999046531600,6.648531494140625,-0.000029039569199085236,0.004633545409888029,0.0018878609407693148
1772614999056599600,6.658599609375,0.00706262793391943,0.0005219490267336369,-0.00037588574923574924
1772614999066667500,6.66866748046875,0.0045837583020329475,-0.005617169663310051,-0.005529102403670549
1772614999076734500,6.678734375,-0.0009805482113733888,-0.0030147379729896784,-0.00517866387963295
1772614999086802700,6.688802734375,-0.00525678601115942,0.0029755104333162308,0.0007900125347077847
1772614999096870700,6.69887060546875,-0.008058384992182255,0.010310515761375427,0.012238990515470505
1772614999106937600,6.7089375,-0.005515865050256252,0.013779282569885254,0.024338532239198685
1772614999117005600,6.719005615234375,-0.0014444433618336916,0.01342165470123291,0.028932582587003708
1772614999127072500,6.729072509765625,0.006294170394539833,0.0027519657742232084,0.026449983939528465
1772614999137140500,6.739140380859375,0.007156196050345898,0.0002112614456564188,0.016748180612921715
1772614999147208700,6.749208740234375,0.006442735902965069,-0.0035573774948716164,0.0034603390377014875
1772614999157275600,6.759275634765625,0.0014568873448297381,0.0020458707585930824,-0.0031508253887295723
1772614999167343600,6.769343505859375,0.003093400038778782,0.0005025689024478197,-0.001820842968299985
1772614999177411600,6.77941162109375,0.007161087356507778,-0.001711210235953331,0.00014761276543140411
1772614999187478500,6.789478515625,0.005393547005951405,-0.002765289042145014,-0.0023389807902276516
1772614999197546800,6.799546630859375,0.012754580937325954,0.004170588683336973,-0.0005704568466171622
1772614999207613700,6.80961376953125,0.01510109193623066,-0.004512381739914417,0.00891465786844492
1772614999217681700,6.819681640625,0.008576503954827785,-0.007050253916531801,0.006638342514634132
1772614999227749600,6.82974951171875,0.01411028578877449,-0.002375873737037182,-0.009960075840353966
1772614999237816600,6.839816650390625,0.0020429850555956364,-0.004760312382131815,-0.011036770418286324
1772614999247884500,6.849884521484375,-0.02028096280992031,-0.014315733686089516,-0.0027029404882341623
1772614999257952800,6.859952880859375,-0.015022355131804943,-0.01614587940275669,0.013706987723708153
1772614999268019700,6.870019775390625,-0.002096170326694846,0.011370434425771236,0.03153764829039574
1772614999278087700,6.880087646484375,-0.0014449029695242643,0.009855969808995724,0.03689110651612282
1772614999288154600,6.890154541015625,-0.009927337057888508,0.006893203128129244,0.04832112789154053
1772614999298222600,6.90022265625,-0.005234881769865751,0.0005993819795548916,0.04549016058444977
1772614999308290800,6.910290771484375,-0.004573618993163109,-0.006716588046401739,0.03154558315873146
1772614999318357800,6.920357666015625,-0.008174427784979343,-0.00451608095318079,0.020165294408798218
1772614999328425700,6.93042578125,-0.005437763407826424,-0.00422819284722209,0.005207915790379047
1772614999338493700,6.94049365234375,-0.0035069328732788563,-0.00401588948443532,-0.0038839438930153847
1772614999348560600,6.950560546875,-0.0050544957630336285,-0.0016025332733988762,-0.010374067351222038
1772614999358628600,6.960628662109375,-0.010369428433477879,0.0035249097272753716,-0.012602662667632103
1772614999368695800,6.97069580078125,-0.01500705722719431,0.005504969973117113,-0.01006120815873146
1772614999378763800,6.980763671875,-0.01863289438188076,0.003501603612676263,-0.005999169312417507
1772614999388831500,6.99083154296875,-0.01977059803903103,0.0012461724691092968,-0.0016968329437077045
1772614999398898700,7.000898681640625,-0.01935267634689808,-0.002869189251214266,0.0014927692245692015
1772614999408966700,7.010966552734375,-0.01899448223412037,-0.0023533352650702,0.0065383948385715485
1772614999419033600,7.02103369140625,-0.013313991948962212,-0.002715496579185128,0.011908364482223988
1772614999429101800,7.031101806640625,-0.005018510855734348,-0.0025945890229195356,0.0216443482786417
1772614999439169500,7.04116943359375,0.00307827303186059,-0.0037287224549800158,0.025982484221458435
1772614999449236700,7.05123681640625,0.007441862486302853,0.00019730976782739162,0.027975860983133316
1772614999459304400,7.061304443359375,0.007026026025414467,0.00012685428373515606,0.018749887123703957
1772614999469372400,7.071372314453125,0.004799090325832367,0.002528759418055415,0.01254099328070879
1772614999479439600,7.081439697265625,-0.004018188454210758,-0.0008602894376963377,0.0022346044424921274
1772614999489507600,7.091507568359375,-0.007363118696957827,0.001340813236311078,-0.0023766588419675827
1772614999499574800,7.10157470703125,-0.008248008787631989,0.00046286708675324917,-0.004973694682121277
1772614999509642500,7.111642578125,-0.007621101103723049,0.0004466217942535877,-0.0005973221268504858
1772614999519710500,7.12171044921875,-0.005062647629529238,0.0009397126268595457,0.0013320879079401493
1772614999529777400,7.13177734375,0.00029829575214535,0.0010739360004663467,-0.0008413179311901331
1772614999539845600,7.141845703125,0.002245671348646283,0.00044225528836250305,0.0036135513801127672
1772614999549913600,7.15191357421875,0.005098715424537659,-0.005541867110878229,0.0024284448008984327
1772614999559980500,7.16198046875,0.008691709488630295,-0.0012744602281600237,0.004198779817670584
1772614999570048500,7.172048583984375,0.013524547219276428,-0.0029333431739360094,0.011366144753992558
1772614999580115500,7.182115478515625,0.013712638057768345,0.001535994466394186,0.014367463067173958
1772614999590182700,7.1921826171875,0.011529644951224327,0.003532033646479249,0.015486257150769234
1772614999600250600,7.202250732421875,0.0032942090183496475,0.008146718144416809,0.01250337902456522
1772614999610317800,7.21231787109375,-0.0028893849812448025,0.008730215951800346,0.011616280302405357
1772614999620385800,7.2223857421875,-0.001946444041095674,0.005970739759504795,0.009000299498438835
1772614999630453800,7.232453857421875,-0.003974974155426025,-0.0007811728864908218,-0.0007612506160512567
1772614999640520700,7.242520751953125,-0.0023078015074133873,-0.005293661262840033,-0.007496091537177563
1772614999650588700,7.252588623046875,0.00015029613859951496,-0.0034121377393603325,-0.008724074810743332
1772614999660655600,7.262655517578125,0.008706355467438698,-0.000693358713760972,-0.011272854171693325
1772614999670723600,7.2727236328125,0.015090219676494598,-0.0049187298864126205,-0.001908381236717105
1772614999680791800,7.282791748046875,0.015535149723291397,-0.007193511351943016,0.0089243333786726
1772614999690858800,7.292858642578125,0.011861319653689861,-0.004975098185241222,0.015876781195402145
1772614999700926700,7.3029267578125,0.008996552787721157,-0.0011870937887579203,0.018463628366589546
1772614999710994700,7.31299462890625,0.007720897905528545,0.002687805565074086,0.004608534276485443
1772614999721061600,7.3230615234375,0.006515100598335266,0.0019785137847065926,-0.015623806044459343
1772614999731129900,7.3331298828125,0.015818322077393532,-0.0010319235734641552,-0.029638957232236862
1772614999741196800,7.34319677734375,0.01960199885070324,-0.001489762682467699,-0.029342150315642357
1772614999751264800,7.3532646484375,0.021369272843003273,-0.0028029675595462322,-0.023271474987268448
1772614999761332700,7.363332763671875,0.019486606121063232,-0.00269387592561543,-0.010198363102972507
1772614999771399700,7.373399658203125,0.014612753875553608,0.0009903411846607924,0.001592250308021903
1772614999781467600,7.383467529296875,0.006320767570286989,0.004717140458524227,0.006161464378237724
1772614999791535900,7.393535888671875,-0.00026975665241479874,0.0064766909927129745,0.009114110842347145
1772614999801602800,7.403602783203125,-0.0042461222037673,0.007964332588016987,0.011785527691245079
1772614999811670800,7.4136708984375,-0.010549413971602917,0.005268457345664501,0.011764354072511196
1772614999821737700,7.42373779296875,-0.010546129196882248,0.00946878083050251,0.013414554297924042
1772614999831805700,7.4338056640625,-0.002800324931740761,0.013200668618083,0.014349590055644512
1772614999841874000,7.4438740234375,0.002259469125419855,0.011141451075673103,0.019305124878883362
1772614999851940900,7.45394091796875,0.008881684392690659,0.002670202637091279,0.0169447660446167
1772614999862008800,7.4640087890625,0.009851805865764618,0.003893905319273472,0.008965729735791683
1772614999872076800,7.474076904296875,0.008228608407080173,0.0055983285419642925,-0.0063959164544939995
1772614999882143700,7.484143798828125,-0.000751132785808295,0.0010475290473550558,-0.01862790808081627
1772614999892211700,7.494211669921875,-0.005652414634823799,-0.0014601033180952072,-0.020602375268936157
1772614999902279000,7.50427880859375,-0.006104025989770889,0.0011270244140177965,-0.023987876251339912
1772614999912347000,7.514346923828125,-0.006816421635448933,0.0034088208340108395,-0.015781346708536148
1772614999922414800,7.524414794921875,-0.003037527436390519,0.001117816660553217,-0.003675260581076145
1772614999932481800,7.534481689453125,0.0010629416210576892,0.0008573594968765974,0.004514225758612156
1772614999942549800,7.5445498046875,0.003983772359788418,-0.0034760956186801195,0.014324117451906204
1772614999952618000,7.554617919921875,0.00143273058347404,-0.004220449365675449,0.010904086753726006
1772614999962685000,7.564684814453125,-0.0015752249164506793,-0.009692003019154072,0.003997666761279106
1772614999972753000,7.5747529296875,-0.00006894103717058897,-0.013612975366413593,-0.001810687710531056
1772614999982819800,7.58481982421875,0.009869386442005634,-0.017889229580760002,-0.008313402533531189
1772614999992887800,7.5948876953125,0.016227683052420616,-0.019820287823677063,-0.013240782544016838
1772615000002955800,7.604955810546875,0.01950147934257984,-0.01929180882871151,-0.014478235505521297
1772615000013023000,7.61502294921875,0.021397383883595467,-0.0163495484739542,-0.0018042516894638538
1772615000023091000,7.625091064453125,0.01904931478202343,-0.013896729797124863,-0.0007750337244942784
1772615000033158700,7.63515869140625,0.0180924404412508,-0.012115340679883957,-0.0010197781957685947
1772615000043225900,7.645225830078125,0.006381449289619923,-0.011522598564624786,-0.003220759332180023
1772615000053293800,7.6552939453125,-0.0017875309567898512,-0.005356315523386002,-0.008414988406002522
1772615000063360800,7.66536083984375,-0.0053505790419876575,-0.00968935526907444,-0.013468749821186066
1772615000073429000,7.675428955078125,-0.0038099405355751514,-0.014927792362868786,-0.013364619575440884
1772615000083496700,7.68549658203125,-0.0028359009884297848,-0.004614744335412979,0.0031463121995329857
1772615000093564000,7.69556396484375,-0.006422379985451698,-0.009756242856383324,0.008137076161801815
1772615000103631600,7.705631591796875,-0.005781545769423246,-0.022566216066479683,0.003991679288446903
1772615000113699600,7.715699462890625,-0.00452266912907362,-0.022275932133197784,0.00496346689760685
1772615000123766800,7.725766845703125,-0.0019851704128086567,-0.022087063640356064,0.0031271236948668957
1772615000133834800,7.735834716796875,-0.0068430425599217415,-0.026845600455999374,0.006555943749845028
1772615000143902000,7.74590185546875,-0.012325763702392578,-0.02380269393324852,0.00997603964060545
1772615000153969700,7.7559697265625,-0.00926445983350277,-0.02482002228498459,0.006120581179857254
1772615000164037600,7.76603759765625,-0.00948554091155529,-0.02464962750673294,-0.0011968929320573807
1772615000174104600,7.7761044921875,-0.008683397434651852,-0.028578056022524834,-0.0018648137338459492
1772615000184172800,7.7861728515625,-0.008285488933324814,-0.036611512303352356,0.02391940727829933
1772615000194240800,7.79624072265625,0.000962338293902576,-0.039552707225084305,0.006489817518740892
1772615000204307700,7.8063076171875,0.0030664377845823765,-0.009837362915277481,-0.01679825223982334
1772615000214375700,7.816375732421875,0.0007777170976623893,-0.017573311924934387,-0.029836289584636688
1772615000224442600,7.826442626953125,-0.005609732586890459,-0.026055440306663513,-0.03216854855418205
1772615000234510800,7.8365107421875,-0.007251571398228407,-0.025822944939136505,-0.036349713802337646
1772615000244578800,7.846578857421875,-0.005802052095532417,-0.012875240296125412,-0.03256100416183472
1772615000254645800,7.856645751953125,-0.0080454982817173,-0.017507541924715042,-0.014611566439270973
1772615000264713700,7.866713623046875,-0.008594803512096405,-0.02044687792658806,0.016685862094163895
1772615000274781700,7.87678173828125,0.0009262639796361327,-0.016018575057387352,0.043034378439188004
1772615000284848600,7.8868486328125,0.009345930069684982,-0.012994379736483097,0.05537090077996254
1772615000294916900,7.896916748046875,0.011401091702282429,-0.01010085642337799,0.056233230978250504
1772615000304983800,7.90698388671875,0.012069767341017723,-0.006025812588632107,0.04398210719227791
1772615000315051800,7.9170517578125,0.0056108031421899796,-0.0014465076383203268,0.022552713751792908
1772615000325119700,7.92711962890625,0.0025651841424405575,-0.002533504506573081,0.0060103414580225945
