time,seconds_elapsed,z,y,x
1772615911757368000,0.0693681640625,-0.4206698826134205,-0.044487376502156256,-0.6837864199064672
1772615911767436000,0.07943603515625,-0.6192571029812097,-0.07527589799761772,-1.0945923495009542
1772615911777504000,0.08950390625,-0.6574193681150674,0.07348316936194896,-1.3899490684024989
1772615911787572000,0.099572021484375,-0.6116600719809532,0.14624328514635562,-1.6509831003330646
1772615911797640200,0.10964013671875,-0.29472996530532836,0.3597679624050855,-1.721867777634412
1772615911807708000,0.1197080078125,0.050475803261995314,0.6971253555595874,-1.5559680442512034
1772615911817775900,0.12977587890625,0.2928378679484129,0.9255307910859584,-1.3137857200458645
1772615911827843800,0.13984375,0.5443985536128282,0.9362544296741485,-1.0262053342342377
1772615911837912000,0.149912109375,0.7072545353859663,0.8835445837497711,-0.6714362030297517
1772615911847980000,0.15997998046875,0.5699474208891392,0.6301753873586654,-0.38745895627662535
1772615911858048000,0.170048095703125,0.5150649071007967,0.4323147276997566,-0.23819544652625918
1772615911868116000,0.180115966796875,0.6942109294176101,0.44749593021869655,-0.06437295731976628
1772615911878184200,0.19018408203125,0.95865038587749,0.3786263921320438,0.12826879864707588
1772615911888252000,0.200251953125,1.3778434739366172,0.17827917635440826,0.12772899268195032
1772615911898321000,0.21032080078125,1.569904215145111,-0.055199909174442285,-0.019209873513132334
1772615911908389000,0.22038916015625,1.5137664405986666,-0.21256547683775423,-0.15654044195078312
1772615911918457000,0.23045703125,1.6067407846331596,-0.2345481760650873,-0.09865158595331013
1772615911928525000,0.240525146484375,1.683229565551877,-0.10358896929025649,0.11981719664409755
1772615911938593000,0.250593017578125,1.5839128667533398,0.13756722673773764,0.3844965262744576
1772615911948661000,0.260660888671875,1.4550339733839035,0.27202128989100455,0.8468053371563553
1772615911958729000,0.27072900390625,1.2949252444922923,0.3242114958554506,1.2594786680579184
1772615911968797000,0.280796875,1.1559352914750576,0.29366145929098125,1.2743489049315453
1772615911978865000,0.290864990234375,0.9465399691060185,0.13616788133382796,1.0811355596218257
1772615911988933000,0.30093310546875,0.9352826620325445,-0.0511561867415905,0.6406597372982651
1772615911999001000,0.3110009765625,0.88452570374161,-0.09681669867634772,0.44268224632665515
1772615912009069000,0.321069091796875,0.7925131904765963,-0.2639829448640346,0.3184252406042069
1772615912019137000,0.331136962890625,0.7739853078782558,-0.3889882116705179,0.11124971317648887
1772615912029205000,0.341205078125,0.5243105820909142,-0.14538403796851634,0.11207819988988339
1772615912039273000,0.35127294921875,0.33309242918640375,-0.18411738098859787,0.13106200956217945
1772615912049341000,0.3613408203125,0.38716625694036483,-0.25430501593649385,0.16920739662647247
1772615912059409000,0.371408935546875,0.4027180463373661,-0.2806231140196323,0.5393257073279469
1772615912069477000,0.38147705078125,0.424906205008924,-0.4321761960119009,1.0213182197798043
1772615912079545000,0.391545166015625,0.5655044700056314,-0.5357195725947618,1.2291679932072759
1772615912089613000,0.401613037109375,0.631455490297079,-0.4903904845714569,1.2981890685938298
1772615912099681000,0.411680908203125,0.5789788686066866,-0.5217296256870031,1.3095663487851619
1772615912109749000,0.4217490234375,0.46149990565180776,-0.5441483782440424,1.2177740541420876
1772615912119818000,0.43181787109375,0.2920899721905589,-0.526537902751565,1.0062591092705726
1772615912129886000,0.441885986328125,0.19153905542194843,-0.5881424182713031,0.7139043486639857
1772615912139954200,0.4519541015625,0.11357172638326883,-0.5624146872967482,0.4667523462872952
1772615912150022100,0.462022216796875,-0.009959083956480026,-0.4347416625857353,0.30230975290983914
1772615912160089900,0.47208984375,-0.10663608190119266,-0.4248550593435764,0.2341553042899817
1772615912170157800,0.48215771484375,-0.25251637895405293,-0.531586418312788,0.38699769544042645
1772615912180226000,0.49222607421875,-0.3123804805472493,-0.6160743812918663,0.6175855895724147
1772615912190294000,0.5022939453125,-0.23446517395675182,-0.5746972457647324,0.706798023790121
1772615912200362000,0.512362060546875,-0.212353295391798,-0.3814999017417431,0.7792496581472456
1772615912210430000,0.522429931640625,-0.301571501763165,-0.23555706084668634,0.8968814005110413
1772615912220498200,0.532498291015625,-0.399588808400929,-0.15423720650970935,1.0250723116163163
1772615912230566100,0.542566162109375,-0.4414478822261095,-0.05452303282618522,1.0063828087154776
1772615912240633900,0.5526337890625,-0.5548819537043571,0.05727145475149154,0.9221456056270748
1772615912250701800,0.562701904296875,-0.7012859823703765,0.12671440881192683,0.8448200085580349
1772615912260770000,0.57277001953125,-0.6437766272097826,0.18485387856960295,0.7866225250028074
1772615912270838000,0.582838134765625,-0.4504223390594125,0.2983317891895771,0.7452125831846147
1772615912280906000,0.592906005859375,-0.2719412103921175,0.47950493341982364,0.6983882881674915
1772615912290974000,0.602973876953125,-0.17581833919882772,0.6384989790678024,0.6663759239654987
1772615912301042200,0.613042236328125,-0.18382015160769222,0.8720031990379095,0.6449132300242781
1772615912311110100,0.623110107421875,-0.2541682378143072,1.1151666432350873,0.6363981343310326
1772615912321177900,0.633177734375,-0.15825725580602884,1.2517805147707461,0.6452342786721885
1772615912331245800,0.643245849609375,-0.009212357242405414,1.2901087841212748,0.6765809455070644
1772615912341315000,0.653315185546875,0.1589490374624729,1.2631500500470398,0.7760603605866432
1772615912351383000,0.663383056640625,0.3468167108952999,1.097045295611024,0.9713575994983314
1772615912361451000,0.673450927734375,0.4727092819303274,0.8680752119392157,1.1608115192092954
1772615912371519000,0.68351904296875,0.4425371387675404,0.7106710658311843,1.285959701617807
1772615912381587000,0.6935869140625,0.46665568097978827,0.5180307711690664,1.3676836067110298
1772615912391655000,0.703655029296875,0.5567047852173447,0.21271336087584494,1.434252028248459
1772615912401723000,0.713722900390625,0.6141361067056655,-0.1462748493283987,1.4370133096553384
1772615912411791000,0.723791015625,0.60014031457901,-0.49453416024744506,1.2812186445705591
1772615912421859000,0.733859130859375,0.45841596816182134,-0.7989186736047268,1.036501760386303
1772615912431927000,0.743927001953125,0.1794926437973976,-1.1071937646597623,0.6613385143201798
1772615912441995000,0.7539951171875,-0.08209317679703235,-1.2184826408028602,0.22533085038661954
1772615912452063000,0.76406298828125,-0.34025574494451283,-1.2135475224882364,-0.1268261255580932
1772615912462131000,0.774130859375,-0.4957195706397295,-1.2136883922636508,-0.35205388089641926
1772615912472199000,0.784198974609375,-0.5901537580937147,-1.1319593726038932,-0.5123875045850873
1772615912482267000,0.794266845703125,-0.6003945816010237,-0.9647463646650314,-0.6144353088479488
1772615912492335000,0.804335205078125,-0.527597056415677,-0.7204442718267441,-0.4303232616215944
1772615912502403000,0.814403076171875,-0.4068509083583951,-0.4895347445249557,-0.04979549284763634
1772615912512471000,0.824470947265625,-0.15025515113621948,-0.32846155451536174,0.367977353150025
1772615912522539000,0.8345390625,0.19912001207023858,-0.21785423089563846,0.7138461156707256
1772615912532607000,0.84460693359375,0.45478491818308825,-0.10074585481882095,0.9785601512882858
1772615912542675000,0.854675048828125,0.34858927352577446,0.012397124758362769,1.3153750350639224
1772615912552743000,0.864742919921875,0.039380408751964566,-0.058246437263488764,1.5409899630889297
1772615912562812200,0.874812255859375,-0.1380798524349928,-0.13747662584483622,1.5464713171094655
1772615912572880100,0.884880126953125,-0.2029173585265875,-0.17285948939323426,1.3855125472597778
1772615912582948000,0.894947998046875,-0.1346396488532424,-0.19371289232969283,1.1099006855309008
1772615912593015800,0.905015869140625,0.018852292247116563,-0.20052257234454154,0.7999768774207681
1772615912603084000,0.915083984375,0.15490473050773143,-0.061330959275364874,0.576795971609652
1772615912613152000,0.925152099609375,0.14773673857450484,0.10638649105429648,0.577536232050322
1772615912623220000,0.935219970703125,0.09648761285245418,0.1801554916203022,0.8347295533068477
1772615912633288000,0.945287841796875,-0.007354454416036605,0.2031990980774164,1.1822067739374935
1772615912643356200,0.955356201171875,-0.003741524615883827,0.2713736396372318,1.4062301949873566
1772615912653424000,0.965424072265625,0.01290858141183853,0.3314087138831615,1.5556418810367583
1772615912663491800,0.975491943359375,0.008505670277774333,0.39844051514863965,1.567920493981987
1772615912673559800,0.985559814453125,-0.023790040910243986,0.4191331745654344,1.4462541623398661
1772615912683628000,0.9956279296875,-0.08185381508320569,0.36982407699525355,1.3397716635651886
1772615912693696000,1.005696044921875,-0.10041618447303771,0.30383155564963815,1.3426182851679622
1772615912703764000,1.015763916015625,-0.08701134397685527,0.22061375873684883,1.3810776335522532
1772615912713832000,1.02583203125,-0.11708557972311973,0.11879296816289424,1.35606448058784
1772615912723900200,1.035900146484375,-0.2353974863708019,0.00348608855009079,1.205616437228024
1772615912733968100,1.045968017578125,-0.3854425018876791,-0.05067278713881969,1.0031575630586593
1772615912744035800,1.056035888671875,-0.4235214726522565,-0.15020692808032035,0.8344098198331892
1772615912754103800,1.066103759765625,-0.3898077113598585,-0.2990057429283857,0.6890764891386032
1772615912764171800,1.076171875,-0.3489142676964402,-0.40786593061983584,0.5418010844655334
1772615912774241000,1.086240966796875,-0.29680969418883324,-0.41234278377294536,0.3981971348468214
1772615912784309000,1.09630908203125,-0.26356033553779123,-0.37330490484833717,0.29221542520113286
1772615912794377000,1.106376953125,-0.2733057767435908,-0.3582505435794592,0.20799491751920432
1772615912804444700,1.116444580078125,-0.31592911293953657,-0.30534254473447797,0.1471714328419417
1772615912814513000,1.126512939453125,-0.2450976271301508,-0.17404665335118769,0.143809445595555
1772615912824580900,1.136580810546875,-0.1356739603370428,-0.09923837286531925,0.2547884703381918
1772615912834648800,1.14664892578125,-0.03981646208167076,-0.08130991746485233,0.39584684539362786
1772615912844716800,1.156716796875,0.05667933407723903,-0.020693243938684464,0.4897473278297111
1772615912854785000,1.166784912109375,0.11131225701868533,-0.0194411980509758,0.49924584506973624
1772615912864853000,1.17685302734375,0.18518997865617273,-0.016692191603779792,0.434605688181147
1772615912874921000,1.1869208984375,0.3332932124555111,0.08017243786752223,0.37610392444971946
1772615912884988700,1.19698876953125,0.4242681993663311,0.13426935423612593,0.356332215802744
1772615912895057000,1.207056884765625,0.370503875952959,0.0979465794891119,0.36942711356692015
1772615912905124900,1.217124755859375,0.3103124421015382,0.05492284579873085,0.3938556715764105
1772615912915192800,1.22719287109375,0.3641267421364784,-0.05426233606338501,0.5023882347486913
1772615912925260800,1.2372607421875,0.44055502503961325,-0.19213234513998032,0.6216170370455831
1772615912935329000,1.2473291015625,0.48402884058505297,-0.25328268715143204,0.6170202107746153
1772615912945397000,1.25739697265625,0.40562896534800524,-0.30912615492641926,0.45641734169051046
1772615912955465000,1.26746484375,0.2633475695699453,-0.39614392864406106,0.2840490698803216
1772615912965532700,1.27753271484375,0.14112228887081146,-0.4563964450329542,0.09880610066158696
1772615912975601000,1.287600830078125,0.03090454909056425,-0.47286885640621185,-0.11790926239723339
1772615912985670000,1.297669921875,-0.05452361734807491,-0.47544250628650186,-0.31957945214062927
1772615912995737900,1.30773779296875,-0.16123451805114744,-0.41897476913332937,-0.5091588248621672
1772615913005806000,1.31780615234375,-0.24450462967306374,-0.32922084845006466,-0.5347923016820103
1772615913015873800,1.327873779296875,-0.34559710597246884,-0.2909767502516508,-0.38171931664608416
1772615913025941800,1.337941650390625,-0.5090124751940369,-0.2576964119404554,-0.20023085938896984
1772615913036009700,1.348009765625,-0.6635171004682779,-0.20365385610759257,-0.06392501262286678
1772615913046078000,1.358077880859375,-0.7697615527033805,-0.22981939397752282,0.019105792084150017
1772615913056146000,1.36814599609375,-0.8820636975422501,-0.27934944082200525,-0.018225264656264333
1772615913066214000,1.3782138671875,-0.9963853655099868,-0.24860534299015996,-0.21769421802833674
1772615913076281900,1.38828173828125,-1.0978823309570551,-0.17653847016692162,-0.4880987934377044
1772615913086350000,1.39835009765625,-1.0918921506315469,-0.10995558171272277,-0.712205581922084
1772615913096417800,1.408417724609375,-0.9620078796118497,0.005092354702949524,-0.8343146888956428
1772615913106485800,1.41848583984375,-0.7370552148878574,0.2159913596332073,-0.8623063462141901
1772615913116553700,1.4285537109375,-0.4747825810730457,0.3997843309730291,-0.8242269370581954
1772615913126622000,1.4386220703125,-0.2341127072572708,0.5759557213932276,-0.8700072759803384
1772615913136690000,1.44868994140625,0.048129532396793365,0.8365718201726674,-0.8900150218728929
1772615913146758000,1.4587578125,0.33491993687450883,1.0564695395946502,-0.7092934938676655
1772615913156825900,1.468825927734375,0.5916445811733603,1.1251929472088813,-0.33593415541835125
1772615913166894000,1.47889404296875,0.7962935857981442,1.1326865178346632,0.017901496611593754
1772615913176961800,1.4889619140625,0.9602709728166461,1.0870476332098244,0.26520198353128505
1772615913187029800,1.49902978515625,1.0635723573371767,0.994367011424899,0.3869035874161869
1772615913197097700,1.50909765625,1.1151181279182434,0.880801422521472,0.31602146739810705
1772615913207167000,1.5191669921875,1.107791146031022,0.7214250995576381,0.19996124866735188
1772615913217235000,1.52923486328125,1.034255954220891,0.5764718542218208,0.12458455717638134
1772615913227303000,1.539302978515625,0.8556848091825843,0.39519466509521006,0.026434728466439992
1772615913237371000,1.549370849609375,0.6378434377685189,0.23787819727063178,-0.037040448896540325
1772615913247438800,1.55943896484375,0.3884922448471188,0.0738818132907152,-0.07749979372532106
1772615913257506800,1.5695068359375,0.06621376288086175,-0.09538286648094653,-0.12506839517056942
1772615913267574800,1.57957470703125,-0.31933366068601604,-0.245554138725996,-0.2328503957038745
1772615913277643000,1.58964306640625,-0.6881359934180975,-0.3538414949655533,-0.4170527880948037
1772615913287711000,1.5997109375,-1.040337612222135,-0.4405892195701599,-0.6970603274993598
1772615913297779000,1.609779052734375,-1.324710141903162,-0.38305180735886096,-0.9835161662604659
1772615913307847000,1.619846923828125,-1.4699483416602015,-0.23665420843362805,-1.1526878339864313
1772615913317915000,1.629914794921875,-1.4681237565815448,-0.06236147136688232,-1.158882670038566
1772615913327982800,1.63998291015625,-1.3024983100950718,0.10700433069169521,-0.9430073380004614
1772615913338050800,1.65005078125,-0.9852923090875149,0.3209825969368219,-0.5765646470718085
1772615913348118800,1.660118896484375,-0.5939210016727448,0.49892333511710163,-0.06485919733359478
1772615913358187000,1.67018701171875,-0.14005524416118859,0.6236866098612547,0.43260757316648957
1772615913368255000,1.6802548828125,0.27083208010643717,0.6764607531934976,0.7727788546979427
1772615913378323000,1.690322998046875,0.5809864090368151,0.6625579000473022,0.9227611802421509
1772615913388390700,1.700390625,0.7340203772366046,0.579863834747672,0.8132634983647614
1772615913398459000,1.710458984375,0.8515063544541597,0.5111398426115512,0.6124233479710296
1772615913408526800,1.72052685546875,0.9053232848376035,0.45166532485783095,0.4708453512219712
1772615913418595800,1.730595947265625,0.8863593489095568,0.3779278884738683,0.4056158136054873
1772615913428664000,1.7406640625,0.8975772007554769,0.35070495050549505,0.38767340274490414
1772615913438732000,1.75073193359375,0.8581652278214693,0.33160745132565494,0.32917222353536635
1772615913448799700,1.7607998046875,0.7857756989151239,0.2995832505553961,0.27081987821199
1772615913458867700,1.77086767578125,0.6982803708136082,0.2108329539567232,0.174290746039059
1772615913468936000,1.78093603515625,0.6234761819809674,0.08405483225882053,0.06059827935295179
1772615913479004000,1.79100390625,0.5610252787649631,-0.018704115948081017,0.018284739758539944
1772615913489071900,1.80107177734375,0.4575280794113874,-0.11862287229299545,-0.019949659029766916
1772615913499139800,1.811139892578125,0.38017391383498905,-0.21450316690206525,-0.045460367986466736
1772615913509208000,1.8212080078125,0.4075558417573571,-0.266781635671854,-0.01989272294444963
1772615913519275800,1.83127587890625,0.4647814115405082,-0.32366555241048334,0.014666110869962721
1772615913529343700,1.84134375,0.5093576353698969,-0.40725978142023084,0.04400479888329282
1772615913539411700,1.85141162109375,0.4318035633072257,-0.47410921185612676,-0.04158734421171248
1772615913549480000,1.86147998046875,0.3276929082304239,-0.5038794962197541,-0.0847010394741781
1772615913559548000,1.8715478515625,0.31160657356530425,-0.5521937375336885,-0.038130445223487915
1772615913569616000,1.881615966796875,0.3689724286019802,-0.5491203214377165,-0.00020019874721765516
1772615913579683800,1.891683837890625,0.4555190776765346,-0.5375345130622387,-0.00035381840635091065
1772615913589752000,1.901751953125,0.479162988114357,-0.5443500382959843,-0.08924231789931654
1772615913599819800,1.91181982421875,0.47226562981605524,-0.5889473049134015,-0.2920934062566608
1772615913609887700,1.9218876953125,0.4963111067920923,-0.5867454109549523,-0.5133448053099214
1772615913619955700,1.931955810546875,0.5443737114325166,-0.5161942033916711,-0.5272561340235173
1772615913630024000,1.94202392578125,0.6191361069500446,-0.4561304875731468,-0.33132034147996453
1772615913640093000,1.952093017578125,0.7223790392816066,-0.3723240771174431,-0.05625997615400701
1772615913650161000,1.962160888671875,0.8055565041840076,-0.303121361553669,0.2143134347499348
1772615913660228900,1.972228759765625,0.8220634023487567,-0.2459983753621578,0.3755567023631185
1772615913670296800,1.982296875,0.8087205211728811,-0.23651684578955173,0.41421120799332856
1772615913680364800,1.99236474609375,0.7349974055752158,-0.3062900547176599,0.29928366482062263
1772615913690432800,2.002432861328125,0.6507426668301224,-0.40090252134799953,0.14951288140155375
1772615913700501000,2.0125009765625,0.5773267174854875,-0.505742952004075,0.00582855088985525
1772615913710569000,2.02256884765625,0.5602607241332531,-0.6068342592597007,-0.06609737909273244
1772615913720637000,2.032636962890625,0.6368439053371548,-0.645200522533059,-0.012840094169334041
1772615913730705000,2.042704833984375,0.7533662982195616,-0.698569709149003,0.1409705780409742
1772615913740772900,2.05277294921875,0.8130395534157753,-0.740584558057785,0.33407263586279
1772615913750840800,2.0628408203125,0.8006406750917434,-0.812514068236947,0.43529947913158684
1772615913760909800,2.072909912109375,0.7290028413355351,-0.8879980560272932,0.5257610731601715
1772615913770978000,2.08297802734375,0.5795894017204642,-1.0434177503198385,0.5851509813703596
1772615913781046000,2.0930458984375,0.31769232321977614,-1.1434142480760812,0.47891763505116103
1772615913791113700,2.10311376953125,-0.025521979269385337,-1.1216092435032128,0.16924564627762884
1772615913801181700,2.113181640625,-0.30236849735975263,-0.9833996272087097,-0.28324365351526065
1772615913811250000,2.12325,-0.4602466907203197,-0.7540677244871854,-0.6630397652801125
1772615913821318000,2.13331787109375,-0.5105839622944593,-0.5163035089850425,-0.8657101633083075
1772615913831385900,2.1433857421875,-0.43697395168244835,-0.2655775205790996,-0.821976162456721
1772615913841453800,2.153453857421875,-0.29779958200901746,-0.04060030593574047,-0.6224822755727917
1772615913851522800,2.163522705078125,-0.12103694769740105,0.17949498188495636,-0.39749490486159916
1772615913861590800,2.1735908203125,0.08753770593851805,0.360749959179759,-0.2147061969271861
1772615913871658800,2.18365869140625,0.26925153291672466,0.47067456123232837,0.0038128454195801168
1772615913881726700,2.193726806640625,0.39201632732003927,0.5102975465685129,0.17455343382954597
1772615913891795000,2.203794921875,0.3706123047634959,0.47821197099983687,0.2044341745640151
1772615913901863000,2.21386279296875,0.3203261788547039,0.4794289455741644,0.040055348871462046
1772615913911931000,2.223930908203125,0.3343275239393115,0.5044330384492873,-0.16589520333856345
1772615913921998800,2.233998779296875,0.44693888085782524,0.4585048154890537,-0.31362317408472296
1772615913932066800,2.24406689453125,0.5544347944587469,0.43672026918232437,-0.3331652386942878
1772615913942134800,2.254134765625,0.6170639768511057,0.464753939011693,-0.2408936909005977
1772615913952202800,2.26420263671875,0.6004582944869995,0.4428729465931654,-0.03250179168675095
1772615913962270700,2.274270751953125,0.5203431397646665,0.4121580748558044,0.13847646880345418
1772615913972339000,2.2843388671875,0.40679216390848155,0.43709728580117224,0.17904869942218063
1772615913982407000,2.294406982421875,0.28463176513910293,0.45265199780762194,0.1169759818688035
1772615913992475000,2.304474853515625,0.18130875330865381,0.4735708671957254,0.05611581844296306
1772615914002542800,2.31454296875,0.05107844533026218,0.4231692982137203,-0.024954481579735874
1772615914012610800,2.32461083984375,-0.09747750067263841,0.40147769088745117,-0.13556838107071817
1772615914022678800,2.3346787109375,-0.18256050693541764,0.33727263748049735,-0.21108649032637475
1772615914032746800,2.344746826171875,-0.22812954119443893,0.21600714172422886,-0.20490054996674878
1772615914042815000,2.35481494140625,-0.2735381241947412,0.051237435284256935,-0.18693159815911203
1772615914052883000,2.364883056640625,-0.339781697691977,-0.05337035565972328,-0.2245642864609137
1772615914062951700,2.37495166015625,-0.4483820654034614,-0.12934884896874427,-0.3083697105359286
1772615914073019600,2.38501953125,-0.5881657991468906,-0.27404782728254795,-0.3639364071961492
1772615914083088000,2.395087890625,-0.7323959909051656,-0.41376200292110443,-0.45542654055487364
1772615914093155800,2.40515576171875,-0.8652981484413147,-0.49962417686283583,-0.5817119468323886
1772615914103223800,2.415223876953125,-0.9805074128985405,-0.5666963101387024,-0.7487734174713492
1772615914113291800,2.425291748046875,-1.0625319083735345,-0.6136234810084105,-0.88323646764867
1772615914123360000,2.435360107421875,-1.065597433423996,-0.6561918721467256,-0.9829277719132602
1772615914133428000,2.445427978515625,-0.9746598559141159,-0.6114911451548337,-1.0960300541538746
1772615914143495700,2.45549560546875,-0.7973173758879304,-0.45988896332383156,-1.1620914760172367
1772615914153563600,2.465563720703125,-0.5806158221587538,-0.30317396852374073,-1.0939636962085961
1772615914163631900,2.4756318359375,-0.30048721365779635,-0.11540858642160892,-0.9013246436554938
1772615914173699800,2.485699951171875,0.014109773895144461,0.11164368093013763,-0.6409056748833507
1772615914183767800,2.495767822265625,0.34366438434422014,0.32948212973475455,-0.32992906978465614
1772615914193836000,2.5058359375,0.6145505327254533,0.5377431873768568,-0.0257005370069528
1772615914203904000,2.515904052734375,0.8080880684882402,0.7041478015422821,0.20356533757392317
1772615914213972000,2.525971923828125,0.9135662125259637,0.8156786697477102,0.35347079848963764
1772615914224039700,2.536039794921875,0.9342506886363029,0.8264397177368402,0.41564456526469434
1772615914234108000,2.54610791015625,0.8130670259445906,0.7207470541656017,0.33482824000306427
1772615914244176000,2.55617578125,0.6975517642781138,0.7390823368012904,0.23196016886588183
1772615914254243800,2.566243896484375,0.5667296278864145,0.6700912181615829,0.2564144093059003
1772615914264311800,2.576311767578125,0.4266191464066505,0.5650163942277431,0.3272281402628869
1772615914274380800,2.586380859375,0.3348176455438137,0.5272609563291073,0.39427152236830443
1772615914284448800,2.59644873046875,0.21987696889489888,0.424842784383893,0.3916765009064227
1772615914294516700,2.606516845703125,0.08939911589622497,0.36069969029724597,0.32235600418187677
1772615914304584700,2.616584716796875,-0.019579145216941832,0.3160655988007784,0.19342390105416998
1772615914314653000,2.62665283203125,-0.11920096444189547,0.2804197004020214,0.0985364808068145
1772615914324721000,2.636720947265625,-0.20434768359065056,0.2527665543228388,0.12505606541195885
1772615914334788900,2.646788818359375,-0.20607319220900536,0.2035305219888687,0.2713881430866197
1772615914344856800,2.65685693359375,-0.15606149932742117,0.1606008963227272,0.42097898509521037
1772615914354924800,2.6669248046875,-0.1212345160961151,0.11787468427419662,0.44523167508114125
1772615914364992800,2.67699267578125,-0.12138824535310268,0.051721419408917425,0.4048519896261394
1772615914375060700,2.687060791015625,-0.13119184648692608,-0.002855389431118965,0.3580078208647668
1772615914385128700,2.697128662109375,-0.1556727922707796,-0.07481412570476531,0.3368751991281286
1772615914395197000,2.707197021484375,-0.272689982932806,-0.15185761789679528,0.3146827296076342
1772615914405265000,2.717264892578125,-0.3599325053170323,-0.1538824017226696,0.2810982755170204
1772615914415332900,2.727332763671875,-0.4015145157665014,-0.19172259529531002,0.25778909519258886
1772615914425401000,2.737401123046875,-0.41995150521099567,-0.1996791072577238,0.27713795705130323
1772615914435468800,2.74746875,-0.3952592547640204,-0.18935528164207935,0.33775347980000076
1772615914445536800,2.757536865234375,-0.34685967325419187,-0.17401275108158587,0.47689453172571955
1772615914455604700,2.767604736328125,-0.2731076238229871,-0.17308511484265326,0.6583845598854124
1772615914465673000,2.7776728515625,-0.22252397627234458,-0.2061363205730915,0.774759945512563
1772615914475741000,2.787740966796875,-0.2379945171266794,-0.2550327456891537,0.7487589505545794
1772615914485809000,2.797808837890625,-0.2602855516508221,-0.28177053048908707,0.5235952368957921
1772615914495877600,2.807877685546875,-0.21912848861515521,-0.27526304829120635,0.3070445994120091
1772615914505945900,2.81794580078125,-0.13135112870186566,-0.2986316489189863,0.2310238561301492
1772615914516013800,2.828013916015625,0.02001139915436506,-0.33194355141222476,0.31910544142071157
1772615914526081800,2.838081787109375,0.20524550921320914,-0.37256314657032485,0.5778991470785811
1772615914536149800,2.848149658203125,0.38349604399502274,-0.45201428442597386,0.8853896270945668
1772615914546218000,2.858218017578125,0.5293950457483529,-0.5051660288989543,1.0886281073343007
1772615914556286000,2.868285888671875,0.6565934386849402,-0.5957452944904565,1.1541098296135663
1772615914566354000,2.87835400390625,0.6607756928056479,-0.7834802814543247,1.034184569485113
1772615914576421600,2.888421630859375,0.504271418146789,-0.9748433957874775,0.6908499285519123
1772615914586489900,2.89848974609375,0.1822869506910443,-1.089745201730728,0.2643374756564386
1772615914596557800,2.908557861328125,-0.18230068695545196,-1.1046008255571127,-0.2309252545938827
1772615914606625800,2.918625732421875,-0.47392947137504815,-0.9426455920159816,-0.685604794440046
1772615914616694000,2.928694091796875,-0.6504930759832263,-0.6982277638435364,-0.9697883043549954
1772615914626762000,2.938761962890625,-0.7736869094535708,-0.4313414987534284,-1.0068562714461236
1772615914636830000,2.948829833984375,-0.8150006243556738,-0.1070657054901123,-0.7648336678471416
1772615914646898000,2.95889794921875,-0.7601844538018107,0.22241233259141444,-0.32730814669653774
1772615914656966000,2.9689658203125,-0.635705841217935,0.4766951366961002,0.13684939732458443
1772615914667033900,2.979033935546875,-0.4765244563043117,0.650500967028737,0.3891941825713962
1772615914677101800,2.989101806640625,-0.28714754735231396,0.7358873401522636,0.36091943399515003
1772615914687169800,2.999169677734375,-0.14171382502317428,0.6582160714507103,0.07023708641307894
1772615914697239000,3.009239013671875,-0.03834229787588119,0.5049070857018232,-0.31967418121937663
1772615914707306800,3.019306640625,0.029840719251334667,0.3613473405510187,-0.725483435037732
1772615914717374700,3.029374755859375,0.17935002045631407,0.2646551450371742,-0.992458766650781
1772615914727442700,3.039442626953125,0.35125323203802106,0.22674305527210234,-1.1139738532539456
1772615914737511000,3.049510986328125,0.5209674091428518,0.2084586260408163,-1.1408213089734316
1772615914747579000,3.059578857421875,0.6934668330520392,0.2119137349307537,-1.0818903965771198
1772615914757646600,3.069646484375,0.843616770248115,0.23827917928695677,-1.001401367041096
1772615914767714600,3.079714599609375,0.9602490532457828,0.2415729601353407,-0.9152551154609769
1772615914777782500,3.089782470703125,1.004505543601513,0.22794249418973922,-0.7849805299494415
1772615914787850500,3.0998505859375,1.0023173859074712,0.22400164760947225,-0.6965699136339127
1772615914797918500,3.10991845703125,0.9277394070461392,0.21451719542741773,-0.6887365165945142
1772615914807986400,3.119986328125,0.8108157398864626,0.21082243256270886,-0.6842438082851469
1772615914818054400,3.130054443359375,0.617734715719521,0.20253040503561495,-0.6683650519561022
1772615914828122400,3.140122314453125,0.38799072506576776,0.1700683973699808,-0.6523839312311261
1772615914838190600,3.150190673828125,0.13956190768629312,0.2064233208209276,-0.5962234333962202
1772615914848258600,3.160258544921875,-0.11847703408151865,0.1957493665933609,-0.4876200700100511
1772615914858326500,3.170326416015625,-0.35235008736401796,0.16651099714934825,-0.41005613414049147
1772615914868394500,3.18039453125,-0.5566714674696326,0.21523440378606318,-0.35127043890114873
1772615914878462500,3.19046240234375,-0.7202572248220444,0.27433132039904595,-0.23767945982813835
1772615914888530400,3.200530517578125,-0.857113965202868,0.28953239666223524,-0.10479369630436412
1772615914898599400,3.210599365234375,-0.9661156071916221,0.2966378447532654,-0.06938810946750454
1772615914908667600,3.220667724609375,-1.0166212210699914,0.30802491568624973,-0.055372681058617305
1772615914918735600,3.230735595703125,-0.9548422257661819,0.2655044553428888,-0.07201000980315729
1772615914928803300,3.24080322265625,-0.8066174114137887,0.21113047559857367,-0.13304065269138662
1772615914938871300,3.250871337890625,-0.584975770933926,0.12664368166327475,-0.24778202564222737
1772615914948939500,3.260939453125,-0.33764673148989677,0.04730594105422496,-0.27068231463851405
1772615914959007500,3.271007568359375,-0.05728548327684402,0.01748304972052574,-0.1946196867099963
1772615914969075500,3.281075439453125,0.22600568090826273,0.042642040896415705,-0.05518208125680685
1772615914979143400,3.291143310546875,0.4468742911890149,0.0788847361445427,0.09356794427977874
1772615914989211600,3.301211669921875,0.534432455393672,0.06188800863623619,0.21351397320162505
1772615914999279600,3.311279541015625,0.5301248213276267,0.05980652618706226,0.296285944309365
1772615915009347300,3.321347412109375,0.4671323585808277,0.09079670773446559,0.2750349568900652
1772615915019415300,3.331415283203125,0.43285716401338575,0.12345511475503444,0.2124030893502757
1772615915029483500,3.3414833984375,0.3513835804194212,0.10533727426230907,0.19034317843457682
1772615915039551500,3.351551513671875,0.2825079048529267,0.049852118405699725,0.18729796551978214
1772615915049619500,3.361619384765625,0.25839579238146543,0.05872632973492145,0.2327607263927348
1772615915059687400,3.3716875,0.24937574284076688,0.04095335715711117,0.308728899237141
1772615915069755600,3.381755615234375,0.2125125776067376,-0.016193009909987448,0.3022592100326903
1772615915079823600,3.39182373046875,0.17711860814243555,-0.01063946743607521,0.22486516910362989
1772615915089891300,3.401891357421875,0.1657376746892929,-0.010078326421976088,0.16937073396202176
1772615915099959300,3.411959228515625,0.16894465403705836,-0.05385784691572189,0.1501823781609535
1772615915110028500,3.422028564453125,0.23787469013929366,-0.11523556794226168,0.11235727255959063
1772615915120096500,3.432096435546875,0.31981559898406264,-0.10813479602634907,0.06030779024008661
1772615915130164500,3.44216455078125,0.4408692055553198,-0.10204232437014579,0.008205445222184062
1772615915140232400,3.452232421875,0.5750567267268896,-0.08769991076290606,0.011225889021903275
1772615915150300400,3.462300537109375,0.6494681168496609,-0.044966684451699254,0.03580057750381529
1772615915160368400,3.472368408203125,0.6207657539784908,-0.03694236795008182,0.09290420140773058
1772615915170436400,3.482436279296875,0.5702817674100399,-0.024058920979499816,0.1221120661156252
1772615915180504600,3.492504638671875,0.5241852021455764,-0.016295885762572286,0.1129633121613413
1772615915190572500,3.502572509765625,0.500265397375822,-0.08641922330260277,0.0497054399440065
1772615915200640500,3.512640625,0.5638567027986049,-0.13839900138676164,-0.13615447386298327
1772615915210708500,3.52270849609375,0.7411947989106178,-0.16645079139471053,-0.38707514459080994
1772615915220776400,3.5327763671875,1.0177700988441705,-0.2147147638261318,-0.5525253441082313
1772615915230844400,3.542844482421875,1.3204720659419893,-0.26792379144430156,-0.5844298640215769
1772615915240912400,3.552912353515625,1.590721377724409,-0.3123421943634748,-0.5111146351050585
1772615915250980400,3.56298046875,1.7568185333758592,-0.3125122902333736,-0.37304106628037986
1772615915261048600,3.573048583984375,1.8671119687408209,-0.32885435322523116,-0.2076034705162048
1772615915271116500,3.583116455078125,1.917936731570959,-0.3262672593414783,-0.043547830629721285
1772615915281184500,3.5931845703125,1.8373226874157784,-0.3360205915927887,0.08668127177227287
1772615915291252500,3.60325244140625,1.615007385458052,-0.3899269538253545,0.17925065173506735
1772615915301320400,3.613320556640625,1.3480916020125149,-0.4890215343058109,0.1149514172386378
1772615915311389400,3.623389404296875,1.066033486753702,-0.4725292491883039,-0.04407875916864723
1772615915321457400,3.63345751953125,0.8113304114103317,-0.4639104739248752,-0.15736016083583235
1772615915331525600,3.643525634765625,0.5545663118839264,-0.5640536866754293,-0.12066866237428038
1772615915341593600,3.653593505859375,0.3943362947002053,-0.6152367614239453,-0.04325209908615797
1772615915351661600,3.66366162109375,0.3439823642522096,-0.698797088164091,0.0759192008698359
1772615915361729300,3.673729248046875,0.36929099303185936,-0.8101824104189872,0.3088614030430093
1772615915371797500,3.683797607421875,0.39481589491069313,-0.8786971437186002,0.5817909668853506
1772615915381865500,3.693865478515625,0.32639614641815423,-0.911667100906372,0.8059699803557246
1772615915391933400,3.703933349609375,0.1634071859151125,-0.9503507595658301,0.9155072635911404
1772615915402001400,3.71400146484375,-0.17143588633090256,-1.0312585259705782,0.8301252743817865
1772615915412069600,3.724069580078125,-0.653779842568934,-1.0698866550505162,0.4840555093962699
1772615915422137600,3.7341376953125,-1.0728683012098073,-0.9792612122297286,0.023179946187883615
1772615915432205300,3.744205322265625,-1.4028431828975676,-0.8222276529997586,-0.42373803801238535
1772615915442273300,3.754273193359375,-1.582861896395683,-0.5676578486472368,-0.7788501374356448
1772615915452341500,3.764341552734375,-1.5971452732920646,-0.3143552877515554,-0.9312010187420994
1772615915462409500,3.774409423828125,-1.3865104722559451,-0.03230886293053627,-0.8091805399000644
1772615915472477400,3.7844775390625,-1.086239239436388,0.2193728187650442,-0.4646839790480211
1772615915482545400,3.79454541015625,-0.7414402981042861,0.431914914727211,-0.08884579286240041
1772615915492613600,3.804613525390625,-0.4284779260158539,0.6676976010233163,0.24647333593014625
1772615915502682400,3.814682373046875,-0.23286475302278994,0.8059259220182895,0.529623082350567
1772615915512750300,3.824750244140625,-0.11952888122200965,0.8582026372224092,0.6967553532034159
1772615915522818600,3.834818603515625,-0.05754150386452674,0.8567360718011856,0.6971096465338021
1772615915532886500,3.844886474609375,-0.06270370893329381,0.7912953391194343,0.546855006854236
1772615915542954500,3.85495458984375,-0.11085048472583293,0.7349813312232494,0.3347167059199884
1772615915553022500,3.8650224609375,-0.25704730038195844,0.6915507702976464,0.1371542346232105
1772615915563090700,3.875090576171875,-0.4140665388256311,0.6031278059571981,-0.056215077566355465
1772615915573158400,3.885158447265625,-0.42513621437251564,0.5690250453472138,-0.25398789454502985
1772615915583226400,3.895226318359375,-0.31681495586335656,0.5521171651661396,-0.4088963696461171
1772615915593294300,3.90529443359375,-0.12108166362196206,0.5788707320570945,-0.5117118703458458
1772615915603362600,3.915362548828125,0.0026151509344577786,0.6072685590237379,-0.5676993497014046
1772615915613430500,3.925430419921875,0.04325637340247631,0.6443728395372629,-0.5038212632264941
1772615915623498500,3.93549853515625,0.01922638625651598,0.6873860518336296,-0.4263657561674714
1772615915633566500,3.94556640625,0.000772153416275978,0.7668670003056526,-0.4176593026205897
1772615915643634400,3.955634521484375,-0.0039022681355476378,0.945552419373393,-0.3227539905235171
1772615915653702400,3.965702392578125,-0.04527063583433628,1.0636363624840974,-0.165296177999489
1772615915663770400,3.975770263671875,-0.18545593611598013,1.0890583885103464,0.0035757898272713645
1772615915673838300,3.98583837890625,-0.4306079237818718,1.1275333728551864,0.1326266559298616
1772615915683906600,3.995906494140625,-0.6585907499819994,1.1440426091074942,0.24907343542594462
1772615915693974500,4.005974609375,-0.8466238431096077,1.1211363652944564,0.3776392442582175
1772615915704043300,4.016043212890625,-1.0058487749040126,1.103845038753748,0.4490654080251231
1772615915714111500,4.026111572265625,-1.0922107150614262,0.9977414562940597,0.48602768625207243
1772615915724179500,4.036179443359375,-1.0615598484709858,0.8999228870987892,0.48958022763449693
1772615915734247400,4.046247314453125,-0.9724912797033787,0.8034569015562534,0.5306112166050821
1772615915744315400,4.0563154296875,-0.947971170952916,0.6257096401214599,0.563748273988068
1772615915754383600,4.066383544921875,-0.9821721312403678,0.4449918384432792,0.512921501863934
1772615915764451600,4.07645166015625,-1.004117421066761,0.3690595223635435,0.42439021831080315
1772615915774519600,4.08651953125,-0.9824123697370291,0.31849662533998485,0.4128209592113271
1772615915784587300,4.096587158203125,-1.0218453854590654,0.16498071884214877,0.4844437415288761
1772615915794655500,4.106655517578125,-1.1479603670731187,-0.03362228361666202,0.3964896368091926
1772615915804723500,4.116723388671875,-1.3222618719682098,-0.19588029949665067,0.11221707863761111
1772615915814791400,4.12679150390625,-1.4865563621118665,-0.32575755625367164,-0.2350240499485284
1772615915824859400,4.136859375,-1.5394924180075524,-0.3670060969650745,-0.5594747979199514
1772615915834927600,4.146927734375,-1.440592483316362,-0.3122854957401752,-0.7636408048007637
1772615915844995600,4.15699560546875,-1.2860957490876317,-0.21364508876800536,-0.7221143969960511
1772615915855063600,4.1670634765625,-1.1330243714869022,-0.05586451056301593,-0.40733160454742606
1772615915865131300,4.17713134765625,-0.9903688816994428,0.16463000570833683,0.06694666199898347
1772615915875199500,4.187199462890625,-0.8227768113151193,0.39677287419736385,0.5055405612997711
1772615915885267500,4.197267333984375,-0.6218266612082719,0.5723164881080389,0.8446792849130929
1772615915895335400,4.20733544921875,-0.4332750971645117,0.6805366243302822,1.067717494317889
1772615915905404700,4.21740478515625,-0.2975874005630612,0.7660153519123792,1.1104709596995264
1772615915915472400,4.227472412109375,-0.3088093440622091,0.7891261783868074,0.9960691391676664
1772615915925540400,4.237540283203125,-0.38337446344196796,0.7500263401418924,0.7771983516406268
1772615915935608300,4.2476083984375,-0.4222159430116415,0.6567009907126427,0.5497174105480312
1772615915945676500,4.257676513671875,-0.4358943397521972,0.49781625065803525,0.34317039028219876
1772615915955744500,4.26774462890625,-0.4029498092666268,0.35327976942956446,0.2126117636648938
1772615915965812500,4.2778125,-0.2873170587003231,0.27725802150070666,0.2623199800878763
1772615915975880400,4.28788037109375,-0.20434417645931244,0.22232173169851302,0.39872565223295237
1772615915985948700,4.29794873046875,-0.1304752226501703,0.17774726143479347,0.5144353770256043
1772615915996016400,4.308016357421875,-0.08495879536122083,0.04062602489888668,0.4913409902293235
1772615916006084400,4.31808447265625,-0.11847352695018053,-0.0651899727910757,0.32519323690179736
1772615916016152300,4.32815234375,-0.23828502450585365,-0.0860258400708437,0.20712076503317803
1772615916026220500,4.338220458984375,-0.3938894277155399,-0.1587783570706844,0.10076452298667281
1772615916036288500,4.34828857421875,-0.5220125342816114,-0.18174480663836,0.029942535657994446
1772615916046356500,4.3583564453125,-0.5721247649282216,-0.13862228874862192,0.026943719168193637
1772615916056424400,4.368424560546875,-0.5465098466783762,-0.0951052185833454,0.05622932528741657
1772615916066492700,4.37849267578125,-0.5068491596803069,-0.0290396320015192,0.09174293907601386
1772615916076560400,4.388560302734375,-0.43336628257930276,0.01094400334060192,0.1471949963806197
1772615916086628400,4.39862841796875,-0.3892798880934715,-0.020700842723250387,0.15507829697635023
1772615916096697600,4.408697509765625,-0.4378910665273666,-0.03118599638044834,0.11104958749450743
1772615916106765600,4.418765625,-0.5042565128386021,-0.0162561382740736,0.14930150367319583
1772615916116833500,4.42883349609375,-0.4721835044905543,-0.06198153213858604,0.2222351859262213
1772615916126901500,4.438901611328125,-0.3933528366208076,-0.05314239212274551,0.2853787841141224
1772615916136969500,4.448969482421875,-0.31836744600236416,0.034763270345330236,0.35267888092696664
1772615916147037400,4.459037353515625,-0.24790508576631545,0.0969271733134985,0.45978086330685763
1772615916157105400,4.46910546875,-0.1714347172871232,0.031922493961453434,0.6385024131339043
1772615916167173400,4.47917333984375,-0.15682605395913124,-0.058571431434154504,0.7848275313448161
1772615916177241600,4.48924169921875,-0.15376315925717354,-0.1397252815544605,0.7675215186916291
1772615916187309600,4.4993095703125,-0.10854717621952295,-0.2243833404034376,0.6161633016843349
1772615916197377500,4.50937744140625,-0.10736731878519058,-0.3131868284940719,0.46671749416962266
1772615916207445500,4.519445556640625,-0.18291677302718162,-0.4389519737571478,0.3196129160188138
1772615916217513500,4.529513427734375,-0.24802871214598415,-0.5779986253976822,0.15576606004480273
1772615916227581400,4.53958154296875,-0.35995617845356465,-0.724922294023633,-0.024504436257295308
1772615916237649400,4.5496494140625,-0.5996037234842777,-0.754913527661562,-0.2769312006991356
1772615916247717400,4.55971728515625,-0.8399713994830846,-0.6766857941210269,-0.496912652881816
1772615916257785600,4.56978564453125,-0.9751590376079082,-0.5528256056964397,-0.6199770878188312
1772615916267853600,4.579853515625,-1.0577160325244068,-0.39647418351173397,-0.5619288400085642
1772615916277921500,4.589921630859375,-1.1399319589182735,-0.24864099882543086,-0.3958788479670882
1772615916287990500,4.599990478515625,-1.2028759063482284,-0.14832827472686766,-0.23973452919442206
1772615916298058500,4.61005859375,-1.2011930678278206,-0.08357084813416003,-0.15711089878249912
1772615916308126500,4.62012646484375,-1.1180275856241584,-0.09203238700926303,-0.18731679808441548
1772615916318194400,4.6301943359375,-0.9837082547664642,-0.17950842588841914,-0.2969779999604448
1772615916328262700,4.6402626953125,-0.7991507287949323,-0.21305296809375285,-0.5002236405933276
1772615916338330600,4.65033056640625,-0.6572118628442287,-0.16245032358169556,-0.6400864674549549
1772615916348398300,4.6603984375,-0.4662330716535449,-0.0821171421945095,-0.7578444665469228
1772615916358466300,4.67046630859375,-0.23154694842249154,0.03126432231366634,-0.7933969875738024
1772615916368534500,4.680534423828125,-0.022496493968367576,0.13875146808624267,-0.7589749318815767
1772615916378602500,4.6906025390625,0.14750789825469254,0.3000654811143875,-0.5962983983285725
1772615916388670500,4.70067041015625,0.2690048646792769,0.4207803572505712,-0.3642843803836033
1772615916398738400,4.710738525390625,0.30610388449579473,0.561450810700655,-0.1540702159123495
1772615916408806700,4.720806640625,0.3217588420063257,0.783330643850565,0.05128277226332575
1772615916418874600,4.73087451171875,0.3132914579123258,0.9573030629217624,0.20550401401892304
1772615916428942300,4.7409423828125,0.27963293393850325,1.1189134285479783,0.26156412021927533
1772615916439010300,4.75101025390625,0.17964228140115737,1.3139847497493027,0.25052531473468986
1772615916449078500,4.76107861328125,0.10034165793210267,1.353238901773095,0.2366834710607305
1772615916459146500,4.771146484375,0.10612433298677205,1.370738318106532,0.28539401821587235
1772615916469214500,4.78121435546875,0.17032061856538055,1.3444780876904725,0.47220615471377964
1772615916479283500,4.791283447265625,0.16957330732941628,1.2773416570067404,0.7368903797149657
1772615916489351400,4.801351318359375,0.0928746830523014,1.1981938860118388,0.9526247689124197
1772615916499419400,4.81141943359375,-0.09835925194323063,1.049362337937951,1.0920926416397094
1772615916509487400,4.8214873046875,-0.29615853680372234,0.8991232611536979,1.0489178090408444
1772615916519555600,4.8315556640625,-0.4675131745919585,0.7507125688403844,0.8804781819164752
1772615916529623600,4.84162353515625,-0.6049120590254664,0.5653992560654878,0.6471803712386638
1772615916539691500,4.85169140625,-0.6494476585835218,0.39803485695719715,0.43925895734708753
1772615916549759500,4.861759521484375,-0.6490773639664054,0.23320494476258755,0.33345223894212395
1772615916559827500,4.871827392578125,-0.8086153072327374,0.048392567247152324,0.33584545422159134
1772615916569895400,4.8818955078125,-1.0778016659587621,-0.23565175339281558,0.33020123778954147
1772615916579963400,4.89196337890625,-1.274412617817521,-0.4608581006169319,0.23738453200217335
1772615916590031400,4.90203125,-1.35265145727396,-0.6300953078597784,0.17719302508551626
1772615916600099600,4.912099609375,-1.35702514231354,-0.75014265999794,0.1477086906569544
1772615916610167600,4.92216748046875,-1.3225368895173073,-0.7432838801443576,0.16655907407477497
1772615916620235500,4.932235595703125,-1.2279805369883774,-0.6935878290832043,0.17809854082418605
1772615916630303500,4.942303466796875,-1.0533511153131723,-0.5825947210162877,0.21909363649748265
1772615916640371500,4.952371337890625,-0.8575143626973032,-0.4722644607722759,0.32465675540491934
1772615916650439400,4.962439453125,-0.7189005495160817,-0.3078735245168209,0.4061118900267407
1772615916660507400,4.97250732421875,-0.5397480974584817,-0.14466390700042248,0.4909504565417766
1772615916670576600,4.98257666015625,-0.38807548073977227,0.013466799816489218,0.568367019829899
1772615916680644600,4.99264453125,-0.241846516379714,0.19534896909892557,0.6121307582326233
1772615916690712600,5.002712646484375,-0.09855915842950344,0.36949674473702904,0.7103284629385918
1772615916700780300,5.0127802734375,-0.012302432212233544,0.42495208997726436,0.7962368871748446
1772615916710848500,5.0228486328125,-0.001757072800397873,0.40277240687310695,0.7523245340816677
1772615916720916500,5.03291650390625,-0.011621464210748672,0.38482933842539785,0.6524384378973395
1772615916730984400,5.042984375,-0.04323299252688884,0.3232131324678659,0.49098450494185086
1772615916741052400,5.053052490234375,-0.09056699063181876,0.27571546823382376,0.338328174415417
1772615916751120600,5.06312060546875,-0.15128098705261944,0.21774141817092893,0.18844412161391227
1772615916761188000,5.07318798828125,-0.1872676617130637,0.1451940683543682,0.046269446746492755
1772615916771256300,5.08325634765625,-0.13991057499349116,0.12915361865758895,-0.04412140186713077
1772615916781324000,5.093323974609375,-0.017581833919882772,0.11404431233108044,0.02820086592270527
1772615916791392000,5.10339208984375,0.09356851053535938,0.09566460603177547,0.2674395881239325
1772615916801460000,5.1134599609375,0.18791794231534004,0.06552256574630737,0.44917661331463604
1772615916811528200,5.123528076171875,0.2353825810626149,-0.06067512571513652,0.27080890016024933
1772615916821596200,5.13359619140625,0.2372930908590555,-0.1297650285542011,-0.13058526802905834
1772615916831664000,5.1436640625,0.29513211636543274,-0.1348550451695919,-0.47012394161224363
1772615916841732400,5.153732421875,0.3198193983763456,-0.160673961558938,-0.6550170562136918
1772615916851801000,5.163801025390625,0.26346388942599297,-0.13346329855024813,-0.7530249374359845
1772615916861869000,5.173869140625,0.22528116602599618,-0.06403028136193752,-0.8117626653477549
1772615916871937000,5.18393701171875,0.12739420776963234,-0.005281155273318291,-0.863473563362658
1772615916882005200,5.194005126953125,-0.003986731548607349,-0.000862169787287712,-0.8836595153663307
1772615916892073200,5.2040732421875,-0.08527063778936862,-0.06705635118484497,-0.8780331268519163
1772615916902141200,5.21414111328125,-0.11999065351486206,-0.04120353252589702,-0.8898671378348022
1772615916912209200,5.224209228515625,-0.10563070425093174,0.030285248148441312,-0.8298009377982467
1772615916922277000,5.234277099609375,-0.07655337058752774,0.09510054240822792,-0.7506311741672456
1772615916932345000,5.244344970703125,-0.008971241962909698,0.20047756415903567,-0.67891808321774
1772615916942413000,5.2544130859375,0.09826163678765297,0.2945066779434681,-0.6024885582055897
1772615916952481000,5.26448095703125,0.251305834120512,0.3538870876729488,-0.5412800927987322
1772615916962549200,5.27454931640625,0.399478626024723,0.34136429070830343,-0.4743151096917689
1772615916972617200,5.2846171875,0.4579544881299138,0.29885668984651564,-0.45195634369365867
1772615916982685200,5.294685302734375,0.4383654060408473,0.286160874402523,-0.4630475004199892
1772615916992753200,5.304753173828125,0.45502281859219074,0.27080256175100803,-0.5022263221852481
1772615917002821000,5.314821044921875,0.4710939556881785,0.2813514282941818,-0.49215340259075163
1772615917012889000,5.32488916015625,0.4851046531230211,0.2917775452405214,-0.4347988726656884
1772615917022957000,5.33495703125,0.6124445003569126,0.2814437827527523,-0.25041474876599384
1772615917033024000,5.34502392578125,0.6217112181350588,0.2779886738628149,-0.2779348247837275
1772615917043093200,5.35509326171875,0.7844348057001829,0.3402303182423115,0.06597711371392942
1772615917053161200,5.3651611328125,0.845451876720786,0.40191783587038515,0.49454680053330957
1772615917063229200,5.375229248046875,0.6982745255947113,0.34617022968530653,0.8955552664738148
1772615917073297200,5.385297119140625,0.548337938888371,0.2658849790930748,1.044589351382479
1772615917083365000,5.395365234375,0.3319762846380472,0.10664952590465546,0.9954881244093179
1772615917093433000,5.40543310546875,0.041459260852634905,-0.13948971923291684,0.7922941408984363
1772615917103501000,5.4155009765625,-0.2781993940040469,-0.42779520444869995,0.4359279497608542
1772615917113569300,5.4255693359375,-0.550633648610115,-0.6210241126537323,-0.040721411564759905
1772615917123637200,5.43563720703125,-0.7412178875252604,-0.736390028977394,-0.5768243574539199
1772615917133705200,5.445705322265625,-0.8547299926757812,-0.7679588871955871,-1.1057575943768023
1772615917143773200,5.455773193359375,-0.854851573228836,-0.6682979050040244,-1.4714787660978734
1772615917153841200,5.465841064453125,-0.7286120884522795,-0.5324205310493707,-1.5146885238796473
1772615917163909000,5.4759091796875,-0.5351707065403462,-0.44735739853084083,-1.2622588002957402
1772615917173977000,5.48597705078125,-0.2618751589298248,-0.29470716895163057,-0.9085176969647407
1772615917184045000,5.496045166015625,0.051418052548170085,-0.06789806270599365,-0.5921126370765268
1772615917194113300,5.50611328125,0.26797406032681464,0.12508593082726002,-0.3256001737348735
1772615917204181200,5.51618115234375,0.3128238404005766,0.19402970319390295,-0.06733619103953242
1772615917214249200,5.526249267578125,0.2311456741452217,0.18160861303806303,0.0672702313975431
1772615917224318000,5.53631787109375,0.07793167320340871,0.10873042383193969,-0.03353712608385831
1772615917234386200,5.54638623046875,-0.06378536669015884,0.1211257950246334,-0.3523403696876019
1772615917244454100,5.5564541015625,-0.24609599051773548,0.3318786694824695,-0.725910720539093
1772615917254522000,5.566522216796875,-0.37194413788914676,0.6544412290871143,-0.9509666995070875
1772615917264590300,5.57659033203125,-0.4254530252367258,0.9211538911759852,-0.8046668618679046
1772615917274658300,5.586658203125,-0.3710483580932021,1.001987423300743,-0.3979932463051751
1772615917284726000,5.59672607421875,-0.19895839176774024,1.0133557895332574,0.0957126190251205
1772615917294794000,5.6067939453125,0.061653323097527024,1.0901216338276862,0.5359350785089656
1772615917304862200,5.6168623046875,0.28362025000900026,1.1172416959434748,0.9973968806400895
1772615917314930200,5.62693017578125,0.45608898651897906,0.9351976140975952,1.218554683125764
1772615917324998100,5.636998046875,0.5589952342420816,0.8120458662033081,1.0805562984291464
1772615917335066000,5.647066162109375,0.461712087097764,0.7923322809517384,0.8324032292511314
1772615917345134300,5.65713427734375,0.4082598983734846,0.5469575904458761,0.6205147018268704
1772615917355202300,5.667202392578125,0.3258516642779112,0.3299123378455639,0.5597004599019885
1772615917365270000,5.67727001953125,0.01743862605690956,0.2440034021526575,0.9230625012762844
1772615917375338000,5.687337890625,-0.2717886501789093,-0.012855389919877051,1.4508156250365078
1772615917385406200,5.69740625,-0.5640332284092903,-0.4626537518620491,1.765822362434119
1772615917395474200,5.70747412109375,-0.9029951341509819,-1.0161983194828033,1.7144623236835002
1772615917405542100,5.717542236328125,-1.3189759821653366,-1.4656705182105303,1.3684671583041548
1772615917415611100,5.727611083984375,-1.6944927178442477,-1.6836784783631562,0.6716914929650724
1772615917425679000,5.73767919921875,-2.014825034178793,-1.64040340026021,-0.13308774323612452
1772615917435748000,5.747748046875,-2.3957944823056456,-1.235911329987645,-1.2809890735983849
1772615917445816000,5.757816162109375,-2.190973920506239,-0.6470213082194328,-1.4452312490329144
1772615917455884300,5.76788427734375,-1.9119512274205683,-0.03901040639579296,-1.250459641430527
1772615917465952300,5.7779521484375,-1.5570511633127926,0.4374386465847492,-0.636983971394971
1772615917476020200,5.788020263671875,-1.1144535265296698,0.8091594971120357,0.23695388549994675
1772615917486088000,5.798087890625,-0.6087327863574028,1.1315408549308776,0.9770108760196715
1772615917496156200,5.80815625,-0.04457856191694736,1.4177707029163837,1.495359846292436
1772615917506224000,5.81822412109375,0.3980103070378303,1.632805200216174,1.8248596578143537
1772615917516292000,5.8282919921875,0.5522247171938419,1.6959756498783827,1.8781407277554272
1772615917526360000,5.838360107421875,0.5701596023350953,1.6377385649651288,1.7289023524463176
1772615917536428300,5.84842822265625,0.4993360075712204,1.4909651184648274,1.4534022805288433
1772615917546496300,5.858496337890625,0.3050172583028674,1.2424386859297751,1.0989319861404596
1772615917556564000,5.86856396484375,0.1409901869237423,1.0462193637371062,0.7058139811888337
1772615917566632000,5.8786318359375,0.03496113100498915,0.8981056085437535,0.37598099218979475
1772615917576700200,5.8887001953125,0.010511457142233848,0.79546239567101,0.1764136016782373
1772615917586769200,5.89876904296875,-0.04035802161246538,0.6748275990337133,0.07770513443853706
1772615917596837000,5.908837158203125,-0.10936258425563573,0.5280021300852299,0.11334131516087799
1772615917606905300,5.9189052734375,-0.16643500930368899,0.39112873083055016,0.20093736369051038
1772615917616973000,5.92897314453125,-0.24877193172872064,0.2634118669778108,0.23175686484612523
1772615917627041000,5.939041015625,-0.2918015106379986,0.22173487172126768,0.23340075959563253
1772615917637109000,5.94910888671875,-0.2890440286234021,0.21134499513208865,0.2299616519924253
1772615917647177200,5.95917724609375,-0.34338965905606744,0.15165712688863275,0.24898119056522844
1772615917657245200,5.9692451171875,-0.44598552565574645,0.044352351945638656,0.2201242216542363
1772615917667313200,5.979313232421875,-0.6002022738993168,-0.03726327046751976,0.08243059205785393
1772615917677381000,5.989381103515625,-0.7404372585415839,-0.06584054565429687,-0.09543160099349915
1772615917687449300,5.999449462890625,-0.8739072790935635,-0.09630115036964416,-0.20842128970511256
1772615917697517000,6.00951708984375,-0.9214221867233514,-0.11035247207581997,-0.2808842491738498
1772615917707585000,6.0195849609375,-0.9376602048188447,-0.10574468601942062,-0.3082718761846423
1772615917717653000,6.029653076171875,-0.9250015065148472,-0.1206815583884716,-0.24750892605558036
1772615917727721200,6.03972119140625,-0.8602502174019813,-0.1189297462850809,-0.11372728227116168
1772615917737789200,6.0497890625,-0.6528735413789749,-0.02135083106458187,0.06556757393181324
1772615917747857200,6.059857177734375,-0.40702684944719075,0.08632862240970134,0.273036896674335
1772615917757925000,6.069925048828125,-0.22233342213630675,0.12328443436324596,0.492042635692656
1772615917767993900,6.079993896484375,-0.05792290439754724,0.12050386373400687,0.6250277953371405
1772615917778061800,6.090061767578125,0.01657674853056669,-0.0107183778911829,0.6092997360577806
1772615917788129800,6.1001298828125,0.03256196090877056,-0.15443302134275436,0.6022683761162683
1772615917798197800,6.11019775390625,0.0960164882093668,-0.23326164338588712,0.6291534238997847
1772615917808266000,6.120265869140625,0.1921685854971409,-0.3225736655205488,0.5845141813041642
1772615917818334000,6.130333984375,0.2888736404925585,-0.3845265560865402,0.6044775765983388
1772615917828402000,6.14040185546875,0.2796583606407046,-0.5027759188920259,0.7472200505495071
1772615917838469600,6.1504697265625,0.16990239315330982,-0.6250684196084737,0.8279194349005818
1772615917848537900,6.160537841796875,-0.051741293153166765,-0.7296534141987562,0.8316840481311082
1772615917858605800,6.170605712890625,-0.3757107969462871,-0.7485907543808221,0.7077743214763701
1772615917868673800,6.180673828125,-0.6853370103493333,-0.6597691461116075,0.3909855960328132
1772615917878741800,6.19074169921875,-0.9343655471876263,-0.47064533513784407,0.06455240553990006
1772615917888810000,6.20081005859375,-1.179079143436253,-0.2843009257495403,-0.1607297103341669
1772615917898878000,6.2108779296875,-1.3485960444033145,-0.1006955859363079,-0.30431561283953484
1772615917908946000,6.22094580078125,-1.471278713481128,0.16912147190868854,-0.41984819096699355
1772615917919013600,6.231013671875,-1.5757003342032432,0.47287177901566024,-0.4591265275839716
1772615917929081900,6.241081787109375,-1.6257333621338008,0.7124252160221338,-0.3116486591413617
1772615917939149800,6.25114990234375,-1.582571389016509,0.8454851944684982,-0.06109196288771927
1772615917949218800,6.26121875,-1.3925667035549878,0.9204168090730905,0.07835976242236793
1772615917959287000,6.271287109375,-1.1110419645205138,1.0213123014956713,0.08017868494521826
1772615917969354800,6.281354736328125,-0.8241858013302087,1.057479008898139,0.05321651680488139
1772615917979422700,6.291422607421875,-0.5339946484982967,0.9577741875648498,-0.03863002877607941
1772615917989490700,6.30149072265625,-0.24407208347469567,0.8512094173341989,-0.18239084945693612
1772615917999559000,6.311558837890625,0.015001169776916503,0.7141548162937164,-0.3834262666944414
1772615918009627000,6.321626953125,0.21874387321174144,0.5833072531998157,-0.559938396843709
1772615918019694800,6.33169482421875,0.4009522057086229,0.5024322200208902,-0.6155829445131122
1772615918029762800,6.3417626953125,0.5427329584881663,0.36693420077264305,-0.5868006117409095
1772615918039831000,6.3518310546875,0.5697866773694753,0.2147550958365202,-0.6079523035041987
1772615918049898800,6.361898681640625,0.5532829940751195,0.14091361455619333,-0.6200504453159869
1772615918059966700,6.371966796875,0.47557343918979167,0.02805120548605919,-0.6500481086947023
1772615918070034700,6.38203466796875,0.3273112154364586,-0.09628127662539482,-0.7371880474872887
1772615918080103000,6.39210302734375,0.14877835658192634,-0.07726853311955928,-0.7264994802124798
1772615918090171000,6.4021708984375,-0.09481529572606086,0.04038812448978424,-0.5806970707014203
1772615918100238800,6.41223876953125,-0.39966041233241556,0.15031623367369173,-0.41514081699363886
1772615918110307800,6.422307861328125,-0.7154118306174874,0.23458149381279944,-0.2820932961700484
1772615918120375800,6.432375732421875,-0.9407879814505576,0.3059469403684139,-0.23188531353138386
1772615918130443800,6.44244384765625,-1.0614800612330435,0.3847872528493404,-0.20330482347421347
1772615918140511700,6.45251171875,-1.1159808822274206,0.454101027572155,-0.12265870368033646
1772615918150580000,6.462580078125,-1.1601818430036306,0.46137014179229735,-0.045892749788053334
1772615918160648000,6.47264794921875,-1.1523729228183626,0.4595417573213577,-0.02879511918853968
1772615918170716000,6.4827158203125,-1.0254928020507097,0.4655506423473358,-0.1070501060621813
1772615918180783900,6.492783935546875,-0.872865661086142,0.27558044367730616,-0.299723243547976
1772615918190851800,6.502851806640625,-0.7216261750876903,0.2043757406413555,-0.3938368207454681
1772615918200919800,6.512919921875,-0.501414275150001,0.14321312367022038,-0.4685195751555264
1772615918210987800,6.52298779296875,-0.2381099601998925,-0.02867196773290634,-0.49631293342299754
1772615918221055700,6.5330556640625,0.04365910898447036,-0.12907938437759875,-0.482911526992917
1772615918231124000,6.5431240234375,0.3126929074972868,-0.1575198814421892,-0.47685613594409076
1772615918241192000,6.55319189453125,0.5579869339823722,-0.10540624784529208,-0.39745566882975397
1772615918251260000,6.563260009765625,0.7551607804208993,-0.09222001853585243,-0.3840852055272087
1772615918261327600,6.57332763671875,0.8321797226935624,-0.03933481604456901,-0.3965255118401721
1772615918271395800,6.583395751953125,0.905809022527933,0.10445990690588951,-0.2788130689229816
1772615918281463800,6.5934638671875,0.922101985681057,0.22889468034803867,-0.05257405418287962
1772615918291532800,6.60353271484375,0.934226138716936,0.30475626927912236,0.1856812693044543
1772615918301601000,6.61360107421875,0.8749521119713782,0.32566461727321144,0.3555761002058163
1772615918311669000,6.6236689453125,0.781844204685092,0.3432008584856987,0.37823045161701735
1772615918321736700,6.63373681640625,0.6491913457348942,0.36325872713029383,0.25689185409191995
1772615918331804700,6.6438046875,0.48042672443985934,0.3802870188206434,0.05249591091275215
1772615918341873000,6.653872802734375,0.310474939186871,0.35819852113127704,-0.10978278242908418
1772615918351940900,6.66394091796875,0.1906011900499463,0.2683113294571638,-0.14390000995583832
1772615918362008800,6.6740087890625,0.09907236864864825,0.22077684034407138,-0.09175554282926023
1772615918372076800,6.684076904296875,0.03153349464386702,0.16248539489507674,0.024851678792387245
1772615918382145000,6.69414501953125,-0.031031098079681393,0.12548632832169532,0.12622158379368484
1772615918392213000,6.704212890625,-0.10787760639488696,0.1558650999724865,0.1584089392364025
1772615918402280700,6.71428076171875,-0.19745587825030086,0.14640344414412976,0.171313355929777
1772615918412348700,6.7243486328125,-0.24677169782221317,0.12517594719827174,0.188432248513028
1772615918422417000,6.7344169921875,-0.3071802815556526,0.07697101147770881,0.17343524345457553
1772615918432484900,6.74448486328125,-0.3126762486234307,0.02696925546824932,0.14476977852769196
1772615918442552800,6.754552734375,-0.2670633752226829,0.02530219903886318,0.16937150114700197
1772615918452620800,6.764620849609375,-0.1576905618339777,0.010305120915174484,0.19255188572630286
1772615918462689000,6.77468896484375,-0.004562193349003791,0.026434417939186095,0.24760858703777192
1772615918472757800,6.7847578125,0.08210428271293639,0.006444353833794593,0.3191664874255657
1772615918482825700,6.79482568359375,0.14363573299646376,-0.022515783190727234,0.3533059267841279
1772615918492894000,6.80489404296875,0.17463351332843302,-0.04888999537527561,0.3350949281152338
1772615918502962000,6.8149619140625,0.1997802295446396,-0.08009294289052486,0.3630837358895689
1772615918513030000,6.82502978515625,0.20132892029136418,-0.07601064201295375,0.41237712443396446
1772615918523097900,6.835097900390625,0.18238573489040136,-0.07613339160978794,0.4873975133005529
1772615918533165800,6.845165771484375,0.1277922671765089,-0.06545359216332436,0.4979777978952974
1772615918543233800,6.85523388671875,0.05858604448139667,0.004043722432851791,0.4448381091862917
1772615918553301800,6.8653017578125,0.0314098682641983,0.009659224227070808,0.4317382429860532
1772615918563369700,6.87536962890625,0.011108253991603851,-0.041294133418798444,0.46911965994052585
1772615918573438000,6.88543798828125,0.012307400648295878,-0.03285714446306229,0.48069450853057205
1772615918583506000,6.895505859375,0.015241700534522533,-0.04953939919471741,0.477930596775189
1772615918593574000,6.905573974609375,0.00006809680014848709,-0.13179331951141357,0.38730559234581885
1772615918603641900,6.915641845703125,-0.0048149990662932395,-0.2328583232820034,0.2193215269692242
1772615918613709800,6.925709716796875,0.04102291526198387,-0.25981296570301055,0.17794110350646078
1772615918623777800,6.93577783203125,0.10933715755343437,-0.2959557077080011,0.3430281322672963
1772615918633846800,6.9458466796875,0.14213175817430018,-0.4162029663324356,0.5531768302869051
1772615918643915000,6.9559150390625,0.11143325304985045,-0.5676993497014046,0.6668347005836666
1772615918653983000,6.96598291015625,-0.022414660903811452,-0.6844839006513357,0.5752533452775329
1772615918664051000,6.976051025390625,-0.24716391201019286,-0.7640916903734206,0.3100473614245653
1772615918674118700,6.98611865234375,-0.45386049681454893,-0.8524328216493129,-0.136218150216341
1772615918684187000,6.996186767578125,-0.6171244748666882,-0.9102057961821556,-0.66248987631239
1772615918694254800,7.0062548828125,-0.7203717911124229,-0.8643833716839552,-1.0311053812354802
1772615918704322800,7.01632275390625,-0.7676572739005089,-0.7514169177174568,-1.1961580693352967
1772615918714390800,7.026390869140625,-0.6419681164830923,-0.5399310528099537,-1.1866441718630492
1772615918724459000,7.036458984375,-0.4239902592077851,-0.38814065493047234,-0.9407334017191081
1772615918734527000,7.04652685546875,-0.2706526318863034,-0.2934387564510107,-0.5263166612163186
1772615918744594700,7.0565947265625,-0.25385610312521456,-0.18188333832621573,-0.10926931648161262
1772615918754662700,7.06666259765625,-0.38031156874001026,-0.04943886142969131,0.3522768029320985
1772615918764731100,7.076731201171875,-0.6852209827542305,0.07960135998129844,0.7279143154464661
1772615918774799400,7.08679931640625,-1.0313438661664724,0.27403321423530574,0.7621404101751744
1772615918784867300,7.096867431640625,-1.2968231870681046,0.47921325699687,0.45508799278289075
1772615918794935300,7.106935302734375,-1.4145786288768052,0.6674462566107511,0.010988025145418941
1772615918805003300,7.117003173828125,-1.422462660124898,0.814198075801134,-0.28307036104127764
1772615918815072300,7.127072265625,-1.2517168018847704,0.9155132549405097,-0.454925532230176
1772615918825140200,7.13714013671875,-0.9484183301985263,0.9692892687916755,-0.45996882362700997
1772615918835208200,7.147208251953125,-0.6570382598429918,0.9915636444419622,-0.266097160539031
1772615918845276400,7.1572763671875,-0.42936493798345327,0.9984119029015303,-0.04942739018760621
1772615918855344400,7.167344482421875,-0.32135493738055226,1.0336743549406529,0.12621614043358712
1772615918865412400,7.177412353515625,-0.3390986838638782,1.0312462510108946,0.2510479503693059
1772615918875480000,7.18747998046875,-0.42867900154590605,0.9962222839027642,0.2983057414328679
1772615918885548300,7.19754833984375,-0.6115834996134042,0.9192039261519909,0.22352891553118823
1772615918895616300,7.2076162109375,-0.778218415403366,0.7518839507073164,0.042801469241827726
1772615918905684200,7.217684326171875,-0.8209808678090572,0.6352636504083872,-0.16856248631905763
1772615918915752200,7.227752197265625,-0.744058956170082,0.6532745233952999,-0.24611641225125638
1772615918925820400,7.2378203125,-0.5768301661401987,0.7161258241057396,-0.15951437972765414
1772615918935888400,7.247888427734375,-0.3923486280143261,0.7557201678693294,0.09846450241599232
1772615918945956400,7.257956298828125,-0.22836188864558934,0.7491092252969741,0.38247682048249987
1772615918956024000,7.268024169921875,-0.13540946418195962,0.709330757138133,0.6094681879598647
1772615918966092300,7.27809228515625,-0.16105623887479303,0.6648088938444853,0.7373897075392305
1772615918976160300,7.28816015625,-0.32188276064693927,0.5460679481297731,0.6973831297129393
1772615918986229200,7.298229248046875,-0.5384434446007013,0.3400397641062736,0.5001507580202073
1772615918996297500,7.30829736328125,-0.869113322815299,0.1463449919551611,0.18538966594673692
1772615919006365200,7.318365234375,-1.2142986331164836,0.03312368644475937,-0.14863533138204366
1772615919016433200,7.32843310546875,-1.5144050307631491,-0.024218495455384254,-0.4206805501379072
1772615919026501000,7.338501220703125,-1.663551636135578,0.014078209713101386,-0.5919060816537588
1772615919036569300,7.3485693359375,-1.6313333740979432,0.09188099583983421,-0.7161682019427418
1772615919046637300,7.35863720703125,-1.3916720928028226,0.23222703964114189,-0.7180572305597365
1772615919056705300,7.368705322265625,-0.9952049235537648,0.3581242868512869,-0.4789968742998317
1772615919066773200,7.378773193359375,-0.492518144249916,0.4822650457829237,-0.1258764966830611
1772615919076841500,7.388841552734375,-0.012464344775676726,0.5304471851497888,0.21693404731079935
1772615919086909200,7.3989091796875,0.43749826781749723,0.5380436316281557,0.44539015357848255
1772615919096977200,7.40897705078125,0.771843911935389,0.48183425315022466,0.5883194553386419
1772615919107045000,7.419045166015625,1.0197966362357138,0.4000023576378822,0.6542880112867802
1772615919117113300,7.42911328125,1.0972399414002896,0.31848376585841176,0.7348204415731132
1772615919127181300,7.439181396484375,1.0110212091058493,0.180452428740263,0.7051322825349867
1772615919137249300,7.449249267578125,0.7880810532480478,0.09706745856702327,0.6161315183065831
1772615919147318300,7.459318359375,0.4685615146011114,0.0890448956310749,0.462474194044061
1772615919157386200,7.46938623046875,0.09790537069588899,0.025564649367332458,0.36519908407572654
1772615919167454200,7.4794541015625,-0.17610475492477415,0.034438276174664495,0.3027888416636735
1772615919177522200,7.489522216796875,-0.35151509784460067,0.08491758656799793,0.3104099476592615
1772615919187590400,7.49959033203125,-0.5357894229605794,0.10031740027368068,0.371225431693159
1772615919197658400,7.509658447265625,-0.7766361146479844,0.20860534103512762,0.4206578268494457
1772615919207726300,7.519726318359375,-0.9411404481500386,0.3246288444846868,0.4995803742537275
1772615919217794300,7.529794189453125,-0.9861433729588985,0.3349503320127725,0.5619295341283083
1772615919227862300,7.5398623046875,-0.9735065942257642,0.3733113345891237,0.575202784134075
1772615919237930200,7.54993017578125,-0.9006134997114539,0.45778409999907016,0.6014147184289992
1772615919247998200,7.559998291015625,-0.8527297587692737,0.5932885489881038,0.6401162050060928
1772615919258066200,7.570066162109375,-0.6875643310099839,0.45083822638392446,0.517162135108374
1772615919268134400,7.580134521484375,-0.41572190481722354,0.32579671922028064,0.3060037851221859
1772615919278202400,7.590202392578125,-0.15335136358588933,0.23377485360503195,0.14508914667516945
1772615919288270300,7.600270263671875,0.050265375381708145,0.22076047373116015,0.13425335294939578
1772615919298338000,7.610338134765625,0.2086477188721299,0.2732435251623392,0.25212902360428124
1772615919308406300,7.62040625,0.312793153001368,0.29550270324349404,0.44002928413245823
1772615919318474200,7.63047412109375,0.3554799098223448,0.2765110025256872,0.5714301702601835
1772615919328543200,7.640543212890625,0.39226884077638385,0.22783026598691938,0.6254812381930649
1772615919338611500,7.650611572265625,0.3185539084851742,0.12928572060465812,0.6078469799662009
1772615919348679400,7.660679443359375,0.1835553631916642,0.05106850845813751,0.4828902650091797
1772615919358747100,7.6707470703125,-0.021526772153377532,-0.015375263786315917,0.4276376392668113
1772615919368815000,7.680815185546875,-0.2695779883921146,-0.08492927700579166,0.4331464658161625
1772615919378883300,7.69088330078125,-0.41934067983627316,0.02866846060156822,0.43570484506208446
1772615919388951300,7.700951416015625,-0.4098194027751684,0.1463572669148445,0.4579114892384037
