time,seconds_elapsed,z,y,x
1772615911757368000,0.0693681640625,-0.8587372303009033,-1.0726243257522583,2.246721029281616
1772615911767436000,0.07943603515625,-0.9691335558891296,-1.0322200059890747,2.435093641281128
1772615911777504000,0.08950390625,-1.1037712097167969,-1.0524067878723145,2.619904041290283
1772615911787572000,0.099572021484375,-1.2587738037109375,-1.1079860925674438,2.8102946281433105
1772615911797640200,0.10964013671875,-1.4054077863693237,-1.1979635953903198,2.9636917114257812
1772615911807708000,0.1197080078125,-1.5126959085464478,-1.2927302122116089,3.075700283050537
1772615911817775900,0.12977587890625,-1.5624096393585205,-1.393352746963501,3.108372688293457
1772615911827843800,0.13984375,-1.5599607229232788,-1.5372833013534546,3.079648494720459
1772615911837912000,0.149912109375,-1.526023030281067,-1.6459461450576782,2.996229410171509
1772615911847980000,0.15997998046875,-1.4805184602737427,-1.6197359561920166,2.9016687870025635
1772615911858048000,0.170048095703125,-1.409145474433899,-1.560854434967041,2.787945032119751
1772615911868116000,0.180115966796875,-1.3054367303848267,-1.5424466133117676,2.636397361755371
1772615911878184200,0.19018408203125,-1.1974258422851562,-1.548406958580017,2.441896915435791
1772615911888252000,0.200251953125,-1.1203837394714355,-1.530000925064087,2.1945128440856934
1772615911898321000,0.21032080078125,-1.0904228687286377,-1.4399772882461548,1.9604448080062866
1772615911908389000,0.22038916015625,-1.0536936521530151,-1.3348509073257446,1.7626620531082153
1772615911918457000,0.23045703125,-0.9978157877922058,-1.2820327281951904,1.5600996017456055
1772615911928525000,0.240525146484375,-0.9397881627082825,-1.2751224040985107,1.3558775186538696
1772615911938593000,0.250593017578125,-0.8893353939056396,-1.1963211297988892,1.1675227880477905
1772615911948661000,0.260660888671875,-0.784210205078125,-1.0350295305252075,0.989631175994873
1772615911958729000,0.27072900390625,-0.6161724925041199,-0.8814955949783325,0.8076382279396057
1772615911968797000,0.280796875,-0.45327460765838623,-0.7588483095169067,0.6517233848571777
1772615911978865000,0.290864990234375,-0.35161030292510986,-0.6454885005950928,0.5469996333122253
1772615911988933000,0.30093310546875,-0.3115200996398926,-0.5756955146789551,0.4755921959877014
1772615911999001000,0.3110009765625,-0.28898337483406067,-0.5109497904777527,0.43321916460990906
1772615912009069000,0.321069091796875,-0.2493157684803009,-0.43359872698783875,0.4101877808570862
1772615912019137000,0.331136962890625,-0.22848479449748993,-0.33985039591789246,0.39008304476737976
1772615912029205000,0.341205078125,-0.25669750571250916,-0.2223292887210846,0.3893980085849762
1772615912039273000,0.35127294921875,-0.2957705855369568,-0.19691075384616852,0.38447943329811096
1772615912049341000,0.3613408203125,-0.3218751847743988,-0.1695103496313095,0.364327609539032
1772615912059409000,0.371408935546875,-0.3041137754917145,-0.08859127014875412,0.3191604018211365
1772615912069477000,0.38147705078125,-0.22805875539779663,-0.02555464394390583,0.2579152286052704
1772615912079545000,0.391545166015625,-0.13673549890518188,-0.03254890441894531,0.1892874538898468
1772615912089613000,0.401613037109375,-0.06155010312795639,-0.09358823299407959,0.13562431931495667
1772615912099681000,0.411680908203125,-0.00655742734670639,-0.1769140064716339,0.08796758204698563
1772615912109749000,0.4217490234375,0.04635609686374664,-0.20968933403491974,0.05767125263810158
1772615912119818000,0.43181787109375,0.06944303959608078,-0.1873435527086258,0.03830421343445778
1772615912129886000,0.441885986328125,0.05217740312218666,-0.153039813041687,0.007862591184675694
1772615912139954200,0.4519541015625,0.009578809142112732,-0.11859822273254395,-0.02040286920964718
1772615912150022100,0.462022216796875,-0.05668989568948746,-0.0750156044960022,-0.04967165365815163
1772615912160089900,0.47208984375,-0.1303124576807022,-0.02543819695711136,-0.07761114090681076
1772615912170157800,0.48215771484375,-0.1959921270608902,0.030659519135951996,-0.09489136934280396
1772615912180226000,0.49222607421875,-0.22849041223526,0.022296927869319916,-0.0932127833366394
1772615912190294000,0.5022939453125,-0.25962597131729126,-0.0010683154687285423,-0.10180254280567169
1772615912200362000,0.512362060546875,-0.26164835691452026,0.019050322473049164,-0.11766241490840912
1772615912210430000,0.522429931640625,-0.23457500338554382,0.11495020240545273,-0.13785307109355927
1772615912220498200,0.532498291015625,-0.17714819312095642,0.23444624245166779,-0.15469437837600708
1772615912230566100,0.542566162109375,-0.12143909931182861,0.33413630723953247,-0.15038834512233734
1772615912240633900,0.5526337890625,-0.08038035035133362,0.40449222922325134,-0.1125783920288086
1772615912250701800,0.562701904296875,-0.05208167806267738,0.4298681914806366,-0.050086356699466705
1772615912260770000,0.57277001953125,-0.03232847899198532,0.4139600694179535,0.024782823398709297
1772615912270838000,0.582838134765625,-0.02880898304283619,0.36464187502861023,0.0940503180027008
1772615912280906000,0.592906005859375,-0.050866082310676575,0.2800702750682831,0.1744420975446701
1772615912290974000,0.602973876953125,-0.07806479185819626,0.1903461068868637,0.2596043348312378
1772615912301042200,0.613042236328125,-0.09791306406259537,0.14964795112609863,0.34376609325408936
1772615912311110100,0.623110107421875,-0.09929068386554718,0.19234821200370789,0.41544902324676514
1772615912321177900,0.633177734375,-0.0784706249833107,0.2794266641139984,0.4507923424243927
1772615912331245800,0.643245849609375,-0.05326799303293228,0.38527485728263855,0.4517168402671814
1772615912341315000,0.653315185546875,-0.01854676753282547,0.47771531343460083,0.42850980162620544
1772615912351383000,0.663383056640625,0.02599339187145233,0.5428817868232727,0.39220136404037476
1772615912361451000,0.673450927734375,0.08270860463380814,0.5643292665481567,0.3513351380825043
1772615912371519000,0.68351904296875,0.14628566801548004,0.5550510883331299,0.31659218668937683
1772615912381587000,0.6935869140625,0.2142905592918396,0.5024251341819763,0.2713299095630646
1772615912391655000,0.703655029296875,0.28138497471809387,0.42467936873435974,0.2068067342042923
1772615912401723000,0.713722900390625,0.35059893131256104,0.3354831635951996,0.12477311491966248
1772615912411791000,0.723791015625,0.4078594148159027,0.2410380244255066,0.03226852789521217
1772615912421859000,0.733859130859375,0.4438339173793793,0.16011200845241547,-0.06148539483547211
1772615912431927000,0.743927001953125,0.44890475273132324,0.10513366013765335,-0.14486266672611237
1772615912441995000,0.7539951171875,0.40533730387687683,0.08540629595518112,-0.21172212064266205
1772615912452063000,0.76406298828125,0.33272993564605713,0.11399441957473755,-0.26399660110473633
1772615912462131000,0.774130859375,0.2508704960346222,0.1902998387813568,-0.31320276856422424
1772615912472199000,0.784198974609375,0.1590268611907959,0.3260806202888489,-0.35532087087631226
1772615912482267000,0.794266845703125,0.05856150761246681,0.44701290130615234,-0.39004769921302795
1772615912492335000,0.804335205078125,-0.027387233451008797,0.5630137324333191,-0.4179547131061554
1772615912502403000,0.814403076171875,-0.0820813775062561,0.6508285403251648,-0.43009793758392334
1772615912512471000,0.824470947265625,-0.1022166833281517,0.69315105676651,-0.449942022562027
1772615912522539000,0.8345390625,-0.09737345576286316,0.7031807899475098,-0.48680442571640015
1772615912532607000,0.84460693359375,-0.07839875668287277,0.6565713882446289,-0.5231074690818787
1772615912542675000,0.854675048828125,-0.045009635388851166,0.6171821355819702,-0.5298849940299988
1772615912552743000,0.864742919921875,0.01622280292212963,0.5954453349113464,-0.5008047819137573
1772615912562812200,0.874812255859375,0.079847052693367,0.5740995407104492,-0.46072980761528015
1772615912572880100,0.884880126953125,0.12486573308706284,0.5781764388084412,-0.42703908681869507
1772615912582948000,0.894947998046875,0.13810908794403076,0.605913519859314,-0.4173702001571655
1772615912593015800,0.905015869140625,0.11229068040847778,0.6470000743865967,-0.42235058546066284
1772615912603084000,0.915083984375,0.05959098041057587,0.6959567070007324,-0.431717187166214
1772615912613152000,0.925152099609375,0.00965908169746399,0.7336523532867432,-0.43004998564720154
1772615912623220000,0.935219970703125,-0.009992649778723717,0.7688963413238525,-0.40386897325515747
1772615912633288000,0.945287841796875,-0.00036148226354271173,0.7770233154296875,-0.3604043126106262
1772615912643356200,0.955356201171875,0.028396930545568466,0.7337192893028259,-0.3052569031715393
1772615912653424000,0.965424072265625,0.07090058922767639,0.7027840614318848,-0.25803107023239136
1772615912663491800,0.975491943359375,0.12068811804056168,0.7171736359596252,-0.21166518330574036
1772615912673559800,0.985559814453125,0.1525311917066574,0.7208291888237,-0.16949333250522614
1772615912683628000,0.9956279296875,0.17540854215621948,0.7011191248893738,-0.11851004511117935
1772615912693696000,1.005696044921875,0.19954383373260498,0.6676899790763855,-0.06772831827402115
1772615912703764000,1.015763916015625,0.23206210136413574,0.6279465556144714,-0.029502635821700096
1772615912713832000,1.02583203125,0.2680029571056366,0.5864464044570923,0.013272698037326336
1772615912723900200,1.035900146484375,0.2880222201347351,0.5523731112480164,0.054338909685611725
1772615912733968100,1.045968017578125,0.29749566316604614,0.5537819862365723,0.08915136009454727
1772615912744035800,1.056035888671875,0.3085017204284668,0.591756284236908,0.09803672879934311
1772615912754103800,1.066103759765625,0.31469473242759705,0.6319425702095032,0.09219120442867279
1772615912764171800,1.076171875,0.3025304675102234,0.6660366058349609,0.08387068659067154
1772615912774241000,1.086240966796875,0.2742783725261688,0.6813651919364929,0.0782230794429779
1772615912784309000,1.09630908203125,0.23117192089557648,0.6637957692146301,0.08943844586610794
1772615912794377000,1.106376953125,0.1845802366733551,0.6375367641448975,0.1187027171254158
1772615912804444700,1.116444580078125,0.13510935008525848,0.6429829001426697,0.16133779287338257
1772615912814513000,1.126512939453125,0.08889666199684143,0.6527358293533325,0.19195573031902313
1772615912824580900,1.136580810546875,0.06236039474606514,0.6480692028999329,0.21254542469978333
1772615912834648800,1.14664892578125,0.06279069185256958,0.652793824672699,0.218804270029068
1772615912844716800,1.156716796875,0.07510967552661896,0.6531112790107727,0.2220410853624344
1772615912854785000,1.166784912109375,0.08423137664794922,0.6306597590446472,0.227211132645607
1772615912864853000,1.17685302734375,0.08439303189516068,0.6080436706542969,0.22909530997276306
1772615912874921000,1.1869208984375,0.08040530234575272,0.5868663787841797,0.22005237638950348
1772615912884988700,1.19698876953125,0.07601535320281982,0.5719124674797058,0.19980968534946442
1772615912895057000,1.207056884765625,0.07780981808900833,0.5863368511199951,0.18656916916370392
1772615912905124900,1.217124755859375,0.07967616617679596,0.575661838054657,0.17891710996627808
1772615912915192800,1.22719287109375,0.09730038046836853,0.5134307742118835,0.16976338624954224
1772615912925260800,1.2372607421875,0.13193506002426147,0.41903212666511536,0.15349121391773224
1772615912935329000,1.2473291015625,0.1694532334804535,0.3396907448768616,0.11667653173208237
1772615912945397000,1.25739697265625,0.19682973623275757,0.263484925031662,0.07995926588773727
1772615912955465000,1.26746484375,0.2122735232114792,0.21888598799705505,0.03286396712064743
1772615912965532700,1.27753271484375,0.2233847677707672,0.22872395813465118,-0.02598923072218895
1772615912975601000,1.287600830078125,0.22050750255584717,0.2668638527393341,-0.10105419903993607
1772615912985670000,1.297669921875,0.19978570938110352,0.3242160677909851,-0.1698785424232483
1772615912995737900,1.30773779296875,0.16522915661334991,0.38723719120025635,-0.23363210260868073
1772615913005806000,1.31780615234375,0.1326344609260559,0.44800546765327454,-0.28140789270401
1772615913015873800,1.327873779296875,0.12329913675785065,0.48725825548171997,-0.3112826943397522
1772615913025941800,1.337941650390625,0.1288054883480072,0.49452468752861023,-0.3019839823246002
1772615913036009700,1.348009765625,0.14864039421081543,0.4726965129375458,-0.2620641589164734
1772615913046078000,1.358077880859375,0.1759665608406067,0.4320441484451294,-0.20954370498657227
1772615913056146000,1.36814599609375,0.19942612946033478,0.41004684567451477,-0.15196813642978668
1772615913066214000,1.3782138671875,0.20189781486988068,0.425427109003067,-0.08552705496549606
1772615913076281900,1.38828173828125,0.1905135065317154,0.45300695300102234,-0.015272933058440685
1772615913086350000,1.39835009765625,0.1567818969488144,0.48383331298828125,0.05989638715982437
1772615913096417800,1.408417724609375,0.10014169663190842,0.501383900642395,0.13279420137405396
1772615913106485800,1.41848583984375,0.045491766184568405,0.5029783248901367,0.20309020578861237
1772615913116553700,1.4285537109375,-0.00782463513314724,0.507770299911499,0.2599208950996399
1772615913126622000,1.4386220703125,-0.06627222895622253,0.542141318321228,0.29296940565109253
1772615913136690000,1.44868994140625,-0.13085056841373444,0.5925896167755127,0.3053685128688812
1772615913146758000,1.4587578125,-0.1765802502632141,0.6081672310829163,0.3181024193763733
1772615913156825900,1.468825927734375,-0.18964533507823944,0.584287703037262,0.3181794583797455
1772615913166894000,1.47889404296875,-0.17091798782348633,0.5231103897094727,0.3100048899650574
1772615913176961800,1.4889619140625,-0.13038736581802368,0.43185725808143616,0.2819112241268158
1772615913187029800,1.49902978515625,-0.08271545171737671,0.33228087425231934,0.22959263622760773
1772615913197097700,1.50909765625,-0.04603760689496994,0.23147210478782654,0.15636183321475983
1772615913207167000,1.5191669921875,-0.015310321003198624,0.1615268439054489,0.05085005983710289
1772615913217235000,1.52923486328125,0.015454930253326893,0.13321083784103394,-0.06999994069337845
1772615913227303000,1.539302978515625,0.04700326919555664,0.10914091020822525,-0.19216233491897583
1772615913237371000,1.549370849609375,0.0769612193107605,0.07954080402851105,-0.3090728223323822
1772615913247438800,1.55943896484375,0.10497128218412399,0.04346643015742302,-0.40811845660209656
1772615913257506800,1.5695068359375,0.1442270129919052,0.02850920706987381,-0.48570898175239563
1772615913267574800,1.57957470703125,0.18367189168930054,0.04632681980729103,-0.5399783849716187
1772615913277643000,1.58964306640625,0.2098466008901596,0.09599064290523529,-0.5676772594451904
1772615913287711000,1.5997109375,0.208321675658226,0.17535176873207092,-0.5579096078872681
1772615913297779000,1.609779052734375,0.17742754518985748,0.2820548713207245,-0.5232304334640503
1772615913307847000,1.619846923828125,0.12804853916168213,0.4047967791557312,-0.4510335326194763
1772615913317915000,1.629914794921875,0.06455789506435394,0.4953910708427429,-0.35048380494117737
1772615913327982800,1.63998291015625,0.01514534279704094,0.5423766374588013,-0.22361508011817932
1772615913338050800,1.65005078125,-0.0005032739136368036,0.5625247955322266,-0.10900992155075073
1772615913348118800,1.660118896484375,0.026740863919258118,0.5546141862869263,-0.015603803098201752
1772615913358187000,1.67018701171875,0.09588674455881119,0.5175972580909729,0.04963251203298569
1772615913368255000,1.6802548828125,0.19757528603076935,0.48430320620536804,0.07827028632164001
1772615913378323000,1.690322998046875,0.3065999150276184,0.4632875621318817,0.07464008033275604
1772615913388390700,1.700390625,0.3902069330215454,0.4586632549762726,0.04880315437912941
1772615913398459000,1.710458984375,0.44456472992897034,0.45753172039985657,0.011694449000060558
1772615913408526800,1.72052685546875,0.4755766987800598,0.4543130397796631,-0.031318530440330505
1772615913418595800,1.730595947265625,0.5038830637931824,0.45977503061294556,-0.07641095668077469
1772615913428664000,1.7406640625,0.5267353653907776,0.468929648399353,-0.11484888941049576
1772615913438732000,1.75073193359375,0.5392467379570007,0.45755138993263245,-0.14381013810634613
1772615913448799700,1.7607998046875,0.5439037680625916,0.4413524270057678,-0.1506078541278839
1772615913458867700,1.77086767578125,0.5395001173019409,0.4105530381202698,-0.1343299150466919
1772615913468936000,1.78093603515625,0.5178803205490112,0.36649343371391296,-0.10515417903661728
1772615913479004000,1.79100390625,0.4838500916957855,0.34326472878456116,-0.08212292194366455
1772615913489071900,1.80107177734375,0.45653805136680603,0.3398153781890869,-0.06411568820476532
1772615913499139800,1.811139892578125,0.426727831363678,0.3683672845363617,-0.04942760244011879
1772615913509208000,1.8212080078125,0.39857369661331177,0.39004969596862793,-0.0417901910841465
1772615913519275800,1.83127587890625,0.3707813322544098,0.3883086144924164,-0.03350185230374336
1772615913529343700,1.84134375,0.33410775661468506,0.3868476152420044,-0.03415059670805931
1772615913539411700,1.85141162109375,0.292353093624115,0.3744790852069855,-0.021236663684248924
1772615913549480000,1.86147998046875,0.24499571323394775,0.35785192251205444,0.002810882171615958
1772615913559548000,1.8715478515625,0.20532748103141785,0.3270619213581085,0.030224725604057312
1772615913569616000,1.881615966796875,0.1760478913784027,0.3093002438545227,0.03395741432905197
1772615913579683800,1.891683837890625,0.15264461934566498,0.3045006990432739,0.03457275778055191
1772615913589752000,1.901751953125,0.11255047470331192,0.3149120509624481,0.024921195581555367
1772615913599819800,1.91181982421875,0.049016546458005905,0.33100128173828125,0.01627807691693306
1772615913609887700,1.9218876953125,-0.03254382684826851,0.3431120216846466,0.01803017035126686
1772615913619955700,1.931955810546875,-0.10556213557720184,0.3565417230129242,0.01285330206155777
1772615913630024000,1.94202392578125,-0.1606016904115677,0.37569305300712585,0.0032805700320750475
1772615913640093000,1.952093017578125,-0.1759437769651413,0.37202590703964233,-0.006468379870057106
1772615913650161000,1.962160888671875,-0.16672924160957336,0.3524993360042572,-0.008648177608847618
1772615913660228900,1.972228759765625,-0.14242106676101685,0.3218839466571808,-0.006584629416465759
1772615913670296800,1.982296875,-0.1162554994225502,0.29173722863197327,-0.000170406186953187
1772615913680364800,1.99236474609375,-0.1005190834403038,0.275847464799881,0.005289760883897543
1772615913690432800,2.002432861328125,-0.09556906670331955,0.2818598449230194,0.015736542642116547
1772615913700501000,2.0125009765625,-0.1058008074760437,0.28093525767326355,0.028741028159856796
1772615913710569000,2.02256884765625,-0.12730556726455688,0.27713918685913086,0.03419172018766403
1772615913720637000,2.032636962890625,-0.1411590576171875,0.28635796904563904,0.03037860430777073
1772615913730705000,2.042704833984375,-0.1322888731956482,0.29130691289901733,-0.0006067404756322503
1772615913740772900,2.05277294921875,-0.10677924752235413,0.28840234875679016,-0.04977748915553093
1772615913750840800,2.0628408203125,-0.06899431347846985,0.26318514347076416,-0.09475614875555038
1772615913760909800,2.072909912109375,-0.0211940947920084,0.21278882026672363,-0.13921724259853363
1772615913770978000,2.08297802734375,0.03693205863237381,0.12704302370548248,-0.17524155974388123
1772615913781046000,2.0930458984375,0.08148045837879181,0.046677619218826294,-0.19498059153556824
1772615913791113700,2.10311376953125,0.10395487397909164,0.024736369028687477,-0.19661496579647064
1772615913801181700,2.113181640625,0.0993996113538742,0.07855745404958725,-0.19926923513412476
1772615913811250000,2.12325,0.06324027478694916,0.18107931315898895,-0.19424624741077423
1772615913821318000,2.13331787109375,0.021713895723223686,0.3008766174316406,-0.17683163285255432
1772615913831385900,2.1433857421875,-0.010673869401216507,0.3878016471862793,-0.1440156251192093
1772615913841453800,2.153453857421875,-0.017251765355467796,0.4439324140548706,-0.0965319350361824
1772615913851522800,2.163522705078125,-0.0055596898309886456,0.4798496663570404,-0.04861048236489296
1772615913861590800,2.1735908203125,0.017447633668780327,0.47817671298980713,-0.0007635761285200715
1772615913871658800,2.18365869140625,0.0640079453587532,0.46332159638404846,0.041783615946769714
1772615913881726700,2.193726806640625,0.12263061106204987,0.4389441907405853,0.07101237028837204
1772615913891795000,2.203794921875,0.17428715527057648,0.44058364629745483,0.08595749735832214
1772615913901863000,2.21386279296875,0.21270111203193665,0.48547402024269104,0.09514700621366501
1772615913911931000,2.223930908203125,0.22171884775161743,0.5306884050369263,0.09500133246183395
1772615913921998800,2.233998779296875,0.21160781383514404,0.5601686835289001,0.07312681525945663
1772615913932066800,2.24406689453125,0.19511298835277557,0.5955996513366699,0.043446410447359085
1772615913942134800,2.254134765625,0.18752522766590118,0.6061614155769348,0.007544081192463636
1772615913952202800,2.26420263671875,0.19859358668327332,0.57804936170578,-0.012906333431601524
1772615913962270700,2.274270751953125,0.2212696224451065,0.5242243409156799,-0.016579637303948402
1772615913972339000,2.2843388671875,0.2527165114879608,0.4828891456127167,-0.01661505736410618
1772615913982407000,2.294406982421875,0.2784407436847687,0.45422452688217163,-0.015120182186365128
1772615913992475000,2.304474853515625,0.29773402214050293,0.4195331335067749,-0.005644388031214476
1772615914002542800,2.31454296875,0.3073459267616272,0.394269734621048,0.012089511379599571
1772615914012610800,2.32461083984375,0.30691930651664734,0.37926867604255676,0.032626744359731674
1772615914022678800,2.3346787109375,0.3014430105686188,0.3553944528102875,0.04640040174126625
1772615914032746800,2.344746826171875,0.30326300859451294,0.3235800564289093,0.05657926946878433
1772615914042815000,2.35481494140625,0.31241339445114136,0.2836515009403229,0.0635196715593338
1772615914052883000,2.364883056640625,0.31802892684936523,0.2516607940196991,0.05989084765315056
1772615914062951700,2.37495166015625,0.3177989423274994,0.20539669692516327,0.06808657944202423
1772615914073019600,2.38501953125,0.3131019175052643,0.14705908298492432,0.08037307113409042
1772615914083088000,2.395087890625,0.29729393124580383,0.07920964807271957,0.11268763989210129
1772615914093155800,2.40515576171875,0.2708689570426941,0.02923782542347908,0.1369791328907013
1772615914103223800,2.415223876953125,0.2283833920955658,0.021391360089182854,0.16241423785686493
1772615914113291800,2.425291748046875,0.18320845067501068,0.034939125180244446,0.17724858224391937
1772615914123360000,2.435360107421875,0.13578398525714874,0.08603759855031967,0.17954492568969727
1772615914133428000,2.445427978515625,0.06950244307518005,0.1565495878458023,0.18856771290302277
1772615914143495700,2.45549560546875,0.00016733561642467976,0.19218328595161438,0.20612986385822296
1772615914153563600,2.465563720703125,-0.07344669848680496,0.19541209936141968,0.22537200152873993
1772615914163631900,2.4756318359375,-0.1295919418334961,0.18903397023677826,0.23775453865528107
1772615914173699800,2.485699951171875,-0.16315630078315735,0.171139657497406,0.23101568222045898
1772615914183767800,2.495767822265625,-0.1719094067811966,0.13972674310207367,0.208783820271492
1772615914193836000,2.5058359375,-0.15715976059436798,0.09797076880931854,0.1586759239435196
1772615914203904000,2.515904052734375,-0.12465552985668182,0.07865652441978455,0.09043730795383453
1772615914213972000,2.525971923828125,-0.08147583156824112,0.07186999171972275,0.021603114902973175
1772615914224039700,2.536039794921875,-0.04606914892792702,0.03686564415693283,-0.04137761518359184
1772615914234108000,2.54610791015625,-0.0366857685148716,-0.0007765379268676043,-0.08904927223920822
1772615914244176000,2.55617578125,-0.03959043696522713,-0.030171960592269897,-0.12034043669700623
1772615914254243800,2.566243896484375,-0.032716285437345505,-0.05943530425429344,-0.14700055122375488
1772615914264311800,2.576311767578125,-0.019054125994443893,-0.08902434259653091,-0.16236542165279388
1772615914274380800,2.586380859375,0.0023398473858833313,-0.11138610541820526,-0.1834547370672226
1772615914284448800,2.59644873046875,0.02198408916592598,-0.12842489778995514,-0.1946559101343155
1772615914294516700,2.606516845703125,0.037905000150203705,-0.1086525246500969,-0.21350815892219543
1772615914304584700,2.616584716796875,0.04170079529285431,-0.05515879765152931,-0.22849693894386292
1772615914314653000,2.62665283203125,0.031676921993494034,-0.01393013447523117,-0.22959069907665253
1772615914324721000,2.636720947265625,0.022107942029833794,0.0014925654977560043,-0.21748776733875275
1772615914334788900,2.646788818359375,0.025303468108177185,0.002809232333675027,-0.19078823924064636
1772615914344856800,2.65685693359375,0.048757366836071014,-0.001468234695494175,-0.17275989055633545
1772615914354924800,2.6669248046875,0.05687921121716499,-0.019322864711284637,-0.1449735313653946
1772615914364992800,2.67699267578125,0.05636252462863922,-0.04134809970855713,-0.11552160233259201
1772615914375060700,2.687060791015625,0.05136803165078163,-0.062313832342624664,-0.08914858102798462
1772615914385128700,2.697128662109375,0.0416911356151104,-0.0564236156642437,-0.06956706941127777
1772615914395197000,2.707197021484375,0.03852969780564308,-0.025535741820931435,-0.04687613621354103
1772615914405265000,2.717264892578125,0.029586805030703545,0.021811001002788544,-0.021799545735120773
1772615914415332900,2.727332763671875,0.015739433467388153,0.061828192323446274,0.008518410846590996
1772615914425401000,2.737401123046875,0.0017090907786041498,0.08635605126619339,0.048845335841178894
1772615914435468800,2.74746875,-0.01710161566734314,0.0979519933462143,0.09489458054304123
1772615914445536800,2.757536865234375,-0.013495197519659996,0.10415590554475784,0.13379357755184174
1772615914455604700,2.767604736328125,0.007502230349928141,0.0944734513759613,0.16758376359939575
1772615914465673000,2.7776728515625,0.03623383119702339,0.07144541293382645,0.1948855221271515
1772615914475741000,2.787740966796875,0.06145929545164108,0.04487266018986702,0.2204103171825409
1772615914485809000,2.797808837890625,0.06183132901787758,0.040942780673503876,0.2534215450286865
1772615914495877600,2.807877685546875,0.04047437384724617,0.03999149799346924,0.27525120973587036
1772615914505945900,2.81794580078125,0.005448000971227884,0.037668049335479736,0.28881195187568665
1772615914516013800,2.828013916015625,-0.027094228193163872,0.04267905279994011,0.2899134159088135
1772615914526081800,2.838081787109375,-0.02912423014640808,0.028582485392689705,0.26552367210388184
1772615914536149800,2.848149658203125,0.010035156272351742,-0.0038404364604502916,0.21528899669647217
1772615914546218000,2.858218017578125,0.06271173804998398,-0.06566256284713745,0.1576727032661438
1772615914556286000,2.868285888671875,0.1224973127245903,-0.17381858825683594,0.08959271758794785
1772615914566354000,2.87835400390625,0.17021991312503815,-0.2853308320045471,0.007032690569758415
1772615914576421600,2.888421630859375,0.1996430605649948,-0.3676337003707886,-0.0835917517542839
1772615914586489900,2.89848974609375,0.20347173511981964,-0.38291096687316895,-0.16647383570671082
1772615914596557800,2.908557861328125,0.17103949189186096,-0.31238940358161926,-0.2453041970729828
1772615914606625800,2.918625732421875,0.11022436618804932,-0.15210042893886566,-0.3107239902019501
1772615914616694000,2.928694091796875,0.034019872546195984,0.029108766466379166,-0.34785646200180054
1772615914626762000,2.938761962890625,-0.046256862580776215,0.1785346418619156,-0.3308531939983368
1772615914636830000,2.948829833984375,-0.09982820600271225,0.2675745189189911,-0.2609553635120392
1772615914646898000,2.95889794921875,-0.10365089029073715,0.29559797048568726,-0.14700165390968323
1772615914656966000,2.9689658203125,-0.051193539053201675,0.2854696810245514,-0.011855028569698334
1772615914667033900,2.979033935546875,0.03639461472630501,0.26355433464050293,0.11537753790616989
1772615914677101800,2.989101806640625,0.1223641186952591,0.24968378245830536,0.2321222573518753
1772615914687169800,2.999169677734375,0.18428482115268707,0.22732886672019958,0.3361222743988037
1772615914697239000,3.009239013671875,0.20730625092983246,0.2064257115125656,0.42942318320274353
1772615914707306800,3.019306640625,0.18992528319358826,0.17935296893119812,0.5084396600723267
1772615914717374700,3.029374755859375,0.15131238102912903,0.15314613282680511,0.5598887205123901
1772615914727442700,3.039442626953125,0.11211669445037842,0.1367323398590088,0.5819177627563477
1772615914737511000,3.049510986328125,0.0790434330701828,0.13288486003875732,0.570532500743866
1772615914747579000,3.059578857421875,0.054837364703416824,0.1310780942440033,0.5401257276535034
1772615914757646600,3.069646484375,0.030630825087428093,0.10328773409128189,0.4873304069042206
1772615914767714600,3.079714599609375,0.010923434048891068,0.0577990859746933,0.42428115010261536
1772615914777782500,3.089782470703125,0.0009703147225081921,0.011173201724886894,0.33934643864631653
1772615914787850500,3.0998505859375,-0.0028439871966838837,-0.0258598942309618,0.23741018772125244
1772615914797918500,3.10991845703125,-0.01583195850253105,-0.07065399736166,0.13695095479488373
1772615914807986400,3.119986328125,-0.028603605926036835,-0.11954819411039352,0.031591664999723434
1772615914818054400,3.130054443359375,-0.04026825353503227,-0.1371878981590271,-0.06461476534605026
1772615914828122400,3.140122314453125,-0.04832746088504791,-0.14001791179180145,-0.15566648542881012
1772615914838190600,3.150190673828125,-0.05301515758037567,-0.12285944074392319,-0.23306672275066376
1772615914848258600,3.160258544921875,-0.043917085975408554,-0.10316411405801773,-0.28115370869636536
1772615914858326500,3.170326416015625,-0.037061043083667755,-0.081569604575634,-0.3143497407436371
1772615914868394500,3.18039453125,-0.02482437714934349,-0.05897591635584831,-0.3043918311595917
1772615914878462500,3.19046240234375,-0.0038778167217969894,-0.05211508274078369,-0.2646186053752899
1772615914888530400,3.200530517578125,0.026483988389372826,-0.0559222474694252,-0.1932227909564972
1772615914898599400,3.210599365234375,0.05809597671031952,-0.06626303493976593,-0.09930188208818436
1772615914908667600,3.220667724609375,0.08859211206436157,-0.07701516151428223,0.006151297129690647
1772615914918735600,3.230735595703125,0.11234830319881439,-0.07384306937456131,0.0954098030924797
1772615914928803300,3.24080322265625,0.11879655718803406,-0.05427921563386917,0.15869301557540894
1772615914938871300,3.250871337890625,0.1098771020770073,-0.04517652839422226,0.19897572696208954
1772615914948939500,3.260939453125,0.08744239062070847,-0.03414269536733627,0.1978933960199356
1772615914959007500,3.271007568359375,0.0724722295999527,-0.006097743753343821,0.1555989384651184
1772615914969075500,3.281075439453125,0.06892818957567215,0.04407147318124771,0.08821412920951843
1772615914979143400,3.291143310546875,0.07792088389396667,0.08057462424039841,0.008282278664410114
1772615914989211600,3.301211669921875,0.08925601840019226,0.08048796653747559,-0.05159158259630203
1772615914999279600,3.311279541015625,0.11164761334657669,0.0719301626086235,-0.09904991090297699
1772615915009347300,3.321347412109375,0.12800264358520508,0.07327219843864441,-0.12767840921878815
1772615915019415300,3.331415283203125,0.13648934662342072,0.07823633402585983,-0.1454257220029831
1772615915029483500,3.3414833984375,0.15021410584449768,0.08326313644647598,-0.14653368294239044
1772615915039551500,3.351551513671875,0.1622294932603836,0.08391774445772171,-0.14019829034805298
1772615915049619500,3.361619384765625,0.18380622565746307,0.10119430720806122,-0.1371522843837738
1772615915059687400,3.3716875,0.21083757281303406,0.1310661882162094,-0.1346326619386673
1772615915069755600,3.381755615234375,0.2401096075773239,0.15982627868652344,-0.1264352947473526
1772615915079823600,3.39182373046875,0.25599777698516846,0.20114868879318237,-0.113993801176548
1772615915089891300,3.401891357421875,0.2711418867111206,0.23972953855991364,-0.09304092824459076
1772615915099959300,3.411959228515625,0.2809649407863617,0.264380544424057,-0.06392964720726013
1772615915110028500,3.422028564453125,0.2899756133556366,0.2812376618385315,-0.04949476197361946
1772615915120096500,3.432096435546875,0.29292452335357666,0.312280535697937,-0.03216636925935745
1772615915130164500,3.44216455078125,0.2908337414264679,0.35501399636268616,-0.035605963319540024
1772615915140232400,3.452232421875,0.29036155343055725,0.39211714267730713,-0.049757733941078186
1772615915150300400,3.462300537109375,0.2880037724971771,0.419960618019104,-0.06360544264316559
1772615915160368400,3.472368408203125,0.3002159595489502,0.45301151275634766,-0.05880775302648544
1772615915170436400,3.482436279296875,0.3230748176574707,0.48341044783592224,-0.032559145241975784
1772615915180504600,3.492504638671875,0.36126482486724854,0.5003218054771423,0.032243553549051285
1772615915190572500,3.502572509765625,0.3960529863834381,0.49523481726646423,0.1321723908185959
1772615915200640500,3.512640625,0.40386325120925903,0.4708794057369232,0.24823349714279175
1772615915210708500,3.52270849609375,0.3766861855983734,0.4466961920261383,0.35003870725631714
1772615915220776400,3.5327763671875,0.330058753490448,0.4224576950073242,0.4151977300643921
1772615915230844400,3.542844482421875,0.2708226442337036,0.39922767877578735,0.4350073039531708
1772615915240912400,3.552912353515625,0.22186440229415894,0.40371590852737427,0.39915451407432556
1772615915250980400,3.56298046875,0.18864454329013824,0.42188432812690735,0.32375001907348633
1772615915261048600,3.573048583984375,0.17446213960647583,0.4534909725189209,0.22049660980701447
1772615915271116500,3.583116455078125,0.17208322882652283,0.4810689091682434,0.1022619903087616
1772615915281184500,3.5931845703125,0.17127574980258942,0.49539992213249207,-0.008925250731408596
1772615915291252500,3.60325244140625,0.17691688239574432,0.5000537037849426,-0.09568686783313751
1772615915301320400,3.613320556640625,0.15708458423614502,0.4964088797569275,-0.15330888330936432
1772615915311389400,3.623389404296875,0.12021984905004501,0.5049006342887878,-0.18781104683876038
1772615915321457400,3.63345751953125,0.07869530469179153,0.49087589979171753,-0.18858416378498077
1772615915331525600,3.643525634765625,0.03154666721820831,0.4640278220176697,-0.16118550300598145
1772615915341593600,3.653593505859375,-0.02292190119624138,0.4234074354171753,-0.12279709428548813
1772615915351661600,3.66366162109375,-0.07143604010343552,0.38297542929649353,-0.09162876754999161
1772615915361729300,3.673729248046875,-0.09502871334552765,0.3172081410884857,-0.0929424986243248
1772615915371797500,3.683797607421875,-0.08328491449356079,0.260407954454422,-0.12024509906768799
1772615915381865500,3.693865478515625,-0.03456452116370201,0.2200184315443039,-0.17298634350299835
1772615915391933400,3.703933349609375,0.03621378913521767,0.18283790349960327,-0.23368191719055176
1772615915402001400,3.71400146484375,0.09672533720731735,0.14961977303028107,-0.26785826683044434
1772615915412069600,3.724069580078125,0.12486612796783447,0.13924257457256317,-0.27812016010284424
1772615915422137600,3.7341376953125,0.10397016257047653,0.1670643538236618,-0.2573474943637848
1772615915432205300,3.744205322265625,0.04638184234499931,0.2324557900428772,-0.21497875452041626
1772615915442273300,3.754273193359375,-0.03924570977687836,0.31499728560447693,-0.14892835915088654
1772615915452341500,3.764341552734375,-0.13635173439979553,0.3955438435077667,-0.07456470280885696
1772615915462409500,3.774409423828125,-0.2067878097295761,0.4699946343898773,-0.006067930720746517
1772615915472477400,3.7844775390625,-0.23972411453723907,0.5282204747200012,0.040057599544525146
1772615915482545400,3.79454541015625,-0.22543838620185852,0.5653998255729675,0.061649441719055176
1772615915492613600,3.804613525390625,-0.180136039853096,0.5710592865943909,0.07765481621026993
1772615915502682400,3.814682373046875,-0.10733826458454132,0.5661457777023315,0.0841987356543541
1772615915512750300,3.824750244140625,-0.018172282725572586,0.5308017730712891,0.08879104256629944
1772615915522818600,3.834818603515625,0.05811582878232002,0.4770687520503998,0.08931435644626617
1772615915532886500,3.844886474609375,0.10869446396827698,0.4172651171684265,0.08254778385162354
1772615915542954500,3.85495458984375,0.14449775218963623,0.3936109244823456,0.07126716524362564
1772615915553022500,3.8650224609375,0.18053631484508514,0.4173935353755951,0.0742402970790863
1772615915563090700,3.875090576171875,0.2137153148651123,0.4532245099544525,0.07793596386909485
1772615915573158400,3.885158447265625,0.22841517627239227,0.4932783842086792,0.07597797363996506
1772615915583226400,3.895226318359375,0.23779429495334625,0.5449109673500061,0.04981507733464241
1772615915593294300,3.90529443359375,0.22526386380195618,0.5827583074569702,0.010309980250895023
1772615915603362600,3.915362548828125,0.20152071118354797,0.5977561473846436,-0.04414980113506317
1772615915613430500,3.925430419921875,0.17310023307800293,0.5943595170974731,-0.09247094392776489
1772615915623498500,3.93549853515625,0.1389518529176712,0.5955560803413391,-0.14633071422576904
1772615915633566500,3.94556640625,0.11157520860433578,0.6164184808731079,-0.2096170037984848
1772615915643634400,3.955634521484375,0.09371019154787064,0.6669706106185913,-0.2753922939300537
1772615915653702400,3.965702392578125,0.10424093157052994,0.7353004217147827,-0.34053945541381836
1772615915663770400,3.975770263671875,0.12754306197166443,0.7948183417320251,-0.36992397904396057
1772615915673838300,3.98583837890625,0.1633216142654419,0.822547972202301,-0.3562319576740265
1772615915683906600,3.995906494140625,0.1956191062927246,0.8266319036483765,-0.3104162812232971
1772615915693974500,4.005974609375,0.2315274178981781,0.7958783507347107,-0.2209918051958084
1772615915704043300,4.016043212890625,0.2650645971298218,0.729209840297699,-0.0944857969880104
1772615915714111500,4.026111572265625,0.28492647409439087,0.626983106136322,0.037431489676237106
1772615915724179500,4.036179443359375,0.3044780492782593,0.5203099250793457,0.150993213057518
1772615915734247400,4.046247314453125,0.33008307218551636,0.44282886385917664,0.22145742177963257
1772615915744315400,4.0563154296875,0.3634740710258484,0.3951966166496277,0.25916749238967896
1772615915754383600,4.066383544921875,0.40337759256362915,0.3902139365673065,0.2680775225162506
1772615915764451600,4.07645166015625,0.4362143874168396,0.4068605601787567,0.25522270798683167
1772615915774519600,4.08651953125,0.47720786929130554,0.43176233768463135,0.22739802300930023
1772615915784587300,4.096587158203125,0.5271599888801575,0.4430980980396271,0.19574075937271118
1772615915794655500,4.106655517578125,0.566925585269928,0.43818047642707825,0.1735881268978119
1772615915804723500,4.116723388671875,0.563852846622467,0.421800434589386,0.16910123825073242
1772615915814791400,4.12679150390625,0.5167333483695984,0.42557838559150696,0.17102418839931488
1772615915824859400,4.136859375,0.4410499930381775,0.4794325530529022,0.16648589074611664
1772615915834927600,4.146927734375,0.3434634208679199,0.5458862781524658,0.15624810755252838
1772615915844995600,4.15699560546875,0.2419232279062271,0.5928244590759277,0.13407622277736664
1772615915855063600,4.1670634765625,0.18368364870548248,0.6535376906394958,0.10895431041717529
1772615915865131300,4.17713134765625,0.18295793235301971,0.7292811870574951,0.08691265434026718
1772615915875199500,4.187199462890625,0.2224566489458084,0.7905135750770569,0.08149892091751099
1772615915885267500,4.197267333984375,0.2920064330101013,0.8369662761688232,0.07797795534133911
1772615915895335400,4.20733544921875,0.37247851490974426,0.8511396646499634,0.07587534934282303
1772615915905404700,4.21740478515625,0.44964972138404846,0.8487350940704346,0.07200231403112411
1772615915915472400,4.227472412109375,0.5079485177993774,0.8547477722167969,0.08251737803220749
1772615915925540400,4.237540283203125,0.5491273999214172,0.8777127265930176,0.09481239318847656
1772615915935608300,4.2476083984375,0.563948929309845,0.9051386117935181,0.12259188294410706
1772615915945676500,4.257676513671875,0.5517058372497559,0.8998773097991943,0.15913738310337067
1772615915955744500,4.26774462890625,0.5200501680374146,0.8681212067604065,0.1833481788635254
1772615915965812500,4.2778125,0.49366065859794617,0.8512948155403137,0.192547008395195
1772615915975880400,4.28788037109375,0.4933527708053589,0.8431280851364136,0.1723133772611618
1772615915985948700,4.29794873046875,0.5115250945091248,0.8315207362174988,0.14396348595619202
1772615915996016400,4.308016357421875,0.5215049386024475,0.810710072517395,0.1026649996638298
1772615916006084400,4.31808447265625,0.514366865158081,0.7956637740135193,0.06132980063557625
1772615916016152300,4.32815234375,0.49640870094299316,0.8007285594940186,0.03977806121110916
1772615916026220500,4.338220458984375,0.4642427861690521,0.794338047504425,0.03734925761818886
1772615916036288500,4.34828857421875,0.4249810576438904,0.7854869961738586,0.048802293837070465
1772615916046356500,4.3583564453125,0.3790617883205414,0.7627974152565002,0.0760863795876503
1772615916056424400,4.368424560546875,0.3428144156932831,0.7402641773223877,0.10026447474956512
1772615916066492700,4.37849267578125,0.31440702080726624,0.7203975319862366,0.12002246826887131
1772615916076560400,4.388560302734375,0.2905385196208954,0.7101057767868042,0.1288546770811081
1772615916086628400,4.39862841796875,0.2733784317970276,0.7151641845703125,0.11879537999629974
1772615916096697600,4.408697509765625,0.2575465738773346,0.7508992552757263,0.11447392404079437
1772615916106765600,4.418765625,0.2500700056552887,0.7853832244873047,0.1306326687335968
1772615916116833500,4.42883349609375,0.24034440517425537,0.7732943296432495,0.1507275402545929
1772615916126901500,4.438901611328125,0.22727201879024506,0.7510383129119873,0.17439505457878113
1772615916136969500,4.448969482421875,0.22026565670967102,0.757866382598877,0.19379054009914398
1772615916147037400,4.459037353515625,0.22032131254673004,0.7413294911384583,0.21390727162361145
1772615916157105400,4.46910546875,0.2426362931728363,0.7068341374397278,0.2178720235824585
1772615916167173400,4.47917333984375,0.28721147775650024,0.6726911067962646,0.21811729669570923
1772615916177241600,4.48924169921875,0.326474130153656,0.6397058963775635,0.21250830590724945
1772615916187309600,4.4993095703125,0.34618815779685974,0.589455783367157,0.19593305885791779
1772615916197377500,4.50937744140625,0.350035160779953,0.5289452075958252,0.17422711849212646
1772615916207445500,4.519445556640625,0.3502042591571808,0.49989035725593567,0.13638466596603394
1772615916217513500,4.529513427734375,0.3539960980415344,0.5129095315933228,0.08226072043180466
1772615916227581400,4.53958154296875,0.3489552438259125,0.5609963536262512,0.010273342952132225
1772615916237649400,4.5496494140625,0.3320605158805847,0.6470611095428467,-0.047978661954402924
1772615916247717400,4.55971728515625,0.310063898563385,0.7382983565330505,-0.06928714364767075
1772615916257785600,4.56978564453125,0.2816917598247528,0.8123496770858765,-0.06633107364177704
1772615916267853600,4.579853515625,0.2636781334877014,0.8619856834411621,-0.025464331731200218
1772615916277921500,4.589921630859375,0.2745406925678253,0.8801107406616211,0.051812198013067245
1772615916287990500,4.599990478515625,0.301237016916275,0.8833126425743103,0.13912366330623627
1772615916298058500,4.61005859375,0.33862075209617615,0.8793582320213318,0.23315589129924774
1772615916308126500,4.62012646484375,0.36340680718421936,0.8608918786048889,0.3222298324108124
1772615916318194400,4.6301943359375,0.36610639095306396,0.8316720128059387,0.3849569857120514
1772615916328262700,4.6402626953125,0.3426375389099121,0.8112221360206604,0.42796677350997925
1772615916338330600,4.65033056640625,0.305284321308136,0.8118435144424438,0.4395679831504822
1772615916348398300,4.6603984375,0.25508853793144226,0.8271180987358093,0.4134410321712494
1772615916358466300,4.67046630859375,0.20001284778118134,0.8798230886459351,0.35950523614883423
1772615916368534500,4.680534423828125,0.14031702280044556,0.9157475233078003,0.29605674743652344
1772615916378602500,4.6906025390625,0.08588875830173492,0.9166869521141052,0.2348177134990692
1772615916388670500,4.70067041015625,0.04127601906657219,0.8880646824836731,0.18252654373645782
1772615916398738400,4.710738525390625,0.015025480650365353,0.8392879962921143,0.13511459529399872
1772615916408806700,4.720806640625,-0.00038463505916297436,0.7939567565917969,0.09683699160814285
1772615916418874600,4.73087451171875,0.00011386768892407417,0.7675464749336243,0.0573384165763855
1772615916428942300,4.7409423828125,-0.005831373389810324,0.7577742338180542,0.025109905749559402
1772615916439010300,4.75101025390625,-0.013666355982422829,0.7697652578353882,0.00006254692561924458
1772615916449078500,4.76107861328125,-0.0275275781750679,0.8062593936920166,-0.02800930105149746
1772615916459146500,4.771146484375,-0.043729156255722046,0.8380879163742065,-0.05676883086562157
1772615916469214500,4.78121435546875,-0.039683546870946884,0.8536365628242493,-0.0928136482834816
1772615916479283500,4.791283447265625,-0.01903095282614231,0.839482843875885,-0.12813019752502441
1772615916489351400,4.801351318359375,0.021403290331363678,0.8208561539649963,-0.1571378856897354
1772615916499419400,4.81141943359375,0.08084819465875626,0.8170040845870972,-0.18311268091201782
1772615916509487400,4.8214873046875,0.14272941648960114,0.8446854948997498,-0.2107376605272293
1772615916519555600,4.8315556640625,0.18931593000888824,0.8831496834754944,-0.2370871901512146
1772615916529623600,4.84162353515625,0.20933517813682556,0.9173039197921753,-0.2646557092666626
1772615916539691500,4.85169140625,0.21715903282165527,0.9748386740684509,-0.31222113966941833
1772615916549759500,4.861759521484375,0.22060702741146088,1.0351661443710327,-0.372315376996994
1772615916559827500,4.871827392578125,0.23722171783447266,1.090161681175232,-0.41353127360343933
1772615916569895400,4.8818955078125,0.2624969780445099,1.1306694746017456,-0.43591275811195374
1772615916579963400,4.89196337890625,0.2742147147655487,1.1537320613861084,-0.4399430453777313
1772615916590031400,4.90203125,0.27968084812164307,1.1721304655075073,-0.4429076611995697
1772615916600099600,4.912099609375,0.28761422634124756,1.1977880001068115,-0.43327784538269043
1772615916610167600,4.92216748046875,0.28860384225845337,1.2282567024230957,-0.4192848205566406
1772615916620235500,4.932235595703125,0.29508060216903687,1.2707116603851318,-0.40991339087486267
1772615916630303500,4.942303466796875,0.3103412985801697,1.3222755193710327,-0.41296377778053284
1772615916640371500,4.952371337890625,0.3337400555610657,1.3907802104949951,-0.4189745783805847
1772615916650439400,4.962439453125,0.3632694482803345,1.4291366338729858,-0.4090321958065033
1772615916660507400,4.97250732421875,0.3973642885684967,1.4411522150039673,-0.38239020109176636
1772615916670576600,4.98257666015625,0.4336458742618561,1.4310346841812134,-0.34691372513771057
1772615916680644600,4.99264453125,0.47526490688323975,1.4071152210235596,-0.3093486726284027
1772615916690712600,5.002712646484375,0.5241088271141052,1.3823260068893433,-0.2693018913269043
1772615916700780300,5.0127802734375,0.5904650092124939,1.3683828115463257,-0.2468322366476059
1772615916710848500,5.0228486328125,0.6576874256134033,1.3729169368743896,-0.2402915209531784
1772615916720916500,5.03291650390625,0.715599775314331,1.3850345611572266,-0.21190503239631653
1772615916730984400,5.042984375,0.751025915145874,1.3661426305770874,-0.17708632349967957
1772615916741052400,5.053052490234375,0.7644495964050293,1.3261750936508179,-0.1110028624534607
1772615916751120600,5.06312060546875,0.7657564282417297,1.2800861597061157,-0.022024257108569145
1772615916761188000,5.07318798828125,0.7506812214851379,1.22755765914917,0.06488682329654694
1772615916771256300,5.08325634765625,0.7307866215705872,1.1670703887939453,0.13838714361190796
1772615916781324000,5.093323974609375,0.7212516665458679,1.0646284818649292,0.20067593455314636
1772615916791392000,5.10339208984375,0.7462425231933594,0.9715427160263062,0.23595376312732697
1772615916801460000,5.1134599609375,0.7902945876121521,0.8935791850090027,0.24533723294734955
1772615916811528200,5.123528076171875,0.8004308342933655,0.8087108731269836,0.225993350148201
1772615916821596200,5.13359619140625,0.7752178311347961,0.7356316447257996,0.19927211105823517
1772615916831664000,5.1436640625,0.7160650491714478,0.6744109392166138,0.1638036072254181
1772615916841732400,5.153732421875,0.6502547860145569,0.6535226702690125,0.11004088819026947
1772615916851801000,5.163801025390625,0.5965129733085632,0.6896061301231384,0.04968274012207985
1772615916861869000,5.173869140625,0.5493451952934265,0.7672683596611023,-0.005460639949887991
1772615916871937000,5.18393701171875,0.5069271922111511,0.8410165905952454,-0.03753122314810753
1772615916882005200,5.194005126953125,0.46021562814712524,0.8626173138618469,-0.04953465983271599
1772615916892073200,5.2040732421875,0.414726197719574,0.8448740243911743,-0.044693831354379654
1772615916902141200,5.21414111328125,0.3616609573364258,0.8156495690345764,-0.011586206965148449
1772615916912209200,5.224209228515625,0.31767699122428894,0.7726970314979553,0.02610284835100174
1772615916922277000,5.234277099609375,0.2801837921142578,0.7066718935966492,0.06557466834783554
1772615916932345000,5.244344970703125,0.24420633912086487,0.655371904373169,0.1054413914680481
1772615916942413000,5.2544130859375,0.22032122313976288,0.6295815110206604,0.12899230420589447
1772615916952481000,5.26448095703125,0.19769234955310822,0.6147974729537964,0.1301550418138504
1772615916962549200,5.27454931640625,0.17750674486160278,0.5871723294258118,0.12129534780979156
1772615916972617200,5.2846171875,0.1580507457256317,0.5749558806419373,0.09753089398145676
1772615916982685200,5.294685302734375,0.14066754281520844,0.5993269681930542,0.07088236510753632
1772615916992753200,5.304753173828125,0.12060275673866272,0.6467312574386597,0.03968582674860954
1772615917002821000,5.314821044921875,0.0910831019282341,0.7073554992675781,0.005783510394394398
1772615917012889000,5.32488916015625,0.05682313069701195,0.7572378516197205,-0.02996836230158806
1772615917022957000,5.33495703125,0.02550206333398819,0.7885267734527588,-0.06963448971509933
1772615917033024000,5.34502392578125,0.03701411187648773,0.7847993969917297,-0.10896485298871994
1772615917043093200,5.35509326171875,0.08898435533046722,0.7774891257286072,-0.14212650060653687
1772615917053161200,5.3651611328125,0.18499663472175598,0.7363661527633667,-0.15621301531791687
1772615917063229200,5.375229248046875,0.28826287388801575,0.6432304978370667,-0.15057280659675598
1772615917073297200,5.385297119140625,0.3779813051223755,0.5215999484062195,-0.12874926626682281
1772615917083365000,5.395365234375,0.4585394263267517,0.4194967746734619,-0.08686067163944244
1772615917093433000,5.40543310546875,0.5078190565109253,0.3417940139770508,-0.04970584437251091
1772615917103501000,5.4155009765625,0.5201414227485657,0.3123108446598053,-0.024345386773347855
1772615917113569300,5.4255693359375,0.4773734509944916,0.3352007269859314,-0.0152578828856349
1772615917123637200,5.43563720703125,0.3905144929885864,0.37250733375549316,-0.012942400760948658
1772615917133705200,5.445705322265625,0.2654394209384918,0.40338027477264404,-0.004706309176981449
1772615917143773200,5.455773193359375,0.14249011874198914,0.4075813293457031,0.0003143905196338892
1772615917153841200,5.465841064453125,0.04769650474190712,0.39210063219070435,-0.008141945116221905
1772615917163909000,5.4759091796875,-0.003227559383958578,0.3675502836704254,-0.05004139989614487
1772615917173977000,5.48597705078125,-0.014696196652948856,0.36565518379211426,-0.11879436671733856
1772615917184045000,5.496045166015625,-0.00037144741509109735,0.3691191077232361,-0.20372310280799866
1772615917194113300,5.50611328125,0.03921617567539215,0.3352687358856201,-0.2777307629585266
1772615917204181200,5.51618115234375,0.07900978624820709,0.3052760064601898,-0.33092179894447327
1772615917214249200,5.526249267578125,0.10636604577302933,0.2862975299358368,-0.38438475131988525
1772615917224318000,5.53631787109375,0.09989571571350098,0.3261376917362213,-0.431012898683548
1772615917234386200,5.54638623046875,0.06876815855503082,0.4389614462852478,-0.45111310482025146
1772615917244454100,5.5564541015625,0.017729423940181732,0.5511722564697266,-0.42997094988822937
1772615917254522000,5.566522216796875,-0.025021236389875412,0.6455139517784119,-0.367342472076416
1772615917264590300,5.57659033203125,-0.02342473529279232,0.6842252612113953,-0.29394930601119995
1772615917274658300,5.586658203125,0.018383696675300598,0.6936933398246765,-0.23327770829200745
1772615917284726000,5.59672607421875,0.10315695405006409,0.6917514801025391,-0.19755896925926208
1772615917294794000,5.6067939453125,0.21204324066638947,0.6789752244949341,-0.19753260910511017
1772615917304862200,5.6168623046875,0.3313013017177582,0.6629592776298523,-0.2317209243774414
1772615917314930200,5.62693017578125,0.4379585087299347,0.662911593914032,-0.2774660289287567
1772615917324998100,5.636998046875,0.4920107126235962,0.7181604504585266,-0.32567912340164185
1772615917335066000,5.647066162109375,0.511167585849762,0.7409712672233582,-0.3704548478126526
1772615917345134300,5.65713427734375,0.5140212774276733,0.688241183757782,-0.3820091187953949
1772615917355202300,5.667202392578125,0.5333630442619324,0.5981405377388,-0.35918503999710083
1772615917365270000,5.67727001953125,0.5982837677001953,0.4652000963687897,-0.3285490572452545
1772615917375338000,5.687337890625,0.703656792640686,0.30046626925468445,-0.3253048062324524
1772615917385406200,5.69740625,0.8007011413574219,0.17509643733501434,-0.34306633472442627
1772615917395474200,5.70747412109375,0.8707001805305481,0.11959856748580933,-0.3822537064552307
1772615917405542100,5.717542236328125,0.8800358772277832,0.13557717204093933,-0.43094342947006226
1772615917415611100,5.727611083984375,0.8204399347305298,0.2473156750202179,-0.4601016044616699
1772615917425679000,5.73767919921875,0.6999543905258179,0.4203992187976837,-0.4531368315219879
1772615917435748000,5.747748046875,0.525409996509552,0.5579642653465271,-0.39817187190055847
1772615917445816000,5.757816162109375,0.324893057346344,0.6560437679290771,-0.3181476891040802
1772615917455884300,5.76788427734375,0.14755824208259583,0.7483023405075073,-0.22464969754219055
1772615917465952300,5.7779521484375,0.0514124259352684,0.8205450773239136,-0.11376451700925827
1772615917476020200,5.788020263671875,0.04374385252594948,0.8368595838546753,-0.001915748929604888
1772615917486088000,5.798087890625,0.10306670516729355,0.7931470274925232,0.09344934672117233
1772615917496156200,5.80815625,0.2115660160779953,0.7478320598602295,0.14690378308296204
1772615917506224000,5.81822412109375,0.34947723150253296,0.7370257377624512,0.17474831640720367
1772615917516292000,5.8282919921875,0.48790115118026733,0.7213024497032166,0.1898002326488495
1772615917526360000,5.838360107421875,0.5968668460845947,0.6660609245300293,0.20558428764343262
1772615917536428300,5.84842822265625,0.6738362312316895,0.5872840881347656,0.22824566066265106
1772615917546496300,5.858496337890625,0.7092782258987427,0.510681688785553,0.26541444659233093
1772615917556564000,5.86856396484375,0.7068821787834167,0.4302361309528351,0.2979936897754669
1772615917566632000,5.8786318359375,0.6762948632240295,0.39181381464004517,0.3089611232280731
1772615917576700200,5.8887001953125,0.6412657499313354,0.4137771725654602,0.28627124428749084
1772615917586769200,5.89876904296875,0.6059560179710388,0.48578009009361267,0.23916511237621307
1772615917596837000,5.908837158203125,0.5858813524246216,0.5586918592453003,0.18266481161117554
1772615917606905300,5.9189052734375,0.5580253005027771,0.5929521322250366,0.13583359122276306
1772615917616973000,5.92897314453125,0.5296333432197571,0.5905163884162903,0.1030210554599762
1772615917627041000,5.939041015625,0.49806031584739685,0.5695249438285828,0.07954268902540207
1772615917637109000,5.94910888671875,0.4623696804046631,0.5529718399047852,0.07135586440563202
1772615917647177200,5.95917724609375,0.428629070520401,0.5172054767608643,0.07972852140665054
1772615917657245200,5.9692451171875,0.39364925026893616,0.47548148036003113,0.09763827919960022
1772615917667313200,5.979313232421875,0.35581067204475403,0.45482558012008667,0.12078356742858887
1772615917677381000,5.989381103515625,0.3091251850128174,0.46384331583976746,0.15568456053733826
1772615917687449300,5.999449462890625,0.2521823048591614,0.49809539318084717,0.1944933533668518
1772615917697517000,6.00951708984375,0.1907128393650055,0.520892858505249,0.23468364775180817
1772615917707585000,6.0195849609375,0.13111992180347443,0.5381414890289307,0.28470930457115173
1772615917717653000,6.029653076171875,0.07251519709825516,0.5353659391403198,0.3407912254333496
1772615917727721200,6.03972119140625,0.031941089779138565,0.5158246159553528,0.3892664611339569
1772615917737789200,6.0497890625,0.0029014493338763714,0.4914465546607971,0.4233735501766205
1772615917747857200,6.059857177734375,-0.00047956116031855345,0.4925346374511719,0.44040659070014954
1772615917757925000,6.069925048828125,0.012189894914627075,0.48600295186042786,0.44739606976509094
1772615917767993900,6.079993896484375,0.029492365196347237,0.4473247528076172,0.4432925581932068
1772615917778061800,6.090061767578125,0.03205619007349014,0.3907962143421173,0.42793169617652893
1772615917788129800,6.1001298828125,0.04115120321512222,0.34518468379974365,0.3916356563568115
1772615917798197800,6.11019775390625,0.05631843954324722,0.32272225618362427,0.33162638545036316
1772615917808266000,6.120265869140625,0.06829067319631577,0.2874230146408081,0.2528549134731293
1772615917818334000,6.130333984375,0.08196227997541428,0.2318287342786789,0.1568295806646347
1772615917828402000,6.14040185546875,0.10333713889122009,0.16882240772247314,0.05256879702210426
1772615917838469600,6.1504697265625,0.13915559649467468,0.09478653967380524,-0.05084094777703285
1772615917848537900,6.160537841796875,0.19514137506484985,0.0559239462018013,-0.15811388194561005
1772615917858605800,6.170605712890625,0.251542866230011,0.07461507618427277,-0.24574200809001923
1772615917868673800,6.180673828125,0.2844058871269226,0.1367376446723938,-0.32335931062698364
1772615917878741800,6.19074169921875,0.299206405878067,0.24499034881591797,-0.3828710913658142
1772615917888810000,6.20081005859375,0.30023393034935,0.3728286325931549,-0.40265777707099915
1772615917898878000,6.2108779296875,0.28406479954719543,0.48708677291870117,-0.3759065866470337
1772615917908946000,6.22094580078125,0.256088525056839,0.6043104529380798,-0.30248183012008667
1772615917919013600,6.231013671875,0.22740547358989716,0.7045965790748596,-0.18320707976818085
1772615917929081900,6.241081787109375,0.2107488363981247,0.7565101385116577,-0.024509785696864128
1772615917939149800,6.25114990234375,0.220755934715271,0.7660120129585266,0.15749995410442352
1772615917949218800,6.26121875,0.24262650310993195,0.7548770308494568,0.33159366250038147
1772615917959287000,6.271287109375,0.26855263113975525,0.7320430874824524,0.47513219714164734
1772615917969354800,6.281354736328125,0.2896028757095337,0.7128357887268066,0.5781817436218262
1772615917979422700,6.291422607421875,0.3129159212112427,0.7083054780960083,0.6368139386177063
1772615917989490700,6.30149072265625,0.32382524013519287,0.7093748450279236,0.6479116082191467
1772615917999559000,6.311558837890625,0.30778342485427856,0.6911779642105103,0.6357877850532532
1772615918009627000,6.321626953125,0.27327948808670044,0.6484417915344238,0.6030131578445435
1772615918019694800,6.33169482421875,0.24155911803245544,0.5938387513160706,0.5366349220275879
1772615918029762800,6.3417626953125,0.2152576744556427,0.5483378767967224,0.44379571080207825
1772615918039831000,6.3518310546875,0.19676361978054047,0.5219289064407349,0.31828147172927856
1772615918049898800,6.361898681640625,0.18986353278160095,0.526290774345398,0.15818707644939423
1772615918059966700,6.371966796875,0.18292014300823212,0.5517372488975525,0.004527748562395573
1772615918070034700,6.38203466796875,0.15367957949638367,0.5723952651023865,-0.14996440708637238
1772615918080103000,6.39210302734375,0.12940967082977295,0.5925987958908081,-0.28927141427993774
1772615918090171000,6.4021708984375,0.1265317052602768,0.6397436261177063,-0.3954705595970154
1772615918100238800,6.41223876953125,0.15335293114185333,0.6935083270072937,-0.46512261033058167
1772615918110307800,6.422307861328125,0.18730904161930084,0.7416177988052368,-0.4781513214111328
1772615918120375800,6.432375732421875,0.22807911038398743,0.7622218728065491,-0.45020145177841187
1772615918130443800,6.44244384765625,0.26737821102142334,0.7588629126548767,-0.3863389492034912
1772615918140511700,6.45251171875,0.3085392415523529,0.7431617379188538,-0.28695857524871826
1772615918150580000,6.462580078125,0.3538922965526581,0.7269903421401978,-0.17882665991783142
1772615918160648000,6.47264794921875,0.39961424469947815,0.7259647846221924,-0.0818343386054039
1772615918170716000,6.4827158203125,0.4414769411087036,0.7447845339775085,0.014502962119877338
1772615918180783900,6.492783935546875,0.46255478262901306,0.7592750787734985,0.11678486317396164
1772615918190851800,6.502851806640625,0.4734152555465698,0.7518776655197144,0.20525462925434113
1772615918200919800,6.512919921875,0.4632110595703125,0.7255813479423523,0.2787192761898041
1772615918210987800,6.52298779296875,0.4510631859302521,0.6824560761451721,0.3243326246738434
1772615918221055700,6.5330556640625,0.4362988770008087,0.664466142654419,0.32948049902915955
1772615918231124000,6.5431240234375,0.41966262459754944,0.6752133965492249,0.29869627952575684
1772615918241192000,6.55319189453125,0.4081002473831177,0.6847384572029114,0.2365916222333908
1772615918251260000,6.563260009765625,0.3897518515586853,0.6965115070343018,0.16756275296211243
1772615918261327600,6.57332763671875,0.3649221360683441,0.7027172446250916,0.08963654190301895
1772615918271395800,6.583395751953125,0.35720497369766235,0.7338132262229919,0.0017255435232073069
1772615918281463800,6.5934638671875,0.3710382282733917,0.7671480178833008,-0.09036976099014282
1772615918291532800,6.60353271484375,0.4093240797519684,0.7771039605140686,-0.17131857573986053
1772615918301601000,6.61360107421875,0.4594000279903412,0.7475370168685913,-0.21851752698421478
1772615918311669000,6.6236689453125,0.5009357333183289,0.6832640171051025,-0.23619051277637482
1772615918321736700,6.63373681640625,0.5269446969032288,0.6184360384941101,-0.22493278980255127
1772615918331804700,6.6438046875,0.5379657745361328,0.606423556804657,-0.20790080726146698
1772615918341873000,6.653872802734375,0.5348690748214722,0.6263424158096313,-0.2168934941291809
1772615918351940900,6.66394091796875,0.5318852066993713,0.6628119945526123,-0.2370324581861496
1772615918362008800,6.6740087890625,0.5310636162757874,0.6983622908592224,-0.24373909831047058
1772615918372076800,6.684076904296875,0.5335054993629456,0.7066327333450317,-0.24668745696544647
1772615918382145000,6.69414501953125,0.5323179960250854,0.718633770942688,-0.24629651010036469
1772615918392213000,6.704212890625,0.52036052942276,0.7162554264068604,-0.23149071633815765
1772615918402280700,6.71428076171875,0.511326789855957,0.6952593326568604,-0.21181154251098633
1772615918412348700,6.7243486328125,0.5040397644042969,0.6736065745353699,-0.17008569836616516
1772615918422417000,6.7344169921875,0.48519065976142883,0.625710129737854,-0.10792937129735947
1772615918432484900,6.74448486328125,0.4597809910774231,0.5703821778297424,-0.04701152443885803
1772615918442552800,6.754552734375,0.44169360399246216,0.5520508885383606,-0.005146901123225689
1772615918452620800,6.764620849609375,0.42367926239967346,0.5580289959907532,0.012905693612992764
1772615918462689000,6.77468896484375,0.4193904995918274,0.5951231122016907,0.013447646982967854
1772615918472757800,6.7847578125,0.4206066131591797,0.6392107009887695,-0.005598957650363445
1772615918482825700,6.79482568359375,0.4164414405822754,0.6883481740951538,-0.028562864288687706
1772615918492894000,6.80489404296875,0.40474677085876465,0.7167363166809082,-0.043189629912376404
1772615918502962000,6.8149619140625,0.38059109449386597,0.7082573175430298,-0.0440751314163208
1772615918513030000,6.82502978515625,0.3496791124343872,0.6709926724433899,-0.02946343831717968
1772615918523097900,6.835097900390625,0.3310636281967163,0.6396057605743408,-0.02241618186235428
1772615918533165800,6.845165771484375,0.3196409344673157,0.6433890461921692,-0.023079827427864075
1772615918543233800,6.85523388671875,0.31063172221183777,0.6989614963531494,-0.04224366694688797
1772615918553301800,6.8653017578125,0.30974146723747253,0.7505073547363281,-0.055416278541088104
1772615918563369700,6.87536962890625,0.3177754282951355,0.79527348279953,-0.062036365270614624
1772615918573438000,6.88543798828125,0.325303852558136,0.8136990666389465,-0.058732639998197556
1772615918583506000,6.895505859375,0.32788312435150146,0.8156203031539917,-0.05004087835550308
1772615918593574000,6.905573974609375,0.31797000765800476,0.8055335283279419,-0.02711842581629753
1772615918603641900,6.915641845703125,0.28369539976119995,0.7942979335784912,-0.007137794978916645
1772615918613709800,6.925709716796875,0.2514472007751465,0.7868720889091492,0.003388297511264682
1772615918623777800,6.93577783203125,0.2502421438694,0.778296172618866,-0.0043931929394602776
1772615918633846800,6.9458466796875,0.2768241763114929,0.725190281867981,-0.022947151213884354
1772615918643915000,6.9559150390625,0.30662229657173157,0.6485788822174072,-0.024935733526945114
1772615918653983000,6.96598291015625,0.33726170659065247,0.5455787181854248,-0.022713370621204376
1772615918664051000,6.976051025390625,0.34747013449668884,0.4715801179409027,-0.022767433896660805
1772615918674118700,6.98611865234375,0.3167327344417572,0.42379236221313477,-0.012837810441851616
1772615918684187000,6.996186767578125,0.25537964701652527,0.4104539155960083,0.003607209073379636
1772615918694254800,7.0062548828125,0.17192956805229187,0.4479178190231323,0.02070450410246849
1772615918704322800,7.01632275390625,0.09446167945861816,0.5580198764801025,0.015921467915177345
1772615918714390800,7.026390869140625,0.03826560080051422,0.6965367794036865,-0.0006171960849314928
1772615918724459000,7.036458984375,0.008784142322838306,0.804399847984314,-0.02832898497581482
1772615918734527000,7.04652685546875,0.0068991947919130325,0.8305349349975586,-0.024838175624608994
1772615918744594700,7.0565947265625,0.03211800009012222,0.7769534587860107,-0.014445723034441471
1772615918754662700,7.06666259765625,0.09781305491924286,0.7267049551010132,-0.009712903760373592
1772615918764731100,7.076731201171875,0.17938409745693207,0.6541455388069153,0.019202368333935738
1772615918774799400,7.08679931640625,0.29702627658843994,0.6576582789421082,0.07190714031457901
1772615918784867300,7.096867431640625,0.3763171136379242,0.7308267951011658,0.13910534977912903
1772615918794935300,7.106935302734375,0.40229400992393494,0.7790629863739014,0.2041279524564743
1772615918805003300,7.117003173828125,0.39340677857398987,0.8770822286605835,0.26702702045440674
1772615918815072300,7.127072265625,0.3484676480293274,0.9256260395050049,0.31379085779190063
1772615918825140200,7.13714013671875,0.3000812232494354,0.9267117977142334,0.3364897668361664
1772615918835208200,7.147208251953125,0.2659171521663666,0.9176033139228821,0.3283023238182068
1772615918845276400,7.1572763671875,0.2626800835132599,0.9087799787521362,0.2835598886013031
1772615918855344400,7.167344482421875,0.2748689651489258,0.8888713121414185,0.22613739967346191
1772615918865412400,7.177412353515625,0.2994121015071869,0.8854576349258423,0.16737794876098633
1772615918875480000,7.18747998046875,0.3392442464828491,0.8918488621711731,0.12838894128799438
1772615918885548300,7.19754833984375,0.3737279176712036,0.9147725701332092,0.11525209993124008
1772615918895616300,7.2076162109375,0.3904781639575958,0.9375297427177429,0.11133851855993271
1772615918905684200,7.217684326171875,0.38865870237350464,0.9761378169059753,0.130058154463768
1772615918915752200,7.227752197265625,0.3800736963748932,1.0105053186416626,0.14274708926677704
1772615918925820400,7.2378203125,0.37908458709716797,1.0391262769699097,0.1449766904115677
1772615918935888400,7.247888427734375,0.3956887722015381,1.044381856918335,0.11928671598434448
1772615918945956400,7.257956298828125,0.4312095046043396,1.0133253335952759,0.07166886329650879
1772615918956024000,7.268024169921875,0.46876972913742065,0.9469234943389893,0.0024656394962221384
1772615918966092300,7.27809228515625,0.5186081528663635,0.8713570833206177,-0.06789347529411316
1772615918976160300,7.28816015625,0.5610265135765076,0.7920837998390198,-0.1347501426935196
1772615918986229200,7.298229248046875,0.5847696661949158,0.7114006280899048,-0.16908814013004303
1772615918996297500,7.30829736328125,0.5854048132896423,0.6608323454856873,-0.17182739078998566
1772615919006365200,7.318365234375,0.564208984375,0.6237512826919556,-0.13432982563972473
1772615919016433200,7.32843310546875,0.5153844356536865,0.5969098210334778,-0.047543078660964966
1772615919026501000,7.338501220703125,0.45623353123664856,0.602629542350769,0.06655872613191605
1772615919036569300,7.3485693359375,0.3811500668525696,0.620881974697113,0.19829849898815155
1772615919046637300,7.35863720703125,0.3080252408981323,0.6317617893218994,0.3226824998855591
1772615919056705300,7.368705322265625,0.25252586603164673,0.6315451264381409,0.42564457654953003
1772615919066773200,7.378773193359375,0.22880162298679352,0.6146249771118164,0.4899929463863373
1772615919076841500,7.388841552734375,0.2265569120645523,0.5935211777687073,0.5048926472663879
1772615919086909200,7.3989091796875,0.239635169506073,0.5695332884788513,0.4647979736328125
1772615919096977200,7.40897705078125,0.2504602372646332,0.5540646314620972,0.3856102228164673
1772615919107045000,7.419045166015625,0.26846134662628174,0.5318459272384644,0.26999735832214355
1772615919117113300,7.42911328125,0.2779499590396881,0.5066237449645996,0.13971488177776337
1772615919127181300,7.439181396484375,0.29122716188430786,0.4876742959022522,0.014725003391504288
1772615919137249300,7.449249267578125,0.2851317226886749,0.4677330255508423,-0.0933423861861229
1772615919147318300,7.459318359375,0.27497124671936035,0.4584497809410095,-0.16967177391052246
1772615919157386200,7.46938623046875,0.2522619962692261,0.4571538269519806,-0.21465378999710083
1772615919167454200,7.4794541015625,0.22398696839809418,0.45810964703559875,-0.24890311062335968
1772615919177522200,7.489522216796875,0.19999927282333374,0.4681341052055359,-0.27272042632102966
1772615919187590400,7.49959033203125,0.1924486756324768,0.4711357355117798,-0.25521013140678406
1772615919197658400,7.509658447265625,0.18379950523376465,0.45414191484451294,-0.19842055439949036
1772615919207726300,7.519726318359375,0.1796276718378067,0.4248622953891754,-0.13260319828987122
1772615919217794300,7.529794189453125,0.18205662071704865,0.4010540246963501,-0.06818723678588867
1772615919227862300,7.5398623046875,0.1854015439748764,0.3838135302066803,-0.008676240220665932
1772615919237930200,7.54993017578125,0.18729473650455475,0.3464968204498291,0.0644308403134346
1772615919247998200,7.559998291015625,0.1980895847082138,0.2705482542514801,0.21476627886295319
1772615919258066200,7.570066162109375,0.21816079318523407,0.24511338770389557,0.2920854985713959
1772615919268134400,7.580134521484375,0.2238607555627823,0.30807769298553467,0.31277960538864136
1772615919278202400,7.590202392578125,0.21407125890254974,0.3348865211009979,0.30000466108322144
1772615919288270300,7.600270263671875,0.19995570182800293,0.363571435213089,0.2827061116695404
1772615919298338000,7.610338134765625,0.19428502023220062,0.36958184838294983,0.23505955934524536
1772615919308406300,7.62040625,0.20833240449428558,0.37139254808425903,0.17834354937076569
1772615919318474200,7.63047412109375,0.22201655805110931,0.35286402702331543,0.12329670041799545
1772615919328543200,7.640543212890625,0.2305503934621811,0.3119581341743469,0.060122523456811905
1772615919338611500,7.650611572265625,0.23333054780960083,0.2825379967689514,0.0036106472834944725
1772615919348679400,7.660679443359375,0.22721725702285767,0.2758880853652954,-0.04601283371448517
1772615919358747100,7.6707470703125,0.21130676567554474,0.2699398398399353,-0.06753311306238174
1772615919368815000,7.680815185546875,0.20005251467227936,0.2607274353504181,-0.030777767300605774
1772615919378883300,7.69088330078125,0.18568307161331177,0.24515452980995178,0.062195487320423126
1772615919388951300,7.700951416015625,0.1666177660226822,0.20640233159065247,0.15185239911079407
