time,seconds_elapsed,z,y,x
1772699403854898700,0.077898681640625,-0.12336086060032248,0.3403887236744165,0.09809482885338365
1772699403864855600,0.08785546875,-0.18512597350925206,0.39050095432102677,0.1873262600325048
1772699403874812700,0.097812744140625,-0.17414470689818262,0.4785808043122291,0.09003419892936944
1772699403884770600,0.1077705078125,-0.11979016250669955,0.4894757078140974,-0.10617175232507288
1772699403894727700,0.117727783203125,-0.06962751684710383,0.507885809251666,-0.14133023253306745
1772699403904685800,0.127685791015625,0.04339548961222171,0.5566191527605057,-0.1819067192018032
1772699403914642700,0.137642578125,0.12499182280302047,0.5400304215312004,-0.17438779493905604
1772699403924600600,0.1476005859375,0.157445647162199,0.4220826720207929,-0.11047602539025246
1772699403934557700,0.1575576171875,0.167374920502305,0.25891806268990036,-0.05012319043204188
1772699403944515600,0.167515625,0.15056070995405316,0.09036182344853877,-0.06033632221482694
1772699403954472400,0.177472412109375,0.12255319747924803,-0.030036826345324515,-0.09330014192275703
1772699403964429600,0.1874296875,0.08897709109187125,-0.1309375794649124,-0.08417765492089092
1772699403974387700,0.1973876953125,0.030461919889599082,-0.2060527339428663,-0.0841491594787687
1772699403984344800,0.2073447265625,-0.07054711591005325,-0.24647300713658332,-0.0485341676749289
1772699403994302700,0.217302734375,-0.19502762819007038,-0.23407120620310304,-0.002605944714695215
1772699404004259600,0.227259521484375,-0.24471315785720943,-0.16223755761384964,0.10392221983261406
1772699404014217700,0.2372177734375,-0.3094287911348045,-0.09681728319823742,0.21477738073356448
1772699404024174600,0.247174560546875,-0.39542555124163625,-0.10120704258978366,0.2694466901626438
1772699404034132700,0.2571328125,-0.4152021187268197,-0.05455635057389736,0.22791721361801026
1772699404044089600,0.267089599609375,-0.4092940637268126,0.04930383687317371,0.1648066774494946
1772699404054046700,0.277046630859375,-0.3960772931486368,0.0854722978413105,0.163892558279261
1772699404064004600,0.287004638671875,-0.42549876407459375,0.09671966804265976,0.18341515100337563
1772699404073961700,0.296961669921875,-0.4600602282375097,0.06277648190855979,0.22089023759067059
1772699404083919600,0.306919677734375,-0.45544294370040295,0.034601357781887054,0.18906769687235353
1772699404093876500,0.31687646484375,-0.44512028712853785,0.01304886666536331,0.19455511530749497
1772699404103834600,0.326834716796875,-0.4135040826372802,0.0605021072357893,0.2449080959074199
1772699404113791700,0.336791748046875,-0.39306276763305065,0.1084422545403242,0.2946180293634534
1772699404123749600,0.34674951171875,-0.35219840393364427,0.1655424443781376,0.2701142872259021
1772699404133706500,0.35670654296875,-0.3336275589764118,0.21139584853649138,0.2583572870019823
1772699404143663600,0.36666357421875,-0.31389220028445125,0.24031097737550733,0.22397096021026372
1772699404153621800,0.376621826171875,-0.33325390335842964,0.26461364398300646,0.23315036503113803
1772699404163578600,0.38657861328125,-0.3787754452139139,0.29451661481559277,0.20935206774920223
1772699404173536500,0.39653662109375,-0.35576398746073246,0.3742611826598644,0.151611461116001
1772699404183493600,0.40649365234375,-0.3013099282175302,0.4365361447870731,0.10698467614315449
1772699404193451500,0.416451416015625,-0.21006240797564385,0.46591538400650023,0.09747172851897776
1772699404203408600,0.42640869140625,-0.19137772738039494,0.40574586972594257,0.12240129485316574
1772699404213366800,0.43636669921875,-0.19762042116224765,0.33101591517329215,0.1425781137023121
1772699404223323600,0.44632373046875,-0.10915727094188332,0.3193973735719919,0.07964388394877314
1772699404233280800,0.45628076171875,-0.08326923483908176,0.34199674339294434,0.07795461568757892
1772699404243238700,0.46623876953125,-0.13611395918950436,0.36404666263759133,0.22740802198685706
1772699404253195500,0.476195556640625,-0.12025310384333134,0.4708668689340353,0.2512715665247291
1772699404263153700,0.486153564453125,-0.1336992992632091,0.5672077667921781,0.32625907603502274
1772699404273110500,0.496110595703125,-0.12753800015449523,0.5738800841629504,0.43666875819079576
1772699404283068700,0.506068603515625,-0.1004113621674478,0.43069969371855255,0.24177893103621897
1772699404293025800,0.51602587890625,-0.1196061842419207,0.39041561412513254,0.23486316029839216
1772699404302983400,0.5259833984375,0.048425300472974775,0.4099953438639641,0.3011239041261375
1772699404312940500,0.5359404296875,0.12751637284457684,0.2642757903307676,0.15019560296870768
1772699404322897700,0.545897705078125,0.3892161752074957,-0.17077216172516346,0.003233575093746185
1772699404332855800,0.555855712890625,0.5546959296129643,-0.7336123809576034,-0.33728462017923594
1772699404342812400,0.5658125,0.7434463772296905,-1.3066747189968824,-0.8492013654474169
1772699404352770600,0.5757705078125,1.00404435583055,-1.7450135292917488,-1.2135242877431214
1772699404362727700,0.585727783203125,1.0366659379720686,-1.5182237122684716,-0.9775363611984997
1772699404372685600,0.595685546875,1.221764585082978,-1.0792892741680145,-0.5791484530199319
1772699404382642700,0.605642578125,0.8809886156566441,-0.15672142454087734,-0.9027728697024285
1772699404392600600,0.6156005859375,0.4934568864047527,0.890001212543249,-0.33235731984488665
1772699404402557700,0.6255576171875,0.005297521886229515,1.4386632688194512,0.6147339995335788
1772699404412514600,0.6355146484375,-0.7563293858088552,1.558117331239581,1.4732792396485805
1772699404422472700,0.64547265625,-0.8273696920633316,1.792949584943056,1.5639040979474783
1772699404432429600,0.6554296875,-0.6893060601107776,1.7109025853753088,1.537745866601169
1772699404442387500,0.665387451171875,-0.582351486844942,1.4036749575465917,0.8189458548501134
1772699404452344600,0.675344482421875,-0.18675350164584814,1.4718541752815246,0.021433687042444943
1772699404462302700,0.685302734375,-0.4146422928869724,1.0414029033660888,-0.20126608418822287
1772699404472260400,0.69526025390625,-0.35677046108953653,1.0295032067358494,-0.6841680396351962
1772699404482218000,0.705218017578125,0.27886414152309297,1.2467045266807077,-0.7361583391133696
1772699404492175000,0.715175048828125,0.6521626166306436,1.0971546012043951,-0.5951401682041585
1772699404502132200,0.72513232421875,0.7452449510842561,1.1679846257090567,-0.5226402377258986
1772699404512090000,0.735090087890625,0.21116145525872707,1.7532091107070444,-0.37163262425456195
1772699404522047000,0.745046875,-2.3240543572187424,2.4569828182399274,0.6438500577721744
1772699404532005000,0.755005126953125,-1.1414794075559824,0.5785498295396566,-0.9445276063703
1772699404541962200,0.764962158203125,-0.8881517852842807,0.1322714584171772,-0.7786196166153997
1772699404551920000,0.774920166015625,-0.4660357224505394,0.10899053607285022,-0.3287332475962117
1772699404561877200,0.784877197265625,0.261612160612084,-0.28008652292490005,0.05048902806974947
1772699404571835100,0.794835205078125,0.6992308034062386,-0.6757277627438306,0.5738090647533536
1772699404581792000,0.8047919921875,0.6887918269783257,-1.0082534979581832,1.0541626508917659
1772699404591749000,0.8147490234375,0.5255717246005311,-1.3592963021159172,1.22040396425426
1772699404601707300,0.824707275390625,0.32848029574844984,-1.5413649338811635,0.8926149021729827
1772699404611664100,0.8346640625,-0.058914582316018635,-1.448914029198885,0.38989173638150093
1772699404621622000,0.8446220703125,-0.08808978686332702,-1.3113970713436602,-0.1541661140348762
1772699404631579100,0.8545791015625,0.23604864375591278,-1.2080448334187268,-0.6025066053189337
1772699404641537300,0.864537353515625,0.6648556555956602,-1.1653536926835775,-0.7397146433554589
1772699404651494100,0.874494140625,1.0828361529946327,-1.2052888127088546,-0.5877984271392226
1772699404661452000,0.8844521484375,1.0874509533137082,-1.413174607297778,-0.3371994261138141
1772699404671409200,0.8944091796875,0.6921738706320524,-1.5461960072994232,0.06724666785886511
1772699404681366300,0.9043662109375,0.2589046186864376,-1.4239298100680111,0.2489503935681656
1772699404691324200,0.91432421875,0.024143092131614682,-1.4415069678127765,0.35797231115996836
1772699404701281000,0.924281005859375,0.04956453363597393,-1.2804074743181466,0.37213776076510546
1772699404711239200,0.9342392578125,0.15338614263832567,-0.866334505751729,0.1886018877252005
1772699404721196300,0.9441962890625,0.3327356151053682,-0.4621557392120361,-0.026039781181968282
1772699404731154200,0.954154296875,0.5785369700580835,-0.07934943104684353,-0.1381225864650216
1772699404741111000,0.964111083984375,0.7937865714132786,0.21438743156790732,-0.15233607646296732
1772699404751069200,0.974069091796875,0.9726964468866586,0.40047231323719024,-0.11414637533291243
1772699404761026000,0.984026123046875,1.0192010084301233,0.4425537976413965,-0.03404996641024481
1772699404770983200,0.993983154296875,0.8170423593163489,0.35503450414240356,-0.0039011105082114223
1772699404780941300,1.00394140625,0.5111263986080885,0.3753992467790842,-0.10083614518446847
1772699404790898200,1.013898193359375,0.33643560213446616,0.24068097973167896,-0.0995487813882064
1772699404800856000,1.02385595703125,-0.025327278681192545,0.31826223206222054,-0.020925714687420986
1772699404810813200,1.033813232421875,-0.4866448317697271,0.6187415546745062,0.06167133367825299
1772699404820771300,1.043771240234375,-0.6115314771652222,0.817053465232253,0.2263035496099852
1772699404830728000,1.05372802734375,-0.42452071282267567,0.9289122502177953,0.37877624893151224
1772699404840686000,1.06368603515625,-0.16020285518215968,1.085610878404975,0.4892056587010622
1772699404850643200,1.073643310546875,-0.037862405404448504,1.3861696959942578,0.50596923504062
1772699404860600300,1.083600341796875,0.001751227581501007,1.812311872538924,0.3115827177656814
1772699404870558000,1.093557861328125,-0.011074333455692977,2.1807249136924742,0.1181785534584429
1772699404880515000,1.10351513671875,-0.09252102904273196,2.496511695551872,0.04101975519051775
1772699404890473200,1.11347314453125,-0.32858777471091594,2.6864023992449044,-0.010576247740443795
1772699404900430000,1.12343017578125,-0.664350628682971,2.879524339944124,-0.10664141566343605
1772699404910388200,1.13338818359375,-0.8970043693035841,3.1019881104618308,-0.26611310702683405
1772699404920345000,1.143344970703125,-1.0000035560071467,3.101786450409889,-0.13529056877633555
1772699404930302200,1.15330224609375,-1.121663019517064,3.2215801200479266,0.09213891612365842
1772699404940260000,1.163260009765625,-1.3620704430043697,3.3653298348128793,0.17000256559215485
1772699404950217200,1.17321728515625,-1.3719436022430658,3.405085506618023,0.2238370681649074
1772699404960175000,1.183175048828125,-1.4127467372745275,3.4429064109683036,0.19500811977200208
1772699404970132200,1.19313232421875,-1.5720307057797909,3.3159687147945163,0.32762367891911415
1772699404980090000,1.203090087890625,-1.5241992795467376,3.3925849214851853,0.3965168536096811
1772699404990047200,1.213047119140625,-1.1410545332074165,3.5187802748590706,0.3839209548762068
1772699405000005000,1.223005126953125,-0.5424643706798553,3.470600473579764,0.5888263088822364
1772699405009962000,1.2329619140625,-0.15699556530714034,3.0860505366176363,0.7493756211481988
1772699405019919000,1.242919189453125,-0.14288168149245903,2.333745145627856,0.7761524227842688
1772699405029877200,1.252877197265625,-0.24455460629463194,1.3238380352437495,0.5047837150504813
1772699405039834000,1.262834228515625,-0.17058337942110374,0.22666999003589153,-0.11295900131240487
1772699405049792000,1.2727919921875,0.23134906949652356,-1.141036997550726,-0.616156433552131
1772699405059749000,1.2827490234375,0.5952420211434364,-3.3480098666995763,-0.432525922765024
1772699405069707300,1.292707275390625,0.7569032401740551,-5.872803653883934,0.30597908907234667
1772699405079664000,1.3026640625,0.7674421698451042,-8.266101643198729,1.108740701840818
1772699405089622000,1.3126220703125,0.6388754111647605,-10.43525068538785,1.4718201268814504
1772699405099579100,1.3225791015625,0.09797405201792717,-12.464121488314866,1.050407901468128
1772699405109536300,1.332536376953125,-1.0370856246888638,-14.284687394458055,-0.1399067390685901
1772699405119494100,1.342494140625,-2.1551894904196263,-15.315380687761305,-1.601857396505773
1772699405129451000,1.352450927734375,-2.3541151489615437,-15.467268700796366,-2.978267038246989
1772699405139409200,1.3624091796875,-1.4439794954061507,-15.19808351111412,-3.64485521672368
1772699405149366000,1.372365966796875,0.08929039482474327,-14.569935245668887,-3.226641495090723
1772699405159324200,1.38232421875,1.5582769057154655,-13.668039012670516,-1.8664169722139834
1772699405169281300,1.39228125,2.8438462928414343,-12.988941481232642,-0.2288572709470987
1772699405179239000,1.402239013671875,3.8051135832190512,-12.635410951912402,1.3623977752625942
1772699405189196000,1.412196044921875,3.715099550294876,-12.917176221704482,2.9712966147124766
1772699405199153200,1.422153076171875,2.2253484837949276,-12.716060944163798,4.231579292629659
1772699405209111300,1.432111328125,-0.004819378413888626,-10.66348894765377,4.596884430895745
1772699405219068200,1.442068115234375,-1.5497481468230485,-7.5954656506359575,3.8232092118799685
1772699405229026000,1.452026123046875,-1.6255401776492595,-4.818786768138408,2.678952667760849
1772699405238983200,1.461983154296875,-0.9654787705928086,-2.5268811148524284,1.3319643508151173
1772699405248941000,1.471941162109375,-0.6956763257950543,-0.49687517041563983,0.16441979702375828
1772699405258898000,1.48189794921875,-1.0841489891588687,1.1046832431435585,-0.4537243762794882
1772699405268856000,1.49185595703125,-1.664814203417301,2.611722713574767,-0.8422052960149944
1772699405278813200,1.501813232421875,-1.9114251577198504,3.9711528712034223,-1.1653152603693306
1772699405288770300,1.511770263671875,-1.7875480181604624,5.111873057889938,-1.2463554209820926
1772699405298728200,1.521728271484375,-1.2427350385278462,6.283870426371693,-1.3138842119842766
1772699405308685000,1.53168505859375,-0.43945411459300665,7.393444948688149,-1.4271034716680646
1772699405318643200,1.541643310546875,0.3567932939758524,8.237197620275616,-1.4465034609258174
1772699405328600000,1.55160009765625,0.8463245679020881,8.869363889190554,-1.230995500895381
1772699405338558200,1.56155810546875,1.2031430328518151,9.551659339886903,-0.9376489527724683
1772699405348515000,1.57151513671875,1.5041244597673415,10.272118809282778,-0.6539760957933962
1772699405358472200,1.58147216796875,1.8945096787542104,10.73570311999321,-0.6631798313379287
1772699405368430000,1.59143017578125,2.280749468499422,11.041735400557517,-0.8018557499699294
1772699405378387200,1.60138720703125,2.5136557225763796,11.21540153015852,-1.1630075679488479
1772699405388345300,1.611345458984375,2.5716683510839937,11.341553044390677,-1.5244326499111949
1772699405398302000,1.621302001953125,2.5894734723657367,11.278445723092556,-1.7375364714093506
1772699405408260000,1.631260009765625,2.47747381760478,10.975752231562137,-1.8777702870078383
1772699405418217200,1.64121728515625,2.399975567382574,10.694347027254103,-1.88190753294304
1772699405428174000,1.651174072265625,2.30203307954669,10.228200172579287,-1.6374879512049256
1772699405438132000,1.661132080078125,2.2747978666186333,9.8168686116755,-1.4837453963443636
1772699405448089000,1.671089111328125,2.3001205239236353,9.501641801786421,-1.4012107593901455
1772699405458047200,1.681047119140625,2.2536399277776478,9.157444333478807,-1.2341663860164582
1772699405468003600,1.691003662109375,2.1748843709707257,8.783138727155327,-1.0036189700253306
1772699405477961500,1.70096142578125,1.925970984944701,8.327522618845105,-0.8056253316365182
1772699405487918600,1.710918701171875,1.603101551347971,7.930536978679895,-0.5680403451588004
1772699405497876700,1.720876708984375,1.3392916249632834,7.680233599600196,-0.25705446077510713
1772699405507833600,1.73083349609375,1.0767150397658347,7.410719908615946,-0.04778963291794061
1772699405517790500,1.74079052734375,0.8332242633104324,7.312667530664801,-0.05360569878555834
1772699405527748600,1.75074853515625,0.7063964572519064,7.365399588420987,-0.23298691809773445
1772699405537705700,1.760705810546875,0.6833902601957321,7.380747379678487,-0.538822141719982
1772699405547663600,1.77066357421875,0.6350432856559753,7.381345930093526,-0.8312482870623469
1772699405557620500,1.780620361328125,0.5140881710231304,7.164757773610949,-0.96966789284572
1772699405567578600,1.79057861328125,0.2854553747479804,6.679063922423124,-0.8653110809881239
1772699405577535700,1.80053564453125,-0.3010229279696941,6.046138359573483,-0.6175274296443909
1772699405587493600,1.81049365234375,-1.1210656381458044,5.340378446659446,-0.34585721821337934
1772699405597450500,1.820450439453125,-1.7447645229667423,4.333371733891964,-0.14822970972321928
1772699405607407600,1.83040771484375,-2.0969360388934613,2.960961683180928,0.21735117674432694
1772699405617365500,1.840365478515625,-2.2492507529079915,1.4789806661605833,0.6251278947107494
1772699405627322600,1.850322509765625,-1.7850807512640952,-0.07321662738025188,0.6543167259246111
1772699405637280800,1.86028076171875,-0.7047077735126018,-1.8584031771063803,0.14015669524166732
1772699405647237600,1.870237548828125,1.0342940212089569,-3.599771043372154,-0.6465155506543815
1772699405657195500,1.880195556640625,3.1520155854344365,-5.892564000886678,-1.297078038612008
1772699405667152600,1.890152587890625,4.367594321489334,-9.490401445847748,-1.0337842450559138
1772699405677109500,1.900109619140625,3.9035681122303005,-14.174363563954829,0.33880861487612124
1772699405687067400,1.9100673828125,2.04076348529458,-19.253786304616927,2.620443487907946
1772699405697024500,1.9200244140625,-1.234274084174633,-23.51019053416252,5.445473728859424
1772699405706982700,1.929982666015625,-4.884607440048456,-24.593784227526186,7.0451727782875295
1772699405716939800,1.939939697265625,-7.101735207986831,-21.86583225879669,6.740507694423198
1772699405726897400,1.9498974609375,-6.702799018275737,-17.69156153805852,4.816618191927671
1772699405736854500,1.9598544921875,-4.126263937938213,-14.21100957930684,2.4576634939804674
1772699405746812700,1.969812744140625,-1.7338111672759056,-11.459010380035638,0.9011748599212616
1772699405756769500,1.97976953125,-0.6466705950856209,-8.947266628560424,0.2205981227762997
1772699405766726400,1.989726318359375,-0.6586988865315914,-6.178966282829642,0.07028532316870988
1772699405776684500,1.9996845703125,-0.6159902101397514,-3.7977263955771923,0.1322802262455225
1772699405786641700,2.0096416015625,-0.06885083338618278,-2.329845800101757,0.09487572067640722
1772699405796599600,2.019599609375,0.45515192486457523,-1.7919290097236633,-0.15838417012132702
1772699405806556700,2.029556640625,0.09884029519213362,-1.868390902635455,-0.2709787220355123
1772699405816514600,2.0395146484375,-1.031726728004217,-1.6779723756760359,-0.4369277013879269
1772699405826471700,2.0494716796875,-1.978969000160694,-1.0565753380566836,-0.9601033611647785
1772699405836428500,2.059428466796875,-2.1313141093134877,-0.1870090107768774,-1.6220698711901902
1772699405846386700,2.06938671875,-1.6566577849686144,0.8854372656285763,-2.1234058204069735
1772699405856343600,2.079343505859375,-1.0932231069743632,1.935328011354804,-2.293996488085389
1772699405866301400,2.089301513671875,-0.7272983755052089,2.9316520020663734,-2.055879805883765
1772699405876258600,2.099258544921875,-0.4111924446940422,3.9812925724238153,-1.6374562408924103
1772699405886216700,2.109216796875,-0.018343465942144394,4.95461328868866,-1.2020210430845617
1772699405896173600,2.119173583984375,0.303346987003088,5.664622675740718,-0.6568176758948713
1772699405906131500,2.12913134765625,0.4250900371432304,6.202566354125738,-0.20645473887249827
1772699405916088600,2.139088623046875,0.31516485056877136,6.573760550430417,-0.03401712815314531
1772699405926045700,2.149045654296875,0.1734621314615011,6.726047207394242,-0.32308651041351255
1772699405936003600,2.159003662109375,-0.023981764090061187,6.877477539789676,-0.6887684461027384
1772699405945960400,2.16896044921875,-0.13776128800511359,6.980906934604048,-1.0236579147737472
1772699405955918600,2.178918701171875,-0.07580547482967376,7.1349798904627555,-1.244708676688373
1772699405965875700,2.188875732421875,0.08159808675646782,7.415096808525919,-0.9514318328008056
1772699405975833600,2.19883349609375,0.2749824777841568,7.698619735640287,-0.4389946438550949
1772699405985790500,2.20879052734375,0.440680404984951,7.9166539992779486,0.03917969854809344
1772699405995747600,2.21874755859375,0.5028010533332824,8.012891436761617,0.30480299449767917
1772699406005705500,2.22870556640625,0.41334699237942696,7.9941534185439345,0.3450521854408085
1772699406015662600,2.23866259765625,0.26157003850340843,7.89003721050918,0.09052187284845858
1772699406025620700,2.248620849609375,0.057791683799889866,7.7560852516591545,-0.22432499781232326
1772699406035577600,2.25857763671875,-0.10543372037410735,7.475645677512884,-0.503622598849237
1772699406045535500,2.268535400390625,-0.20973346828222272,6.913328605371714,-0.6710215578142553
1772699406055492600,2.27849267578125,-0.6483668776094913,6.0253656206578015,-0.5574843547550961
1772699406065450800,2.28845068359375,-1.2956991514742373,4.8498961921513075,-0.7125082181304693
1772699406075407600,2.29840771484375,-1.8894763607621192,3.3931665207654236,-1.2439379845768213
1772699406085364500,2.308364501953125,-2.2273346891760823,1.699943968987465,-1.6948025144457817
1772699406095322600,2.318322509765625,-1.9789245764970778,-0.4160644346445799,-1.648622362551093
1772699406105279700,2.32827978515625,-1.079964981472492,-2.842808181965351,-0.7640172368977218
1772699406115237600,2.338237548828125,0.565097094781138,-5.19139375385046,0.17864242017623036
1772699406125194500,2.348194580078125,2.4966858830749987,-8.122961584764719,0.9395577090032398
1772699406135152600,2.358152587890625,4.249416854876279,-11.82923134739399,2.0051666867345572
1772699406145109800,2.36810986328125,4.940463182783127,-15.882095702600479,3.0728911953151226
1772699406155066400,2.37806640625,4.4151463462591165,-20.199993973028658,3.9337142441689967
1772699406165024500,2.3880244140625,2.923144870483875,-24.033538700962065,4.362514826267957
1772699406174981600,2.397981689453125,0.9310252968490124,-26.556021873116492,4.5123061592847105
1772699406184939500,2.407939453125,-0.5732850408792496,-27.15538126645088,4.256321811959147
1772699406194896600,2.417896728515625,-0.48816575772669163,-25.866929017364978,3.7659807194873687
1772699406204854500,2.4278544921875,1.1464192751109599,-23.419987116146086,3.560982170772552
1772699406214811600,2.437811767578125,3.1313574128091335,-20.490382109737396,3.6716125830069184
1772699406224768500,2.4477685546875,4.305188426458836,-17.350047609746454,3.8922923927173017
1772699406234726700,2.4577265625,4.170650192153453,-14.251452648854254,3.824558288401365
1772699406244683500,2.46768359375,2.692292626327276,-10.940519590139388,3.5531653595417736
1772699406254641400,2.477641357421875,0.3722890058040619,-7.356231947103142,3.040821401837468
1772699406264598500,2.4875986328125,-1.6574153253376482,-3.0752544173151253,2.021871007167548
1772699406274556700,2.497556640625,-2.987877162635326,1.3672276796370744,0.708797746239975
1772699406284513800,2.507513671875,-3.7932425281614064,4.874815529352427,-0.1728773173108697
1772699406294471400,2.517471435546875,-3.9998645864248275,8.087582812869549,-1.2006028468497096
1772699406304428500,2.527428466796875,-3.5707781731218096,11.098536899709702,-2.906147266192734
1772699406314385700,2.5373857421875,-2.543447049728036,13.141637303519248,-4.713856321111321
1772699406324343800,2.54734375,-1.3086024721890688,14.102378524196148,-5.893043893358111
1772699406334300400,2.557300537109375,-0.47077919065058227,14.290704462790488,-6.146736330354213
1772699406344258600,2.567258544921875,-0.388572032085061,14.237461532902717,-5.442652241697907
1772699406354215700,2.577215576171875,-0.8363064472347498,13.907877696359156,-4.025252417920529
1772699406364173600,2.587173583984375,-1.1659528276205062,13.363012109756468,-2.2855416712120173
1772699406374130400,2.59713037109375,-1.0619055931687353,12.800903127408027,-0.8517511960607022
1772699406384087600,2.607087646484375,-0.5019148816158995,12.144741065877675,0.0174422793187201
1772699406394045700,2.617045654296875,0.360042614628002,11.22204169882536,0.514907670712471
1772699406404002600,2.62700244140625,1.1200637676268814,10.23770917468071,0.48323564438074823
1772699406413960700,2.636960693359375,1.559115110105276,9.394754375472663,0.21289215150885282
1772699406423917600,2.64691748046875,1.7013298703879116,8.774321798971295,-0.09502696571536362
1772699406433875500,2.65687548828125,1.482206057947874,8.1844503649503,-0.46375805984213947
1772699406443832600,2.66683251953125,1.0788900457173585,7.643850619098544,-0.84338354601413
1772699406453790700,2.676790771484375,0.8275028899889438,7.2534554632395505,-1.2339590268760918
1772699406463747600,2.68674755859375,0.6438373444210738,6.923726665267348,-1.41181880877465
1772699406473706200,2.696706298828125,0.5147544529121368,6.662586834874749,-1.3925602738142013
1772699406483664400,2.706664306640625,0.5654114579599351,6.523252013942599,-1.35079589253515
1772699406493621200,2.716621337890625,0.7040162841171026,6.504794566231966,-1.2606833676725626
1772699406503579400,2.726579345703125,0.8539034787237644,6.565186198830604,-1.2136026867415755
1772699406513536300,2.736536376953125,0.9409113155692815,6.6789522787421935,-1.1957376519661396
1772699406523494100,2.746494140625,0.8777554789543152,6.75857643507719,-1.0630815050803124
1772699406533451300,2.756451171875,0.7866444445736706,6.845906928005814,-1.0002751394901424
1772699406543408000,2.766408203125,0.7973585846811533,7.0609952013194555,-1.1075033420655875
1772699406553366300,2.7763662109375,0.8343945491988212,7.192545359724759,-1.1593482417237013
1772699406563323100,2.7863232421875,0.7308505880940706,7.18702455047667,-1.2318687765985727
1772699406573281300,2.79628125,0.600204100530222,7.209809798258543,-1.326030284591019
1772699406583238400,2.80623828125,0.5481236385505646,6.976288627153634,-1.2721565094538032
1772699406593196000,2.816196044921875,0.5402267478208989,6.650059946256875,-1.1932448122370987
1772699406603153200,2.826153076171875,0.2458329556673765,6.255810453057289,-0.9797747147098183
1772699406613110300,2.8361103515625,-0.2065354759585112,5.67629499335587,-0.6586003945931792
1772699406623068400,2.846068359375,-0.7360229492306709,4.882018592599034,-0.32468620069511234
1772699406633025300,2.856025390625,-1.204347732466459,3.8135856434881683,-0.01828136049136519
1772699406642983200,2.865983154296875,-1.5071014297515153,2.535373633387685,0.32831776213049885
1772699406652940300,2.875940185546875,-1.4899667550772429,1.019988359415531,0.4225857992373407
1772699406662898200,2.885898193359375,-1.0832628539741038,-0.5468716657280922,0.5899453029748052
1772699406672855300,2.895855224609375,-0.2806090854942798,-2.2235744598597287,0.8841101086780428
1772699406682812200,2.905812255859375,1.2514648729503155,-3.8486587104350325,1.2441279541909693
1772699406692770300,2.915770263671875,3.3523137013733386,-5.383669306853413,1.3935709121614694
1772699406702727400,2.9257275390625,4.68286321695447,-7.481081731086969,1.58080700969249
1772699406712685300,2.935685302734375,4.442893600362539,-9.657750647386909,1.6222021192677318
1772699406722642200,2.94564208984375,4.430976368075609,-10.868024847292899,1.3626251542776822
1772699406732600300,2.955600341796875,5.724545521783829,-13.4366946010828,1.7933396071739494
1772699406742557200,2.96555712890625,5.026892342957854,-18.9162319275856,3.5375504417806862
1772699406752515300,2.975515380859375,-0.3308440657377243,-23.75808860566616,5.710687676823139
1772699406762472200,2.98547216796875,-7.480763751178979,-25.20690092805624,6.914203050118684
1772699406772429300,2.99542919921875,-11.889814703172444,-22.793482526254653,6.34693273948431
1772699406782387200,3.00538720703125,-10.877024146306514,-17.65895456896424,4.6190217361629005
1772699406792344300,3.01534423828125,-5.138848743098974,-11.89872164772749,2.7453248360738156
1772699406802302500,3.025302490234375,1.532915669965744,-6.426517148330808,1.022120037681982
1772699406812259000,3.035259033203125,5.946333584997058,-3.0822517288565634,-0.30327326417975126
1772699406822217200,3.04521728515625,6.538696251311898,-2.4560925914019345,-0.8751797832474112
1772699406832174300,3.05517431640625,3.5117139897346497,-3.3875784915000198,-0.9721695734683423
1772699406842131500,3.06513134765625,-0.6589952391296625,-4.103915328007936,-1.0126246257144957
1772699406852089000,3.075089111328125,-3.198260034736991,-4.09195425657928,-1.6138871492564677
1772699406862046200,3.085046142578125,-3.628783202844858,-3.530808566305041,-2.69605227112174
1772699406872004400,3.09500439453125,-2.8003204548478124,-2.505758831846714,-3.670728493648767
1772699406881961500,3.10496142578125,-1.82503866764307,-1.2500368859738111,-3.92891415041089
1772699406891919400,3.11491943359375,-1.3336170864582062,0.1890735420912504,-3.8232927985101934
1772699406901876200,3.124876220703125,-1.0119126049876213,1.638980673980713,-3.5983047702118753
1772699406911833300,3.134833251953125,-0.5618809822788462,2.934939353173971,-3.1879598822578785
1772699406921791200,3.144791259765625,0.02227441218290478,4.084945254600048,-2.393369593246281
1772699406931748000,3.154748046875,0.5817506348749623,5.218979095390439,-1.2827180893480776
1772699406941706200,3.164706298828125,0.9983090270489454,6.240636264801025,-0.05061046249233186
1772699406951663400,3.174663330078125,1.4384803134679793,7.087094688215851,1.0515307680182158
1772699406961621200,3.184621337890625,1.717457998368144,7.732088289999961,1.6653196687214076
1772699406971578400,3.194578369140625,1.8423007680892942,8.311881397598981,1.7381790070965886
1772699406981535200,3.20453515625,1.7757324926823377,8.733896849602461,1.228840222557634
1772699406991493000,3.2144931640625,1.528034912186861,8.98259571609497,0.3730541449576616
1772699407001450200,3.2244501953125,1.1756652433395385,9.180136642280221,-0.5057541309852153
1772699407011408400,3.234408447265625,0.8205453990012407,9.301211583900452,-1.3002334339030086
1772699407021365200,3.244365234375,0.4804249708741903,9.33355084196925,-1.8346756800383328
1772699407031323100,3.2543232421875,0.2323912902921438,9.306879108142851,-2.0397921560443937
1772699407041280300,3.2642802734375,0.007540898632537573,9.174640382951498,-2.095417597154528
1772699407051238400,3.27423828125,-0.29847265896499153,8.860323673644661,-2.02978879455477
1772699407061195300,3.2841953125,-0.5790051720917224,8.444361530330777,-2.0027622559413314
1772699407071152000,3.294152099609375,-0.791120567074418,8.064965907391905,-2.0355174013346433
1772699407081110300,3.3041103515625,-0.8520949679970741,7.720210220679641,-2.0502204649478197
1772699407091067400,3.3140673828125,-0.7068705045044422,7.48779379594624,-2.0497829503133893
1772699407101025300,3.324025390625,-0.40590953585505485,7.2956059212267395,-1.6765986031048
1772699407110982100,3.333982177734375,-0.1055845635542646,6.959862393009662,-0.9039812225788831
1772699407120940300,3.343940185546875,-0.022367278098128735,6.34400545386076,-0.20100882149152458
1772699407130897400,3.3538974609375,-0.21168577139377592,5.003151401886344,0.21798136440664528
1772699407140854300,3.363854248046875,0.015591536885499952,2.892594833919406,-0.04672583961132914
1772699407150812200,3.373812255859375,0.8838193090379237,0.1312339320629835,-0.9559083936929702
1772699407160769300,3.383769287109375,1.9101134905993937,-3.6728935627281665,-1.7743791783772407
1772699407170727200,3.39372705078125,2.393330722540617,-8.609086813107133,-1.796680442034453
1772699407180684300,3.403684326171875,2.1730524793684483,-14.069106369191408,-0.14510354965985753
1772699407190642400,3.413642333984375,1.6589596321702003,-19.679173278880118,2.6636677126064896
1772699407200599300,3.423599365234375,0.7113900277554989,-24.860651203393935,5.8442807392328975
1772699407210556200,3.43355615234375,0.08739778601117432,-28.488771558415888,7.950524704697727
1772699407220514300,3.443514404296875,0.10733221093919128,-30.577733549690244,8.794850207737088
1772699407230471400,3.453471435546875,-0.03772270467281341,-31.189973467385766,8.616900117206573
1772699407240429000,3.463428955078125,-0.3283422389846295,-29.826174008631703,7.559882880601286
1772699407250386200,3.47338623046875,-0.23419454032182693,-26.60102538244724,5.765360347253083
1772699407260344300,3.48334423828125,0.42682380213327703,-22.2018855836153,3.807534672886133
1772699407270301400,3.493301513671875,1.163806463241577,-17.735170378160475,1.866611618003249
1772699407280258300,3.50325830078125,1.3739151945769785,-14.03674373024702,0.23576431038919834
1772699407290216200,3.51321630859375,0.6561082855165005,-10.689911675155162,-1.231557372561842
1772699407300173300,3.52317333984375,-0.9463888701975345,-7.185456278246641,-2.5082389582246543
1772699407310131200,3.533131103515625,-2.6227146477103234,-3.4435072994709013,-3.469425584581494
1772699407320088000,3.543088134765625,-3.460135778188705,0.5050643220901488,-3.991918595856428
1772699407330046200,3.553046142578125,-3.299327961117029,4.33110320443809,-4.049643055072426
1772699407340003300,3.56300341796875,-2.4078595986306666,7.857429072371125,-3.5851854686588047
1772699407349960400,3.57296044921875,-1.3049965566515922,10.784300269901753,-2.7196061651885506
1772699407359918300,3.58291845703125,-0.3231505520930514,13.036212935495376,-1.8340525797039269
1772699407369875200,3.592875244140625,0.4335106594860553,14.464777419626712,-1.4240616197541356
1772699407379833300,3.602833251953125,0.7320750883877277,14.887154106158016,-0.9284827727593481
1772699407389790200,3.612790283203125,0.4468365895271301,14.6390280711174,-0.19890644238479435
1772699407399748400,3.622748291015625,-0.3065255805065855,14.411587096709011,0.5325444496899843
1772699407409705200,3.632705322265625,-0.923493147778511,14.43598854751587,0.8243843195769935
1772699407419663000,3.6426630859375,-0.8096060718357563,14.551284321212767,0.6290178878866136
1772699407429620200,3.6526201171875,-0.046264907568693156,14.416582420778274,0.10491522205849177
1772699407439577300,3.662577392578125,0.7350199096679687,13.908160604953766,-0.39242899977415796
1772699407449535500,3.672535400390625,1.1578840874552727,13.06943949779272,-0.8796923653010278
1772699407459492000,3.6824921875,1.0331389328896998,12.049725863665342,-1.1692390827495605
1772699407469448400,3.692448486328125,0.6837661077708006,11.074176365435124,-1.27136521294564
1772699407479405300,3.7024052734375,0.3591869476467371,10.335404994279145,-1.2203133633613585
1772699407489362400,3.712362548828125,0.37700843554139135,9.764647426050901,-1.1401890024192631
1772699407499320600,3.722320556640625,0.5698012904167175,9.224546277371049,-1.1224907025128603
1772699407509277700,3.732277587890625,0.8752244991719722,8.75803058938384,-0.9654681030683219
1772699407519235600,3.742235595703125,1.171475390434265,8.291640573602914,-0.7117863335967064
1772699407529192400,3.7521923828125,1.216640227806568,7.653102431568503,-0.3456875242022797
1772699407539150600,3.762150634765625,0.9826572844088077,6.774489459002018,0.08368815437089651
1772699407549107500,3.772107421875,0.5215718047767878,5.909077328792214,0.48282706357985733
1772699407559065600,3.782065673828125,0.06554481411073357,5.1527358141541475,0.7025070485979318
1772699407569022500,3.7920224609375,-0.22130239858813583,4.671791787841916,0.6365238796025514
1772699407578979600,3.8019794921875,-0.23966913580801336,4.591429964882135,0.4209161855246871
1772699407588937500,3.8119375,0.005416800884343684,4.852257660585642,0.059374016521312294
1772699407598894600,3.82189453125,0.4709925411403179,5.2117807083189485,-0.3616377383323386
1772699407608852700,3.831852783203125,0.9219435802489518,5.4867818908035755,-0.5657984114509076
1772699407618809300,3.841809326171875,1.0744068358886987,5.636665578278899,-0.561643885587342
1772699407628766500,3.851766357421875,0.9276695566803217,5.667998289653658,-0.36030484576076266
1772699407638724600,3.861724609375,0.7337076580256223,5.779041666603088,-0.1713984038647264
1772699407648681500,3.871681396484375,0.5922954462975263,5.667594385027885,-0.030484058656170963
1772699407658639400,3.881639404296875,0.5175829908689483,5.539405812010169,0.15479253883752972
1772699407668596500,3.891596435546875,0.4338531893134117,5.375853664666414,0.4431592892538756
1772699407678554600,3.9015546875,0.3030646446640603,4.9179900696903465,0.37182398210819806
1772699407688511500,3.911511474609375,0.014604863935708999,4.267652184268832,0.14428287179358304
1772699407698469400,3.921469482421875,-0.4775988075375557,3.2157080131441353,0.18791242589000612
1772699407708426500,3.931426513671875,-1.0024655622065066,1.8948370110124348,0.12954068174641578
1772699407718383600,3.941383544921875,-1.3371183725774287,0.40571722815334793,-0.2576576873652637
1772699407728341500,3.951341552734375,-0.690463048126176,-1.2934621862024067,-0.6822269155047833
1772699407738298400,3.96129833984375,1.436603852071613,-3.3698820912897585,-1.193087210522592
1772699407748256500,3.971256591796875,4.476998114538192,-6.075926179593801,-1.1102727337136864
1772699407758213600,3.981213623046875,6.369030005002021,-10.134112022083997,0.36121743056103583
1772699407768170500,3.99117041015625,5.609815565276145,-14.882993479347228,2.9985037705898283
1772699407778128600,4.001128662109375,3.5934196285188196,-19.415130712783334,5.601801770168542
1772699407788085500,4.01108544921875,2.126189021384716,-23.74120527540445,7.672655273300409
1772699407798043400,4.02104345703125,0.5800946843614802,-27.57496978356838,9.171903651463985
1772699407808000500,4.03100048828125,-2.0740742187440393,-28.963889655053613,10.092670589148998
1772699407817958700,4.040958740234375,-4.353162476032972,-26.665509837317465,9.58717313633859
1772699407827915500,4.05091552734375,-4.529396994817256,-21.842231602978703,7.420115513470768
1772699407837873400,4.060873291015625,-2.5374305659174916,-16.4883676518023,4.608420847171545
1772699407847830500,4.07083056640625,0.21289569517280904,-11.424805328094958,2.0415588734559713
1772699407857787600,4.08078759765625,2.1790578572630883,-7.026188091832399,0.039609102941304444
1772699407867745300,4.090745361328125,2.8692192190289494,-4.168563449007272,-1.3990112035192548
1772699407877702400,4.100702392578125,2.1534417699694632,-2.683504924237728,-2.1782816121935844
1772699407887660500,4.11066064453125,0.3989992450099438,-1.8667624246507881,-2.4567951867133377
1772699407897617700,4.12061767578125,-1.5266156930387018,-1.0662602812469004,-2.4759341869473457
1772699407907575600,4.130575439453125,-2.7288252444326875,0.0883914001584053,-2.6055133375406263
1772699407917532400,4.140532470703125,-2.935233952206373,1.4414701429337262,-2.8893445999518037
1772699407927489500,4.150489501953125,-2.420279519742727,2.7416829724401235,-3.408534770289063
1772699407937447400,4.160447509765625,-1.7464496995747087,4.023486869552731,-3.865900352615118
1772699407947404500,4.170404541015625,-1.219402678257227,5.196785383760929,-3.965215005587041
1772699407957362400,4.180362548828125,-0.9260486774802208,6.1719227940589185,-3.7631887506812807
1772699407967319600,4.190319580078125,-0.8089397168815136,6.9077434987157575,-3.3603590606629847
1772699407977277400,4.20027734375,-0.6789677675783634,7.450588977667689,-2.822417428104579
1772699407987234600,4.210234619140625,-0.520562335473299,7.7959829622834915,-2.0405933894246817
1772699407997191400,4.22019140625,-0.39750761821269986,8.104859526363015,-1.0754266804557293
1772699408007149600,4.230149658203125,-0.3268096956551075,8.402371815863251,-0.2783105262283236
1772699408017106400,4.2401064453125,-0.23722470179796218,8.70881150818467,0.2791183354798704
1772699408027064600,4.250064697265625,-0.2198001042664051,8.939947245457768,0.7091402760673314
1772699408037021400,4.260021484375,-0.1143441537941806,9.148585904240608,0.5561982969999313
1772699408046979300,4.269979248046875,0.004444722715485841,9.396846963837742,0.06908807620815932
1772699408056936400,4.2799365234375,0.07115852580666542,9.438280213466285,-0.5001193399686366
1772699408066893600,4.2898935546875,0.029240113876527172,9.444289098492265,-1.047203187142685
1772699408076851700,4.299851806640625,-0.06076807382875122,9.352412194305657,-1.520483473894
1772699408086808300,4.309808349609375,-0.19776127267135307,9.20130451799333,-1.7870570197731255
1772699408096766500,4.319766357421875,-0.41890462650656696,9.00292597194016,-1.9207523735135792
1772699408106723600,4.3297236328125,-0.6160276195406913,8.735324252057074,-1.9542295495711266
1772699408116681500,4.339681396484375,-0.7521171749413013,8.510611825829743,-1.9204402388244866
1772699408126638300,4.349638427734375,-0.7373486448764801,8.389551497256756,-1.9272344290092587
1772699408136595500,4.359595458984375,-0.6509352667927741,8.153381272947788,-1.9291244805395602
1772699408146553600,4.3695537109375,-0.8004454447805881,7.656323147180676,-1.834962680286169
1772699408156510500,4.379510498046875,-1.2576105360984802,6.836342980846762,-1.581409651760757
1772699408166468600,4.389468505859375,-2.016530376791954,5.630996300470828,-1.0755657236002385
1772699408176425500,4.399425537109375,-2.819197004753351,4.067155330887436,-0.5424768283026292
1772699408186383400,4.40938330078125,-3.4499054760754104,2.105104732301831,-0.35055527636911715
1772699408196340500,4.419340576171875,-3.210163823020458,-0.10722586448788642,-0.7926722534958273
1772699408206297300,4.42929736328125,-1.4388812954843044,-2.079338422882557,-2.1268970235235987
1772699408216255500,4.43925537109375,1.953058313834667,-4.551228887397051,-3.2402395200714467
1772699408226212600,4.449212646484375,5.449128159713744,-8.583516903042792,-2.6937808190584183
1772699408236170500,4.45917041015625,7.782518500554561,-13.835442574745416,-0.616283274802193
1772699408246127600,4.469127685546875,7.940688954859971,-20.3604241889596,2.493287472808361
1772699408256085500,4.47908544921875,6.206732826155424,-28.700511105823516,5.964341535374522
1772699408266042400,4.48904248046875,2.109152546387911,-36.29281683112383,8.867811983573436
1772699408275999500,4.49899951171875,-3.328086438089609,-40.04512236874103,9.823882874351739
1772699408285957600,4.50895751953125,-6.756260559350252,-38.150850590395926,8.346695521348714
1772699408295914500,4.51891455078125,-4.826190322393178,-32.61227655303478,5.5724616939157245
1772699408305872400,4.528872314453125,1.1652081467330455,-26.5677193251729,3.801133573672175
1772699408315829500,4.53882958984375,6.347391004645824,-20.50117472190857,3.929104704546928
1772699408325787600,4.54878759765625,7.9589622781753535,-15.395179616141318,5.063077170538902
1772699408335744500,4.55874462890625,6.658005936825275,-11.764928094309568,5.685698781517147
1772699408345701400,4.568701416015625,3.9245091934502123,-8.37617120667994,5.2106970047354695
1772699408355659500,4.578659423828125,1.4346703997910022,-4.556404244208336,3.6846108885288236
1772699408365616600,4.58861669921875,-0.49589668077230453,-0.5617571001708507,2.1042006230689583
1772699408375574500,4.598574462890625,-2.36092950515151,2.899571687194705,0.9308524975653737
1772699408385531400,4.608531494140625,-3.9213013373196124,6.312648192566633,-0.24350027493610976
1772699408395489500,4.618489501953125,-4.932634096592665,9.758017778778076,-1.7200952150039375
1772699408405446700,4.62844677734375,-5.14034745722413,12.726460757625102,-3.3158880507737396
1772699408415403500,4.638403564453125,-4.557929846340418,15.13625979988575,-4.722474219591915
1772699408425361400,4.648361328125,-3.5890988427102566,16.912963183426857,-5.526840929469466
1772699408435318500,4.658318603515625,-2.8293548261523247,18.065287298667428,-5.493666389620304
1772699408445276400,4.6682763671875,-2.222216615509987,18.63027095966935,-4.885673900236189
1772699408455233500,4.678233642578125,-1.4649591550707817,18.86513770016432,-3.946674848029017
1772699408465191700,4.688191650390625,-0.4320060270767659,18.71201050072312,-2.8531144719243047
1772699408475148800,4.698148681640625,0.6846341227769851,18.15633593533635,-1.9264599375054239
1772699408485105700,4.708105712890625,1.5062322457015513,17.187061864113808,-1.2712488930895924
1772699408495063800,4.718063720703125,1.829405046159029,15.879998438060282,-0.9185081259075552
1772699408505021000,4.72802099609375,1.854965019351244,14.29778886809349,-0.8021618933096527
1772699408514978800,4.737978759765625,1.6821639821469783,12.449720037996768,-0.8090621742174029
1772699408524936000,4.74793603515625,1.2199883691906928,10.406756412309408,-0.7040231522493064
1772699408534893800,4.757893798828125,0.6482926433295011,8.448549629670381,-0.5635542857859284
1772699408544851000,4.767850830078125,0.18522446544766424,6.684633831509947,-0.6586936258345842
1772699408554807800,4.777807861328125,0.012947744378447533,5.329931286925077,-1.02455508280918
1772699408564766000,4.787765869140625,0.0593190531973727,4.533860988488793,-1.395429107248783
1772699408574722800,4.797722900390625,0.2730038711875677,4.160624472701549,-1.7013652339622378
1772699408584680700,4.8076806640625,0.545519666597247,4.186111965179443,-1.788745995773375
1772699408594637800,4.817637939453125,0.9074825086981058,4.4812090102314945,-1.602221992034465
1772699408604595000,4.827594970703125,1.1954629997432231,4.831363341116905,-1.294492990554869
1772699408614552800,4.837552734375,1.2890180662751196,5.136210795810818,-0.9228737737711519
1772699408624509700,4.847509765625,1.1636311066746712,5.361890605765581,-0.5505742465730756
1772699408634467800,4.8574677734375,0.965675754469633,5.488900782653689,-0.16723690027110277
1772699408644425000,4.867425048828125,0.787137050396204,5.7210576796680686,0.0795876237168908
1772699408654382800,4.8773828125,0.7495955475091933,6.085020755675434,0.11714059784598647
1772699408664339700,4.887339599609375,0.872735020443797,6.394456122681498,0.13197832068949936
1772699408674296800,4.897296875,0.9797516260951756,6.625691813197731,0.09972867713291197
1772699408684255000,4.9072548828125,0.9520207386046647,6.779906223353743,0.13601875518672168
1772699408694211800,4.9172119140625,0.8374865969300269,6.823512140846252,0.19706687893271446
1772699408704169700,4.927169677734375,0.6450140600502491,6.831307909289002,0.1545136853635311
1772699408714126800,4.937126953125,0.49963758433368055,6.614864714235067,0.0644756870418787
1772699408724084700,4.947084716796875,0.307319397765398,6.024426878502965,-0.09036193304639309
1772699408734041900,4.957041748046875,-0.04109773406386375,5.157693728822469,-0.21360157841984181
1772699408743998700,4.966998779296875,-0.4060720329403877,3.796291978859901,-0.2635170078527182
1772699408753956900,4.976956787109375,-1.0592495257019996,1.564730611899495,-0.13732858654311858
1772699408763914000,4.9869140625,-2.0733312914222477,-1.4270499879151581,0.18348248061854391
1772699408773871900,4.996871826171875,-2.8615374323546883,-4.327333622771501,0.606046944806911
1772699408783828700,5.006828857421875,-2.2954724058568474,-6.246767314901947,0.6217571031033993
1772699408793787000,5.016786865234375,0.9572715718049556,-6.902261267912388,-0.4472079070575535
1772699408803743700,5.02674365234375,6.969501158970594,-7.096462820541858,-1.912045773836225
1772699408813700900,5.036700927734375,13.489597339230775,-11.2028658737123,-2.0537217510670422
1772699408823659000,5.046658935546875,14.579799637079239,-21.161041483175755,1.5724197050973772
1772699408833616000,5.056615966796875,7.033000694456696,-30.036543436729907,7.071138409671187
1772699408843573800,5.06657373046875,-5.533559424069524,-33.06740633913278,10.459654474282264
1772699408853531000,5.07653076171875,-14.7783430183053,-30.15214783798456,10.813965924847125
1772699408863489000,5.086489013671875,-17.09637913814783,-23.395201049935817,8.646966754168272
1772699408873445600,5.096445556640625,-13.117784134244918,-15.822427708101271,5.334101850607991
1772699408883402800,5.10640283203125,-5.666485547003149,-9.599493688729405,2.7939453668579457
1772699408893361000,5.11636083984375,1.9187749359607695,-5.033692670622468,0.9475263497948646
1772699408903318000,5.126318115234375,7.185740355885028,-1.9688035799771546,-0.20382197921611367
1772699408913276000,5.13627587890625,8.786618385964632,-0.12919804232120513,-0.582072523773089
1772699408923232800,5.146232666015625,7.082362983518839,0.7535457464396953,-0.6587780892476439
1772699408933191000,5.15619091796875,3.3487890343785285,0.8036866186589002,-0.7302422469373792
1772699408943147800,5.166147705078125,-0.009751542153023183,0.5123462957918644,-1.1114851051781325
1772699408953104600,5.176104736328125,-2.224874436542392,0.3040653644055128,-1.4464363870389758
1772699408963062800,5.186062744140625,-3.2812621430724858,0.3423147233009338,-1.7725993092231451
1772699408973020000,5.19602001953125,-3.4377889218240973,0.7867319767266512,-2.184742040379345
1772699408982977800,5.205977783203125,-3.1681711859434842,1.0721984391242265,-2.3740698494926096
1772699408992935000,5.215934814453125,-2.7541128304243085,1.2845406286001204,-2.261695808461308
1772699409002892800,5.225892822265625,-2.4459626809231936,1.7895406532824039,-2.051297738790512
1772699409012850000,5.235849853515625,-1.8898282429397104,2.772924498400092,-1.7844399691425263
1772699409022806800,5.245806884765625,-0.9395300903439521,3.6605543056368828,-1.4909686255961656
1772699409032765000,5.255764892578125,-0.016443258344009518,4.338180595478415,-0.9235559838816523
1772699409042721800,5.2657216796875,0.5147708925902843,4.983596222066879,0.1279893971838057
1772699409052679700,5.2756796875,0.79009122402668,5.528007635161281,0.9801417944565415
1772699409062636800,5.28563671875,0.9428069200575351,5.9777867078810925,1.2452737632252275
1772699409072595000,5.295594970703125,1.0365040254086255,6.272881414845585,1.017860334410891
1772699409082552000,5.305552001953125,1.023116136047244,6.252336054944991,0.41796011219806967
1772699409092508700,5.3155087890625,0.7678279542922973,5.9222372546166175,-0.027205986833572386
1772699409102466800,5.325466796875,0.37156595222651956,5.581681942203641,-0.2686906476309523
1772699409112424000,5.335423828125,-0.11404255876541138,5.380618687111139,-0.4947927015857771
1772699409122381800,5.3453818359375,-0.6717845780760049,4.825984570688009,-0.5437257323851808
1772699409132338700,5.355338623046875,-0.8439549161612987,4.1212703674346205,-0.5933714780312032
1772699409142296800,5.365296875,-0.6991583226919174,3.5165462321966885,-0.8535558343298733
1772699409152254000,5.37525390625,-0.29669865329610184,2.814018140810728,-1.25076154698655
1772699409162210800,5.3852109375,0.2292547458320856,2.012088010430336,-1.5569408348061144
1772699409172168700,5.395168701171875,0.663216656216979,1.2401017674148083,-1.451537947961688
1772699409182125800,5.405125732421875,0.9427677570909261,0.5380599982410669,-0.8293549475964158
1772699409192083700,5.415083740234375,1.2513187424778938,0.04492284530997276,-0.1862384830621071
1772699409202040800,5.425040771484375,1.4740771120280027,-0.2223006889104843,0.23710089275520294
1772699409211997700,5.434997802734375,1.515856398615241,-0.6894388927102089,0.40452754344474523
1772699409221955800,5.444955810546875,1.5585715047478674,-1.1639286283165216,0.17039408566039055
1772699409231913000,5.454912841796875,1.4880623827606438,-1.598034331086278,-0.29866067408407104
1772699409241870800,5.464870849609375,1.2625503305882215,-2.3340993658930063,-0.6698245300494134
1772699409251828000,5.474827880859375,0.6547616201478987,-3.4750498542040584,-0.6566849163606763
1772699409261785900,5.484785888671875,-0.6690572720039636,-4.618554118651152,-0.20724862919654696
1772699409271742700,5.49474267578125,-2.374202828222513,-5.0249780337691305,0.3218302998073399
1772699409281699800,5.504699951171875,-3.911059344768524,-4.454196500143409,0.36044867467824365
1772699409291658000,5.514657958984375,-4.646458024621009,-3.4042116463929415,0.05280789947137236
1772699409301614800,5.52461474609375,-4.079668190979957,-2.599120421633124,0.2089554331144318
1772699409311572700,5.53457275390625,-5.354851793169975,-0.08086451178491115,-0.8982007394813001
1772699409321529900,5.54452978515625,-10.053402408599853,1.9744319412529467,-0.015541414133459329
1772699409331488000,5.554488037109375,-1.5984084250956774,1.9384949509531257,1.506485489810258
1772699409341444600,5.564444580078125,3.9570688162714243,2.418170564764738,0.816059851085022
1772699409351401700,5.574401611328125,3.158268800610304,3.894611483314633,1.6651888819485903
1772699409361360000,5.58435986328125,3.4039228925794363,4.336206080535054,0.7476330152645707
1772699409371317000,5.59431689453125,2.809676312214136,3.716563193106651,-0.4199680910196155
1772699409381275000,5.60427490234375,-0.06181267837770283,2.0324416471511126,-4.074859037132561
1772699409391231700,5.614231689453125,-1.3833920479744672,1.4504817169070243,-2.806791404427588
1772699409401190000,5.62418994140625,0.015541852524876594,2.0457278297036887,-0.22137294307369737
1772699409411146800,5.634146728515625,0.6611654958408325,2.1367624378472567,0.4249253846334293
1772699409421103900,5.644103759765625,1.1834738712638615,1.6176263357847929,-0.6935628407724201
1772699409431061800,5.654061767578125,0.638828064891696,1.2110901924639939,-1.4962752075716852
1772699409441019000,5.664018798828125,0.13948095140457153,0.41612171778976914,-1.3913522131986915
1772699409450976800,5.673976806640625,0.40126901657283304,0.5310311225175858,-1.5064371206238865
1772699409460934000,5.683933837890625,0.7053449023723601,1.2283195596843957,-1.8442239912368357
1772699409470890500,5.693890380859375,0.5436643941193818,1.2512462617635727,-1.8673264882743357
1772699409480848600,5.7038486328125,0.38517712894976136,1.088999351799488,-1.2644314681597053
1772699409490805500,5.713805419921875,0.0039759178936481475,0.4579173709899187,-0.12174699566289782
1772699409500763600,5.723763671875,-0.15635492931604383,-1.3212936114579439,1.7886948501080273
1772699409510720500,5.733720458984375,-0.7920072867810726,-2.0848241608172655,2.5214538291066884
1772699409520678400,5.743678466796875,-0.5594353792250156,-2.454635378330946,2.338357169467956
1772699409530635500,5.753635498046875,-0.1667787081748247,-3.108216775718331,1.7730381390318273
1772699409540592600,5.763592529296875,-0.08833587057888508,-4.131027206817269,0.513169996732287
1772699409550550800,5.77355078125,0.24107202487587928,-3.791766025868058,-0.8098448490276933
1772699409560507600,5.783507568359375,0.113239425688982,-3.2584196121454236,-0.14481047586426138
1772699409570465500,5.793465576171875,0.4071101438164711,-2.6964041532993317,0.04780413636732846
1772699409580422700,5.803422607421875,0.4080430407524109,-2.086354439124465,-0.07934661803524941
1772699409590380500,5.813380615234375,0.10306523767709731,-1.4046587078869341,0.4135398115377873
1772699409600337400,5.82333740234375,0.11978957798480987,-0.5574211167931556,0.7211011283002793
1772699409610294500,5.83329443359375,0.12297872941493987,0.19963819072544572,0.5383975961649791
1772699409620252700,5.843252685546875,-0.08203297104239464,0.6976771442234516,0.5494819212917238
1772699409630209800,5.853209716796875,-0.07702011131644249,1.001663013651967,0.647593555149436
1772699409640167700,5.863167724609375,-0.14166414066255092,1.020081882917881,0.43001846998874094
1772699409650124500,5.87312451171875,-0.274568051764369,1.0015449402302503,0.3023726255455986
1772699409660082700,5.883082763671875,-0.2427186230391264,0.8140268108874559,0.18645499362330883
1772699409670039600,5.89303955078125,-0.2807137149125337,0.5058019887149333,-0.1293091745454818
1772699409679996400,5.902996337890625,-0.24325112248063085,0.23137889837920664,-0.4349150463912636
1772699409689954600,5.91295458984375,-0.24793949949257074,0.0545978516280651,-0.6624293782968074
1772699409699911700,5.92291162109375,-0.2820148606389761,0.09617781625092028,-0.6059095821628346
1772699409709869600,5.93286962890625,-0.48738019683957096,-0.0831803875118494,-0.21085726641407235
1772699409719826700,5.94282666015625,-0.41408641256988044,0.15289163711965084,-0.06077264953916892
1772699409729783600,5.952783447265625,-0.35260932282209395,0.5622264712482691,0.02485812679948285
1772699409739741400,5.962741455078125,-0.38949155808277425,0.5905798745512962,-0.0686535755147226
1772699409749698600,5.972698486328125,-0.458146576635912,0.08092296397387981,0.05378883680012077
1772699409759656700,5.98265673828125,-0.42933710012845694,-0.4551443991452455,-0.02096360357897356
1772699409769613600,5.992613525390625,-0.13680968636870383,0.26098142496049404,0.07396130826771259
1772699409779571500,6.002571533203125,-0.17597323749959468,0.4419645995765924,-0.2702879267597571
1772699409789528600,6.012528564453125,-0.2611795778810978,0.32899346943497654,-0.2270439379148185
1772699409799485700,6.022485595703125,-0.2394026303589344,0.5068254865437746,-0.139057611425966
1772699409809443800,6.03244384765625,-0.19083777528479695,0.5497942751765251,-0.4305082262670621
1772699409819400400,6.042400390625,-0.1252234396018088,0.5829863506823778,-0.6096593266177922
1772699409829358600,6.052358642578125,-0.19180808162167667,0.6952595616877079,-0.3590735504001379
1772699409839315700,6.062315673828125,-0.3090138536583632,0.7655056488245725,-0.18939122973829506
1772699409849273600,6.072273681640625,-0.2955802985243499,0.7308832482546568,0.011079393223300576
1772699409859230500,6.08223046875,-0.2860914624281227,0.5337409659981728,0.23788833507215604
1772699409869187600,6.0921875,-0.2585655959904194,0.3040139264792204,0.156514759520255
1772699409879145700,6.102145751953125,-0.1989304808475077,0.12127718619406222,0.07366907472233288
1772699409889102600,6.1121025390625,-0.14372801438979804,0.09668108959794044,0.08574488597130403
1772699409899060500,6.122060546875,-0.11730353332273662,0.0041512744605541226,0.07744852932896465
1772699409909017600,6.132017578125,-0.017491233026981353,0.04995557878017425,0.1455128154473379
1772699409918974700,6.141974609375,-0.03648176470100879,0.28532267001271244,0.25084234479460865
1772699409928932600,6.1519326171875,-0.07138641627840697,0.33908056368529793,0.22250823071394116
1772699409938889500,6.161889404296875,-0.06569499970376491,0.41078444841504097,0.18291911111474035
1772699409948847600,6.17184765625,0.0014519523739814758,0.26689269483089445,0.12115538644529879
1772699409958804500,6.181804443359375,-0.01353168174624443,0.027371991050243377,0.07052019137050956
1772699409968762600,6.1917626953125,0.051257893550395964,-0.16765081483423708,0.03175024266708642
1772699409978719700,6.2017197265625,0.13447978211641312,-0.13355097683370112,0.04714408328970894
1772699409988676600,6.211676513671875,0.1480260769098997,0.06123977386057376,0.09273995075672864
1772699409998634500,6.221634521484375,0.1894786888260394,0.18673136287927627,0.0907166830345057
1772699410008591600,6.231591552734375,0.20145378878004847,0.19485387905836105,0.10667139067659154
1772699410018549800,6.2415498046875,0.22442476839236913,0.18368717287778855,0.1477465293161571
1772699410028506600,6.251506591796875,0.20004151082932947,0.22044132477939127,0.16623778796484692
1772699410038464500,6.261464599609375,0.1877138711106032,0.27752164087295533,0.1180932954609394
1772699410048421600,6.271421630859375,0.2075052708387375,0.2433808863401413,0.1234261261225678
1772699410058378800,6.281378662109375,0.2320038253445178,0.20497604462206362,0.14653660553712397
1772699410068336400,6.29133642578125,0.2446305941402912,0.14730068524479864,0.11192647992689161
1772699410078293500,6.30129345703125,0.23092881652414798,0.16821955463290214,0.11311517825480549
1772699410088251600,6.311251708984375,0.2279343839485198,0.14869067829847335,0.13383622351586819
1772699410098208800,6.321208740234375,0.21095278094410896,0.01023556281030178,0.19496599766332656
1772699410108165400,6.331165283203125,0.23570618699379264,0.11156535499691962,0.233816117197182
1772699410118123500,6.34112353515625,0.39469321837909516,0.5122071795821189,0.08134842284433544
1772699410128080600,6.35108056640625,0.3168448395449668,0.34984804141521453,-0.055361109351832416
1772699410138038500,6.36103857421875,0.27868841963000596,-0.10035305610895157,-0.0030109818516299127
1772699410147995600,6.37099560546875,0.29577742853164674,-0.317601137804985,-0.005245280242338776
1772699410157953500,6.38095361328125,0.3345207814890891,-0.3504594513118267,0.024081516403798013
1772699410167910700,6.39091064453125,0.3094588209468871,-0.4081377332985401,0.23791476642135528
1772699410177867800,6.40086767578125,0.20818506979644297,-0.45190556335449217,0.3519136687081307
1772699410187825700,6.41082568359375,0.2266781002771109,-0.40200025345683094,0.2797917229630984
1772699410197782500,6.420782470703125,0.2148153015911579,-0.33701544784903525,0.1697341604469344
1772699410207740700,6.43074072265625,0.18781148626618085,-0.3451256890684366,0.13313114398643375
1772699410217697500,6.440697509765625,0.1502794818598777,-0.32493454943299294,0.1334326476836577
