time,seconds_elapsed,z,y,x
1772699403854898700,0.077898681640625,0.12062527984380722,-0.05388743802905083,0.06400469690561295
1772699403864855600,0.08785546875,0.18446922302246094,-0.050485748797655106,0.20068944990634918
1772699403874812700,0.097812744140625,0.2018093317747116,-0.048624467104673386,0.37091580033302307
1772699403884770600,0.1077705078125,0.17948031425476074,-0.026534050703048706,0.5176250338554382
1772699403894727700,0.117727783203125,0.15040364861488342,-0.00340689392760396,0.6160863637924194
1772699403904685800,0.127685791015625,0.13061316311359406,-0.0010872380807995796,0.6280147433280945
1772699403914642700,0.137642578125,0.12212859094142914,0.006607699673622847,0.5706833004951477
1772699403924600600,0.1476005859375,0.12940597534179688,0.006272872444242239,0.46541035175323486
1772699403934557700,0.1575576171875,0.12995564937591553,0.011992808431386948,0.33671388030052185
1772699403944515600,0.167515625,0.11639885604381561,0.02810727059841156,0.20508414506912231
1772699403954472400,0.177472412109375,0.0888572409749031,0.052436843514442444,0.08481844514608383
1772699403964429600,0.1874296875,0.05338815227150917,0.07622510939836502,-0.016144216060638428
1772699403974387700,0.1973876953125,0.005358308553695679,0.10082632303237915,-0.08685167133808136
1772699403984344800,0.2073447265625,-0.03546447679400444,0.11281638592481613,-0.12462187558412552
1772699403994302700,0.217302734375,-0.05760466679930687,0.1100032851099968,-0.13781118392944336
1772699404004259600,0.227259521484375,-0.062477461993694305,0.09648429602384567,-0.13326627016067505
1772699404014217700,0.2372177734375,-0.05564432218670845,0.0819903090596199,-0.11161744594573975
1772699404024174600,0.247174560546875,-0.0551028735935688,0.07865090668201447,-0.08007793873548508
1772699404034132700,0.2571328125,-0.051392290741205215,0.0770503431558609,-0.04974666237831116
1772699404044089600,0.267089599609375,-0.043081656098365784,0.06627365946769714,-0.011005325242877007
1772699404054046700,0.277046630859375,-0.031477462500333786,0.042263664305210114,0.03074238821864128
1772699404064004600,0.287004638671875,-0.011567415669560432,0.03151943162083626,0.06939142942428589
1772699404073961700,0.296961669921875,0.010706198401749134,0.017071250826120377,0.10293847322463989
1772699404083919600,0.306919677734375,0.03024476021528244,-0.0061832391656935215,0.12291042506694794
1772699404093876500,0.31687646484375,0.04644423723220825,-0.02673059143126011,0.12686096131801605
1772699404103834600,0.326834716796875,0.041846830397844315,-0.0474846251308918,0.1091906726360321
1772699404113791700,0.336791748046875,0.011639922857284546,-0.05836044251918793,0.07920321822166443
1772699404123749600,0.34674951171875,-0.03478562459349632,-0.061154644936323166,0.041651636362075806
1772699404133706500,0.35670654296875,-0.09691903740167618,-0.07327523082494736,0.0036099785938858986
1772699404143663600,0.36666357421875,-0.15094982087612152,-0.06823430955410004,-0.01697946898639202
1772699404153621800,0.376621826171875,-0.18338392674922943,-0.05350382998585701,-0.030440151691436768
1772699404163578600,0.38657861328125,-0.19374705851078033,-0.03557760640978813,-0.027723053470253944
1772699404173536500,0.39653662109375,-0.17321568727493286,-0.011425662785768509,-0.02071121521294117
1772699404183493600,0.40649365234375,-0.14541788399219513,0.0023814868181943893,-0.015515625476837158
1772699404193451500,0.416451416015625,-0.09779895842075348,0.0010653524659574032,-0.0005382744129747152
1772699404203408600,0.42640869140625,-0.041094377636909485,-0.002005323302000761,0.019222550094127655
1772699404213366800,0.43636669921875,-0.003160047112032771,-0.02560412511229515,0.031010767444968224
1772699404223323600,0.44632373046875,0.015902871266007423,-0.0660405233502388,0.038879428058862686
1772699404233280800,0.45628076171875,0.04273341968655586,-0.09034905582666397,0.044111739844083786
1772699404243238700,0.46623876953125,0.059835948050022125,-0.10403045266866684,0.045521948486566544
1772699404253195500,0.476195556640625,0.06545654684305191,-0.1315547674894333,0.04684847220778465
1772699404263153700,0.486153564453125,0.07569295167922974,-0.16407544910907745,0.07140479236841202
1772699404273110500,0.496110595703125,0.07922963052988052,-0.2285146266222,0.141161248087883
1772699404283068700,0.506068603515625,0.09386631846427917,-0.21915802359580994,0.2654244601726532
1772699404293025800,0.51602587890625,0.11382804065942764,-0.17320625483989716,0.34383484721183777
1772699404302983400,0.5259833984375,0.1270386427640915,-0.11779435724020004,0.4072299897670746
1772699404312940500,0.5359404296875,0.14614789187908173,-0.13652411103248596,0.5117800831794739
1772699404322897700,0.545897705078125,0.18625220656394958,-0.19221490621566772,0.6894654631614685
1772699404332855800,0.555855712890625,0.24441829323768616,-0.24832236766815186,0.8664495944976807
1772699404342812400,0.5658125,0.26540663838386536,-0.29512813687324524,0.894148051738739
1772699404352770600,0.5757705078125,0.23221273720264435,-0.1910371631383896,0.6821708083152771
1772699404362727700,0.585727783203125,0.08471626043319702,-0.05838946998119354,0.23542025685310364
1772699404372685600,0.595685546875,-0.22031500935554504,0.050923705101013184,-0.182649165391922
1772699404382642700,0.605642578125,-0.4730439782142639,0.14848364889621735,-0.3076854646205902
1772699404392600600,0.6156005859375,-0.6249949336051941,0.16387273371219635,-0.2320689857006073
1772699404402557700,0.6255576171875,-0.6160866022109985,0.01821744069457054,-0.09308578819036484
1772699404412514600,0.6355146484375,-0.3550778925418854,-0.16258883476257324,-0.009371446445584297
1772699404422472700,0.64547265625,-0.0024830747861415148,-0.26977816224098206,0.03736158087849617
1772699404432429600,0.6554296875,0.24118097126483917,-0.3626481890678406,0.07429323345422745
1772699404442387500,0.665387451171875,0.31086015701293945,-0.39495033025741577,0.0711900144815445
1772699404452344600,0.675344482421875,0.2802388370037079,-0.4510234594345093,0.12207849323749542
1772699404462302700,0.685302734375,0.1493929922580719,-0.45415574312210083,0.22222460806369781
1772699404472260400,0.69526025390625,-0.03163004666566849,-0.38975197076797485,0.24929137527942657
1772699404482218000,0.705218017578125,-0.20686553418636322,-0.20460176467895508,0.22741438448429108
1772699404492175000,0.715175048828125,-0.36799901723861694,-0.011752416379749775,0.1782284677028656
1772699404502132200,0.72513232421875,-0.5079481601715088,0.17669202387332916,0.12020095437765121
1772699404512090000,0.735090087890625,-0.41275638341903687,0.7048354744911194,0.33047378063201904
1772699404522047000,0.745046875,-0.5395113825798035,0.2125459462404251,0.6450659036636353
1772699404532005000,0.755005126953125,-0.6192480325698853,0.03790116310119629,0.8263869881629944
1772699404541962200,0.764962158203125,-0.6119003891944885,0.002084027975797653,0.7746537923812866
1772699404551920000,0.774920166015625,-0.5494066476821899,-0.05906561017036438,0.6805251836776733
1772699404561877200,0.784877197265625,-0.440212219953537,-0.1433224081993103,0.5582356452941895
1772699404571835100,0.794835205078125,-0.29817652702331543,-0.12974774837493896,0.4006766676902771
1772699404581792000,0.8047919921875,-0.15432296693325043,-0.06956934928894043,0.25652772188186646
1772699404591749000,0.8147490234375,-0.04862025007605553,-0.05135306343436241,0.18277651071548462
1772699404601707300,0.824707275390625,-0.019972873851656914,-0.011946843937039375,0.18089886009693146
1772699404611664100,0.8346640625,-0.056862447410821915,0.0038555548526346684,0.22363407909870148
1772699404621622000,0.8446220703125,-0.13917303085327148,-0.008989935740828514,0.27150171995162964
1772699404631579100,0.8545791015625,-0.23041905462741852,-0.02213130332529545,0.27245140075683594
1772699404641537300,0.864537353515625,-0.2781684696674347,-0.039054885506629944,0.21742594242095947
1772699404651494100,0.874494140625,-0.2989741563796997,-0.05724560469388962,0.130784809589386
1772699404661452000,0.8844521484375,-0.27420786023139954,-0.0688587948679924,0.08271534740924835
1772699404671409200,0.8944091796875,-0.27562013268470764,-0.0579502210021019,0.04335568845272064
1772699404681366300,0.9043662109375,-0.26208215951919556,0.018681012094020844,0.054518867284059525
1772699404691324200,0.91432421875,-0.22656328976154327,0.07385905086994171,0.13273803889751434
1772699404701281000,0.924281005859375,-0.19006869196891785,0.1052631139755249,0.20286710560321808
1772699404711239200,0.9342392578125,-0.15552696585655212,0.10000336915254593,0.24727770686149597
1772699404721196300,0.9441962890625,-0.12161482125520706,0.07683738321065903,0.2500954270362854
1772699404731154200,0.954154296875,-0.09242603927850723,0.036910466849803925,0.21376724541187286
1772699404741111000,0.964111083984375,-0.06587964296340942,0.011386975646018982,0.14641810953617096
1772699404751069200,0.974069091796875,-0.04853234812617302,0.02606472186744213,0.05758785083889961
1772699404761026000,0.984026123046875,-0.04558342695236206,0.08596133440732956,-0.020780429244041443
1772699404770983200,0.993983154296875,-0.0927267000079155,0.11162035912275314,-0.09201546013355255
1772699404780941300,1.00394140625,-0.1316935271024704,0.13999737799167633,-0.13398653268814087
1772699404790898200,1.013898193359375,-0.14199037849903107,0.16242972016334534,-0.10858023911714554
1772699404800856000,1.02385595703125,-0.1454397439956665,0.18210101127624512,-0.019716808572411537
1772699404810813200,1.033813232421875,-0.14317873120307922,0.17775633931159973,0.08852231502532959
1772699404820771300,1.043771240234375,-0.14280134439468384,0.19647349417209625,0.1476885974407196
1772699404830728000,1.05372802734375,-0.1297159045934677,0.21358777582645416,0.15089797973632812
1772699404840686000,1.06368603515625,-0.10114229470491409,0.24022656679153442,0.11547349393367767
1772699404850643200,1.073643310546875,-0.09093493223190308,0.2633265554904938,0.0666782557964325
1772699404860600300,1.083600341796875,-0.10451653599739075,0.2780756950378418,0.022108573466539383
1772699404870558000,1.093557861328125,-0.12850522994995117,0.283253937959671,-0.015836944803595543
1772699404880515000,1.10351513671875,-0.15431341528892517,0.2925998568534851,-0.026171008124947548
1772699404890473200,1.11347314453125,-0.18944157660007477,0.30071184039115906,0.0010297205299139023
1772699404900430000,1.12343017578125,-0.2687115967273712,0.3126102387905121,0.047457873821258545
1772699404910388200,1.13338818359375,-0.33423519134521484,0.32062530517578125,0.08705934137105942
1772699404920345000,1.143344970703125,-0.36632463335990906,0.31628817319869995,0.11357665061950684
1772699404930302200,1.15330224609375,-0.3900991976261139,0.3338112533092499,0.15424844622612
1772699404940260000,1.163260009765625,-0.39970478415489197,0.3688810169696808,0.21174778044223785
1772699404950217200,1.17321728515625,-0.4028715491294861,0.4068553149700165,0.2567583918571472
1772699404960175000,1.183175048828125,-0.37826499342918396,0.43485286831855774,0.30801814794540405
1772699404970132200,1.19313232421875,-0.32272210717201233,0.43576446175575256,0.38383060693740845
1772699404980090000,1.203090087890625,-0.26721328496932983,0.4425412714481354,0.43557700514793396
1772699404990047200,1.213047119140625,-0.1906370222568512,0.46619948744773865,0.42259782552719116
1772699405000005000,1.223005126953125,-0.08836290240287781,0.5131878852844238,0.35341885685920715
1772699405009962000,1.2329619140625,0.027619896456599236,0.5428118705749512,0.28385308384895325
1772699405019919000,1.242919189453125,0.1146930456161499,0.5522339940071106,0.23130063712596893
1772699405029877200,1.252877197265625,0.12033229321241379,0.537112295627594,0.2013043910264969
1772699405039834000,1.262834228515625,0.044573571532964706,0.5416064858436584,0.14970001578330994
1772699405049792000,1.2727919921875,-0.03351004421710968,0.5487602949142456,0.04542873799800873
1772699405059749000,1.2827490234375,-0.020672010257840157,0.545304000377655,-0.10450883209705353
1772699405069707300,1.292707275390625,0.09319436550140381,0.5304449200630188,-0.28276538848876953
1772699405079664000,1.3026640625,0.31038716435432434,0.4641276001930237,-0.4582458436489105
1772699405089622000,1.3126220703125,0.4989813268184662,0.35058319568634033,-0.5928864479064941
1772699405099579100,1.3225791015625,0.5540147423744202,0.20012709498405457,-0.5824670195579529
1772699405109536300,1.332536376953125,0.4121553599834442,-0.010804855264723301,-0.35564136505126953
1772699405119494100,1.342494140625,0.09292732179164886,-0.24755433201789856,0.0027100397273898125
1772699405129451000,1.352450927734375,-0.33478885889053345,-0.4483305811882019,0.3300522267818451
1772699405139409200,1.3624091796875,-0.7398931980133057,-0.5853685736656189,0.5153826475143433
1772699405149366000,1.372365966796875,-1.0067472457885742,-0.6500104069709778,0.5310500264167786
1772699405159324200,1.38232421875,-1.0761338472366333,-0.700263261795044,0.40642088651657104
1772699405169281300,1.39228125,-0.9814448952674866,-0.7232876420021057,0.14047445356845856
1772699405179239000,1.402239013671875,-0.7752530574798584,-0.6888086199760437,-0.23509959876537323
1772699405189196000,1.412196044921875,-0.4990590810775757,-0.5894178152084351,-0.5544794797897339
1772699405199153200,1.422153076171875,-0.20915423333644867,-0.5247388482093811,-0.6289851069450378
1772699405209111300,1.432111328125,-0.010680828243494034,-0.49493616819381714,-0.4857776165008545
1772699405219068200,1.442068115234375,0.09614706039428711,-0.4834839701652527,-0.3604867160320282
1772699405229026000,1.452026123046875,0.1258695274591446,-0.5023532509803772,-0.3705209791660309
1772699405238983200,1.461983154296875,0.06861874461174011,-0.5164285898208618,-0.49029359221458435
1772699405248941000,1.471941162109375,-0.018909236416220665,-0.5269307494163513,-0.6030504703521729
1772699405258898000,1.48189794921875,-0.12029469758272171,-0.49011072516441345,-0.6081340909004211
1772699405268856000,1.49185595703125,-0.2661895751953125,-0.4357830286026001,-0.5234658122062683
1772699405278813200,1.501813232421875,-0.39422109723091125,-0.4068405330181122,-0.3805006742477417
1772699405288770300,1.511770263671875,-0.4646760821342468,-0.40996283292770386,-0.21564063429832458
1772699405298728200,1.521728271484375,-0.5219355821609497,-0.39852574467658997,-0.07401179522275925
1772699405308685000,1.53168505859375,-0.5800114274024963,-0.3779784142971039,0.007024738937616348
1772699405318643200,1.541643310546875,-0.6107177138328552,-0.3305356204509735,0.04729318246245384
1772699405328600000,1.55160009765625,-0.574566125869751,-0.28416916728019714,0.08887391537427902
1772699405338558200,1.56155810546875,-0.4582391679286957,-0.25901174545288086,0.12117557972669601
1772699405348515000,1.57151513671875,-0.3064195513725281,-0.23366084694862366,0.14629718661308289
1772699405358472200,1.58147216796875,-0.16678127646446228,-0.20728588104248047,0.1251010149717331
1772699405368430000,1.59143017578125,-0.06662617623806,-0.1768091917037964,0.0661439523100853
1772699405378387200,1.60138720703125,-0.009237699210643768,-0.14816373586654663,0.011554086580872536
1772699405388345300,1.611345458984375,0.011067838408052921,-0.11073566973209381,-0.025764789432287216
1772699405398302000,1.621302001953125,0.01251499354839325,-0.07190117239952087,-0.0359724760055542
1772699405408260000,1.631260009765625,-0.013454822823405266,-0.05251655727624893,-0.024882009252905846
1772699405418217200,1.64121728515625,-0.030986400321125984,-0.03227788954973221,-0.022676825523376465
1772699405428174000,1.651174072265625,-0.031774431467056274,0.0022449344396591187,-0.00988859310746193
1772699405438132000,1.661132080078125,-0.030529171228408813,0.0336383618414402,-0.011605285108089447
1772699405448089000,1.671089111328125,-0.0170367993414402,0.0725436806678772,-0.028427140787243843
1772699405458047200,1.681047119140625,0.01605941541492939,0.10548821091651917,-0.04540016129612923
1772699405468003600,1.691003662109375,0.06545119732618332,0.14339935779571533,-0.06506600975990295
1772699405477961500,1.70096142578125,0.13589788973331451,0.18126457929611206,-0.06299872696399689
1772699405487918600,1.710918701171875,0.22597824037075043,0.21611443161964417,-0.04116853326559067
1772699405497876700,1.720876708984375,0.35087335109710693,0.2537224292755127,-0.00747733935713768
1772699405507833600,1.73083349609375,0.47053101658821106,0.27826371788978577,0.062165386974811554
1772699405517790500,1.74079052734375,0.5626586079597473,0.3008510172367096,0.12607121467590332
1772699405527748600,1.75074853515625,0.6070343255996704,0.332800954580307,0.18579420447349548
1772699405537705700,1.760705810546875,0.5965808033943176,0.368179589509964,0.23624898493289948
1772699405547663600,1.77066357421875,0.5454859137535095,0.4075680077075958,0.281057208776474
1772699405557620500,1.780620361328125,0.5035757422447205,0.42362654209136963,0.3174492418766022
1772699405567578600,1.79057861328125,0.4784637987613678,0.4086470603942871,0.3966574966907501
1772699405577535700,1.80053564453125,0.4806148111820221,0.3427737355232239,0.5512184500694275
1772699405587493600,1.81049365234375,0.4697621762752533,0.23440411686897278,0.7707511186599731
1772699405597450500,1.820450439453125,0.4275449216365814,0.14298026263713837,0.9838721752166748
1772699405607407600,1.83040771484375,0.366793155670166,0.10085225105285645,1.143816351890564
1772699405617365500,1.840365478515625,0.2999352812767029,0.06895799934864044,1.2297515869140625
1772699405627322600,1.850322509765625,0.2300960272550583,-0.0050933221355080605,1.2166343927383423
1772699405637280800,1.86028076171875,0.13095586001873016,-0.11359371989965439,1.1115787029266357
1772699405647237600,1.870237548828125,-0.03368900716304779,-0.20089852809906006,0.8183968663215637
1772699405657195500,1.880195556640625,-0.264582097530365,-0.2715350091457367,0.27957919239997864
1772699405667152600,1.890152587890625,-0.519075334072113,-0.28326359391212463,-0.36216965317726135
1772699405677109500,1.900109619140625,-0.7161937952041626,-0.09488313645124435,-0.8600167632102966
1772699405687067400,1.9100673828125,-0.7258778810501099,0.2058980017900467,-1.073549747467041
1772699405697024500,1.9200244140625,-0.5488942861557007,0.45000147819519043,-0.9437033534049988
1772699405706982700,1.929982666015625,-0.2613765001296997,0.4435097575187683,-0.48134395480155945
1772699405716939800,1.939939697265625,-0.023388700559735298,0.31509771943092346,0.11295824497938156
1772699405726897400,1.9498974609375,0.04169176518917084,0.18256790935993195,0.5038801431655884
1772699405736854500,1.9598544921875,-0.03300108388066292,0.15302298963069916,0.5550429821014404
1772699405746812700,1.969812744140625,-0.14548341929912567,0.1708826869726181,0.41703957319259644
1772699405756769500,1.97976953125,-0.2056862860918045,0.19380897283554077,0.27625173330307007
1772699405766726400,1.989726318359375,-0.16824330389499664,0.186692476272583,0.1499348133802414
1772699405776684500,1.9996845703125,-0.051394976675510406,0.16411951184272766,-0.03829364478588104
1772699405786641700,2.0096416015625,0.09550099819898605,0.09907021373510361,-0.3129366636276245
1772699405796599600,2.019599609375,0.2463221400976181,0.005799805745482445,-0.5871551036834717
1772699405806556700,2.029556640625,0.367989718914032,-0.09164313226938248,-0.6989220976829529
1772699405816514600,2.0395146484375,0.40620264410972595,-0.18497127294540405,-0.6249187588691711
1772699405826471700,2.0494716796875,0.3403559923171997,-0.26227912306785583,-0.4503704011440277
1772699405836428500,2.059428466796875,0.19454413652420044,-0.322291761636734,-0.2885932922363281
1772699405846386700,2.06938671875,0.028589267283678055,-0.37953028082847595,-0.18094272911548615
1772699405856343600,2.079343505859375,-0.10695947706699371,-0.4180103838443756,-0.10217680037021637
1772699405866301400,2.089301513671875,-0.1800914704799652,-0.43278586864471436,-0.037036944180727005
1772699405876258600,2.099258544921875,-0.19716022908687592,-0.43715551495552063,-0.003819238394498825
1772699405886216700,2.109216796875,-0.13452588021755219,-0.436000794172287,-0.010120011866092682
1772699405896173600,2.119173583984375,-0.007839802652597427,-0.4334138333797455,-0.04303829371929169
1772699405906131500,2.12913134765625,0.14768986403942108,-0.4136497378349304,-0.07558345049619675
1772699405916088600,2.139088623046875,0.2650952935218811,-0.3876417279243469,-0.08006887882947922
1772699405926045700,2.149045654296875,0.31335708498954773,-0.3468647599220276,-0.04643208906054497
1772699405936003600,2.159003662109375,0.29632964730262756,-0.313022643327713,0.02921532467007637
1772699405945960400,2.16896044921875,0.2319764792919159,-0.2758861780166626,0.10883451998233795
1772699405955918600,2.178918701171875,0.17660380899906158,-0.2347436398267746,0.1608748883008957
1772699405965875700,2.188875732421875,0.18389953672885895,-0.18044312298297882,0.17472626268863678
1772699405975833600,2.19883349609375,0.26625216007232666,-0.13196314871311188,0.15122471749782562
1772699405985790500,2.20879052734375,0.39768609404563904,-0.08651230484247208,0.10030988603830338
1772699405995747600,2.21874755859375,0.5427583456039429,-0.03808033466339111,0.038154397159814835
1772699406005705500,2.22870556640625,0.6573184728622437,-0.00733946543186903,-0.011169743724167347
1772699406015662600,2.23866259765625,0.7126812934875488,0.03345059975981712,-0.04890309274196625
1772699406025620700,2.248620849609375,0.7025234699249268,0.07333382964134216,-0.07671288400888443
1772699406035577600,2.25857763671875,0.6554057598114014,0.09323113411664963,-0.10967225581407547
1772699406045535500,2.268535400390625,0.6242518424987793,0.07360976189374924,-0.11728090792894363
1772699406055492600,2.27849267578125,0.5795989632606506,0.014776414260268211,-0.05013339966535568
1772699406065450800,2.28845068359375,0.46726495027542114,-0.10509113222360611,0.11077398806810379
1772699406075407600,2.29840771484375,0.2410448044538498,-0.22906433045864105,0.356851190328598
1772699406085364500,2.308364501953125,-0.08342915028333664,-0.3298833668231964,0.6020785570144653
1772699406095322600,2.318322509765625,-0.37682852149009705,-0.3828459084033966,0.7905095219612122
1772699406105279700,2.32827978515625,-0.5720486044883728,-0.37990206480026245,0.8753852248191833
1772699406115237600,2.338237548828125,-0.6911728382110596,-0.329179048538208,0.7911050319671631
1772699406125194500,2.348194580078125,-0.7065544128417969,-0.26954689621925354,0.5050501227378845
1772699406135152600,2.358152587890625,-0.614473819732666,-0.2087462842464447,0.056601084768772125
1772699406145109800,2.36810986328125,-0.46194422245025635,-0.16259609162807465,-0.36560770869255066
1772699406155066400,2.37806640625,-0.3124955892562866,-0.12886938452720642,-0.5829921364784241
1772699406165024500,2.3880244140625,-0.24660710990428925,-0.07256671041250229,-0.5171348452568054
1772699406174981600,2.397981689453125,-0.2948452830314636,-0.029807671904563904,-0.2036667764186859
1772699406184939500,2.407939453125,-0.43573129177093506,0.028787730261683464,0.21810735762119293
1772699406194896600,2.417896728515625,-0.5596864819526672,0.15774348378181458,0.4787461757659912
1772699406204854500,2.4278544921875,-0.5706483125686646,0.31121826171875,0.42611759901046753
1772699406214811600,2.437811767578125,-0.41987213492393494,0.42647644877433777,0.11473001539707184
1772699406224768500,2.4477685546875,-0.19542092084884644,0.5420472621917725,-0.31146764755249023
1772699406234726700,2.4577265625,0.01244889385998249,0.6804989576339722,-0.7008278369903564
1772699406244683500,2.46768359375,0.18123285472393036,0.8151371479034424,-0.9183492660522461
1772699406254641400,2.477641357421875,0.2877577245235443,0.927923858165741,-0.928655207157135
1772699406264598500,2.4875986328125,0.303398996591568,0.9591571092605591,-0.8198352456092834
1772699406274556700,2.497556640625,0.3317749500274658,0.8539338111877441,-0.671501100063324
1772699406284513800,2.507513671875,0.4279544949531555,0.6622951626777649,-0.5250917077064514
1772699406294471400,2.517471435546875,0.4737488925457001,0.36518430709838867,-0.3994407653808594
1772699406304428500,2.527428466796875,0.37217700481414795,0.033640723675489426,-0.32714980840682983
1772699406314385700,2.5373857421875,0.09943331032991409,-0.24088524281978607,-0.3445844054222107
1772699406324343800,2.54734375,-0.30088239908218384,-0.3964948058128357,-0.4300079345703125
1772699406334300400,2.557300537109375,-0.7421974539756775,-0.4187357425689697,-0.5029856562614441
1772699406344258600,2.567258544921875,-1.1006935834884644,-0.3793577253818512,-0.4956899583339691
1772699406354215700,2.577215576171875,-1.2710788249969482,-0.3370228409767151,-0.41057172417640686
1772699406364173600,2.587173583984375,-1.2189346551895142,-0.31022369861602783,-0.3069065809249878
1772699406374130400,2.59713037109375,-0.9983682632446289,-0.3330170512199402,-0.23958007991313934
1772699406384087600,2.607087646484375,-0.700461208820343,-0.3639504611492157,-0.25166577100753784
1772699406394045700,2.617045654296875,-0.40503033995628357,-0.34932124614715576,-0.3293796181678772
1772699406404002600,2.62700244140625,-0.1708865612745285,-0.3057713806629181,-0.43297579884529114
1772699406413960700,2.636960693359375,-0.002216815249994397,-0.24339382350444794,-0.5244247317314148
1772699406423917600,2.64691748046875,0.10592616349458694,-0.1876693069934845,-0.5796581506729126
1772699406433875500,2.65687548828125,0.15368780493736267,-0.14623740315437317,-0.5562670230865479
1772699406443832600,2.66683251953125,0.13791470229625702,-0.12130969017744064,-0.4839549660682678
1772699406453790700,2.676790771484375,0.09187161177396774,-0.09472183138132095,-0.39403197169303894
1772699406463747600,2.68674755859375,0.04190218821167946,-0.07553562521934509,-0.2805165946483612
1772699406473706200,2.696706298828125,0.012436394579708576,-0.06770128756761551,-0.17660443484783173
1772699406483664400,2.706664306640625,-0.0016706357710063457,-0.05626273900270462,-0.09894534200429916
1772699406493621200,2.716621337890625,-0.0027470781933516264,-0.03923530504107475,-0.05273490771651268
1772699406503579400,2.726579345703125,0.001355254789814353,-0.022257652133703232,-0.029646098613739014
1772699406513536300,2.736536376953125,0.019299136474728584,0.0077531589195132256,-0.012064957059919834
1772699406523494100,2.746494140625,0.05518390238285065,0.031425729393959045,0.024357233196496964
1772699406533451300,2.756451171875,0.08325652033090591,0.03694865107536316,0.06346715241670609
1772699406543408000,2.766408203125,0.10966762155294418,0.03143510967493057,0.09468765556812286
1772699406553366300,2.7763662109375,0.12598879635334015,0.04162466526031494,0.13803981244564056
1772699406563323100,2.7863232421875,0.11873140931129456,0.03043512813746929,0.1998366117477417
1772699406573281300,2.79628125,0.103281669318676,0.01159127987921238,0.26961076259613037
1772699406583238400,2.80623828125,0.0801108330488205,-0.0061030276119709015,0.3209682106971741
1772699406593196000,2.816196044921875,0.06309585273265839,-0.013419420458376408,0.37747931480407715
1772699406603153200,2.826153076171875,0.06516166776418686,-0.02657383866608143,0.48940372467041016
1772699406613110300,2.8361103515625,0.07942261546850204,-0.04650357738137245,0.638038158416748
1772699406623068400,2.846068359375,0.09178713709115982,-0.057632926851511,0.8047970533370972
1772699406633025300,2.856025390625,0.12603916227817535,-0.07165272533893585,0.998976469039917
1772699406642983200,2.865983154296875,0.13773469626903534,-0.13327747583389282,1.1892071962356567
1772699406652940300,2.875940185546875,0.12145689129829407,-0.20976229012012482,1.3139787912368774
1772699406662898200,2.885898193359375,0.07437299937009811,-0.27282246947288513,1.3519381284713745
1772699406672855300,2.895855224609375,0.07285262644290924,-0.3359309434890747,1.312575101852417
1772699406682812200,2.905812255859375,0.10535544157028198,-0.35134851932525635,1.1050015687942505
1772699406692770300,2.915770263671875,0.11011368036270142,-0.2838418185710907,0.6448113322257996
1772699406702727400,2.9257275390625,0.08462642878293991,-0.2038940042257309,0.12723660469055176
1772699406712685300,2.935685302734375,0.044658005237579346,-0.24823491275310516,-0.34315380454063416
1772699406722642200,2.94564208984375,-0.006124482024461031,-0.35400235652923584,-0.9837713837623596
1772699406732600300,2.955600341796875,-0.06112544238567352,-0.34129074215888977,-1.7729820013046265
1772699406742557200,2.96555712890625,-0.09164206683635712,-0.1379549503326416,-2.169576644897461
1772699406752515300,2.975515380859375,-0.16577273607254028,0.24613726139068604,-1.660380244255066
1772699406762472200,2.98547216796875,-0.3161252439022064,0.532598078250885,-0.41047343611717224
1772699406772429300,2.99542919921875,-0.47159233689308167,0.6743262410163879,0.9020960330963135
1772699406782387200,3.00538720703125,-0.4773695468902588,0.6452813148498535,1.6020456552505493
1772699406792344300,3.01534423828125,-0.2700938582420349,0.5317139625549316,1.46040940284729
1772699406802302500,3.025302490234375,0.03943391144275665,0.34963712096214294,0.635147213935852
1772699406812259000,3.035259033203125,0.33618220686912537,0.20881345868110657,-0.39532366394996643
1772699406822217200,3.04521728515625,0.5255979299545288,0.20587918162345886,-1.1353803873062134
1772699406832174300,3.05517431640625,0.613584578037262,0.2501038610935211,-1.2982791662216187
1772699406842131500,3.06513134765625,0.6277278065681458,0.24917708337306976,-1.046305775642395
1772699406852089000,3.075089111328125,0.5432265400886536,0.15252752602100372,-0.6475601196289062
1772699406862046200,3.085046142578125,0.3570270538330078,-0.007452815771102905,-0.3068414032459259
1772699406872004400,3.09500439453125,0.1434793323278427,-0.21665500104427338,-0.07289883494377136
1772699406881961500,3.10496142578125,-0.06694447994232178,-0.41153979301452637,0.11516320705413818
1772699406891919400,3.11491943359375,-0.2994903326034546,-0.5369281768798828,0.30589887499809265
1772699406901876200,3.124876220703125,-0.5357034206390381,-0.5908436179161072,0.4672960340976715
1772699406911833300,3.134833251953125,-0.7171017527580261,-0.6010252833366394,0.5672228932380676
1772699406921791200,3.144791259765625,-0.769788384437561,-0.5787253379821777,0.6051430702209473
1772699406931748000,3.154748046875,-0.6672065854072571,-0.5179944038391113,0.5867206454277039
1772699406941706200,3.164706298828125,-0.4186380207538605,-0.42379656434059143,0.512881875038147
1772699406951663400,3.174663330078125,-0.05515676736831665,-0.3027611970901489,0.393280029296875
1772699406961621200,3.184621337890625,0.3466127812862396,-0.18456344306468964,0.2479582577943802
1772699406971578400,3.194578369140625,0.7099161744117737,-0.06904198974370956,0.10349483788013458
1772699406981535200,3.20453515625,0.9599534273147583,0.02916952595114708,-0.009371787309646606
1772699406991493000,3.2144931640625,1.0780906677246094,0.12096106261014938,-0.07147195935249329
1772699407001450200,3.2244501953125,1.0865843296051025,0.18711316585540771,-0.0845898911356926
1772699407011408400,3.234408447265625,1.0193251371383667,0.2234245389699936,-0.048076506704092026
1772699407021365200,3.244365234375,0.9295592904090881,0.22987312078475952,0.006697794422507286
1772699407031323100,3.2543232421875,0.8510141372680664,0.20045898854732513,0.06686227023601532
1772699407041280300,3.2642802734375,0.7950358390808105,0.14130938053131104,0.15503180027008057
1772699407051238400,3.27423828125,0.7538372874259949,0.06246500462293625,0.2614007592201233
1772699407061195300,3.2841953125,0.7103548049926758,-0.026009464636445045,0.4041094481945038
1772699407071152000,3.294152099609375,0.6427011489868164,-0.10798342525959015,0.5538078546524048
1772699407081110300,3.3041103515625,0.5475653409957886,-0.17792361974716187,0.6945724487304688
1772699407091067400,3.3140673828125,0.4660819172859192,-0.2358066737651825,0.7899560928344727
1772699407101025300,3.324025390625,0.4528862237930298,-0.2884392738342285,0.8091244101524353
1772699407110982100,3.333982177734375,0.5186073780059814,-0.3586946725845337,0.7827757596969604
1772699407120940300,3.343940185546875,0.6187081336975098,-0.4418100416660309,0.732677161693573
1772699407130897400,3.3538974609375,0.6947449445724487,-0.5388141870498657,0.676397442817688
1772699407140854300,3.363854248046875,0.6142745614051819,-0.6082707643508911,0.5807292461395264
1772699407150812200,3.373812255859375,0.3206096887588501,-0.5853394269943237,0.4274737536907196
1772699407160769300,3.383769287109375,-0.17452175915241241,-0.5190549492835999,0.2578410506248474
1772699407170727200,3.39372705078125,-0.6470677256584167,-0.4243907034397125,0.12281081825494766
1772699407180684300,3.403684326171875,-0.945989191532135,-0.29291149973869324,-0.0007899496704339981
1772699407190642400,3.413642333984375,-0.9439713954925537,-0.14913001656532288,-0.1058645099401474
1772699407200599300,3.423599365234375,-0.7026721835136414,0.02186889573931694,-0.1320793330669403
1772699407210556200,3.43355615234375,-0.34923452138900757,0.17551331222057343,-0.13031606376171112
1772699407220514300,3.443514404296875,-0.008759739808738232,0.3780994415283203,-0.11564070731401443
1772699407230471400,3.453471435546875,0.2477455735206604,0.6334012150764465,-0.06617291271686554
1772699407240429000,3.463428955078125,0.40949878096580505,0.8918591141700745,-0.01876198872923851
1772699407250386200,3.47338623046875,0.5560831427574158,1.0298599004745483,-0.02243158593773842
1772699407260344300,3.48334423828125,0.7285334467887878,1.0065739154815674,-0.10637149959802628
1772699407270301400,3.493301513671875,0.894606351852417,0.8868208527565002,-0.28858524560928345
1772699407280258300,3.50325830078125,0.981782853603363,0.7292988896369934,-0.48199254274368286
1772699407290216200,3.51321630859375,0.9298972487449646,0.5445931553840637,-0.5427654385566711
1772699407300173300,3.52317333984375,0.7267217636108398,0.3415210545063019,-0.4000471830368042
1772699407310131200,3.533131103515625,0.38908910751342773,0.1473492980003357,-0.10869001597166061
1772699407320088000,3.543088134765625,-0.013990173116326332,-0.006871705874800682,0.17603279650211334
1772699407330046200,3.553046142578125,-0.38380709290504456,-0.1457907259464264,0.34524106979370117
1772699407340003300,3.56300341796875,-0.6160187125205994,-0.3121858239173889,0.3517005443572998
1772699407349960400,3.57296044921875,-0.6591084003448486,-0.49323612451553345,0.2478940337896347
1772699407359918300,3.58291845703125,-0.6267158389091492,-0.659896969795227,0.09869176894426346
1772699407369875200,3.592875244140625,-0.6114453077316284,-0.7528897523880005,-0.08255257457494736
1772699407379833300,3.602833251953125,-0.6056686043739319,-0.7421148419380188,-0.26396068930625916
1772699407389790200,3.612790283203125,-0.563193142414093,-0.6540789604187012,-0.37105119228363037
1772699407399748400,3.622748291015625,-0.48427167534828186,-0.5519222021102905,-0.37323445081710815
1772699407409705200,3.632705322265625,-0.3818289339542389,-0.4876268208026886,-0.3459925651550293
1772699407419663000,3.6426630859375,-0.2916862666606903,-0.471910685300827,-0.38626834750175476
1772699407429620200,3.6526201171875,-0.211971715092659,-0.4858156144618988,-0.5060657262802124
1772699407439577300,3.662577392578125,-0.1773815155029297,-0.5202729105949402,-0.6378434896469116
1772699407449535500,3.672535400390625,-0.19236069917678833,-0.5200077295303345,-0.7363580465316772
1772699407459492000,3.6824921875,-0.2564326524734497,-0.49121204018592834,-0.7505164742469788
1772699407469448400,3.692448486328125,-0.3313926160335541,-0.45389485359191895,-0.7013958692550659
1772699407479405300,3.7024052734375,-0.401375412940979,-0.3982792794704437,-0.6131824254989624
1772699407489362400,3.712362548828125,-0.47640150785446167,-0.35062023997306824,-0.5450149774551392
1772699407499320600,3.722320556640625,-0.5306687355041504,-0.31439220905303955,-0.5179455876350403
1772699407509277700,3.732277587890625,-0.5425581932067871,-0.2902567684650421,-0.531412661075592
1772699407519235600,3.742235595703125,-0.5149641036987305,-0.25966957211494446,-0.5798531770706177
1772699407529192400,3.7521923828125,-0.4483053982257843,-0.2354058027267456,-0.6163157224655151
1772699407539150600,3.762150634765625,-0.34273025393486023,-0.1980576366186142,-0.6055698394775391
1772699407549107500,3.772107421875,-0.21648789942264557,-0.15164963901042938,-0.5169742107391357
1772699407559065600,3.782065673828125,-0.10404923558235168,-0.12306087464094162,-0.36801430583000183
1772699407569022500,3.7920224609375,-0.007147969678044319,-0.10846999287605286,-0.19941984117031097
1772699407578979600,3.8019794921875,0.05809281766414642,-0.09421809017658234,-0.023648802191019058
1772699407588937500,3.8119375,0.06659472733736038,-0.07935772836208344,0.11388377100229263
1772699407598894600,3.82189453125,0.040263790637254715,-0.06687097251415253,0.19686894118785858
1772699407608852700,3.831852783203125,0.013982062228024006,-0.052310001105070114,0.2479764074087143
1772699407618809300,3.841809326171875,0.006127067841589451,-0.04588885232806206,0.31218841671943665
1772699407628766500,3.851766357421875,0.012120788916945457,-0.026266708970069885,0.3876108229160309
1772699407638724600,3.861724609375,0.019916659221053123,0.021560467779636383,0.47042155265808105
1772699407648681500,3.871681396484375,0.03452330455183983,0.07538134604692459,0.5466346144676208
1772699407658639400,3.881639404296875,0.10065864771604538,0.0944993793964386,0.6176515221595764
1772699407668596500,3.891596435546875,0.1870313137769699,0.09649389982223511,0.6975239515304565
1772699407678554600,3.9015546875,0.22679445147514343,0.06901966780424118,0.7927350997924805
1772699407688511500,3.911511474609375,0.24811922013759613,0.022553537040948868,0.9174284338951111
1772699407698469400,3.921469482421875,0.2362455129623413,-0.02858208492398262,1.0893205404281616
1772699407708426500,3.931426513671875,0.10866253823041916,-0.08559374511241913,1.2946395874023438
1772699407718383600,3.941383544921875,-0.1212121993303299,-0.16374555230140686,1.4560004472732544
1772699407728341500,3.951341552734375,-0.4441460967063904,-0.21764804422855377,1.479683756828308
1772699407738298400,3.96129833984375,-0.802593469619751,-0.197755828499794,1.2348175048828125
1772699407748256500,3.971256591796875,-1.080234408378601,-0.1677427887916565,0.6542816162109375
1772699407758213600,3.981213623046875,-1.1869971752166748,-0.1609184294939041,-0.06198194622993469
1772699407768170500,3.99117041015625,-1.1014916896820068,-0.14186306297779083,-0.5628764629364014
1772699407778128600,4.001128662109375,-0.8712646961212158,-0.08163060992956161,-0.792881965637207
1772699407788085500,4.01108544921875,-0.6063634753227234,0.10279884189367294,-0.8800673484802246
1772699407798043400,4.02104345703125,-0.3315716087818146,0.38742363452911377,-0.7873645424842834
1772699407808000500,4.03100048828125,-0.06718816608190536,0.6535027623176575,-0.4176802635192871
1772699407817958700,4.040958740234375,0.18747712671756744,0.8849378824234009,0.12340853363275528
1772699407827915500,4.05091552734375,0.33522269129753113,0.9873600602149963,0.4465709328651428
1772699407837873400,4.060873291015625,0.4626924991607666,0.9761875867843628,0.45478227734565735
1772699407847830500,4.07083056640625,0.5672724843025208,0.8788285255432129,0.17277182638645172
1772699407857787600,4.08078759765625,0.6156548857688904,0.7660103440284729,-0.24223603308200836
1772699407867745300,4.090745361328125,0.5942869782447815,0.6899740099906921,-0.6502854824066162
1772699407877702400,4.100702392578125,0.532088577747345,0.6138027906417847,-0.8886346220970154
1772699407887660500,4.11066064453125,0.48096567392349243,0.5029283165931702,-0.8965298533439636
1772699407897617700,4.12061767578125,0.46233686804771423,0.34046486020088196,-0.7186205983161926
1772699407907575600,4.130575439453125,0.4377748966217041,0.15029549598693848,-0.47658801078796387
1772699407917532400,4.140532470703125,0.35536816716194153,-0.021425381302833557,-0.26724332571029663
1772699407927489500,4.150489501953125,0.1781875342130661,-0.16574715077877045,-0.14011916518211365
1772699407937447400,4.160447509765625,-0.03715992346405983,-0.2784438729286194,-0.0660257637500763
1772699407947404500,4.170404541015625,-0.25964707136154175,-0.34248724579811096,-0.013316651806235313
1772699407957362400,4.180362548828125,-0.4544477164745331,-0.3658088147640228,0.05132119730114937
1772699407967319600,4.190319580078125,-0.6086499094963074,-0.36772027611732483,0.10178199410438538
1772699407977277400,4.20027734375,-0.6924331784248352,-0.34645041823387146,0.12912999093532562
1772699407987234600,4.210234619140625,-0.6666299700737,-0.30322301387786865,0.13243311643600464
1772699407997191400,4.22019140625,-0.5417231917381287,-0.24053992331027985,0.12938512861728668
1772699408007149600,4.230149658203125,-0.3431430459022522,-0.1751541644334793,0.11057567596435547
1772699408017106400,4.2401064453125,-0.08163714408874512,-0.09397036582231522,0.08440825343132019
1772699408027064600,4.250064697265625,0.18685345351696014,-0.012473681941628456,0.06153743714094162
1772699408037021400,4.260021484375,0.3874416649341583,0.06241147965192795,0.030650893226265907
1772699408046979300,4.269979248046875,0.5211123824119568,0.13056345283985138,-0.004735346883535385
1772699408056936400,4.2799365234375,0.5801125764846802,0.19409261643886566,-0.02914375066757202
1772699408066893600,4.2898935546875,0.5775306820869446,0.2388485223054886,-0.04083675891160965
1772699408076851700,4.299851806640625,0.541329562664032,0.26076367497444153,-0.027136659249663353
1772699408086808300,4.309808349609375,0.49359872937202454,0.2635036110877991,0.004483859986066818
1772699408096766500,4.319766357421875,0.4462842345237732,0.2480175942182541,0.059277065098285675
1772699408106723600,4.3297236328125,0.40057262778282166,0.231570765376091,0.13198918104171753
1772699408116681500,4.339681396484375,0.355489581823349,0.21011580526828766,0.19945691525936127
1772699408126638300,4.349638427734375,0.2941628396511078,0.1772419959306717,0.24337200820446014
1772699408136595500,4.359595458984375,0.2328914999961853,0.14383529126644135,0.28793948888778687
1772699408146553600,4.3695537109375,0.1673324704170227,0.1059877797961235,0.36013031005859375
1772699408156510500,4.379510498046875,0.13289007544517517,0.07421547174453735,0.48970454931259155
1772699408166468600,4.389468505859375,0.15592852234840393,0.008649521507322788,0.7073901891708374
1772699408176425500,4.399425537109375,0.21033264696598053,-0.12506406009197235,1.0092039108276367
1772699408186383400,4.40938330078125,0.24715165793895721,-0.3333536386489868,1.3427097797393799
1772699408196340500,4.419340576171875,0.17054051160812378,-0.5928773880004883,1.5718973875045776
1772699408206297300,4.42929736328125,-0.09382802993059158,-0.8151195049285889,1.5204144716262817
1772699408216255500,4.43925537109375,-0.42968887090682983,-0.8589559197425842,1.1260751485824585
1772699408226212600,4.449212646484375,-0.7228357791900635,-0.7057807445526123,0.37427446246147156
1772699408236170500,4.45917041015625,-0.8753984570503235,-0.5369746685028076,-0.48395928740501404
1772699408246127600,4.469127685546875,-0.7799781560897827,-0.3801974952220917,-1.2298120260238647
1772699408256085500,4.47908544921875,-0.4719335734844208,-0.2622639238834381,-1.5696090459823608
1772699408266042400,4.48904248046875,-0.10848631709814072,-0.20679573714733124,-1.1825008392333984
1772699408275999500,4.49899951171875,0.036235712468624115,-0.2625199854373932,-0.0788559541106224
1772699408285957600,4.50895751953125,-0.1802675724029541,-0.2553595304489136,1.1412943601608276
1772699408295914500,4.51891455078125,-0.5944658517837524,-0.052653275430202484,1.657267689704895
1772699408305872400,4.528872314453125,-0.8766088485717773,0.2523537576198578,1.3413381576538086
1772699408315829500,4.53882958984375,-0.8058731555938721,0.4897002875804901,0.5962682962417603
1772699408325787600,4.54878759765625,-0.45833835005760193,0.6997645497322083,-0.1312304139137268
1772699408335744500,4.55874462890625,-0.013817625120282173,0.8662568926811218,-0.5960138440132141
1772699408345701400,4.568701416015625,0.3317442834377289,1.0273890495300293,-0.8031193614006042
1772699408355659500,4.578659423828125,0.5563870072364807,1.1167235374450684,-0.8779270052909851
1772699408365616600,4.58861669921875,0.7239339351654053,1.0910474061965942,-0.8889302015304565
1772699408375574500,4.598574462890625,0.904998242855072,0.963143527507782,-0.8125813603401184
1772699408385531400,4.608531494140625,1.0367014408111572,0.6978380084037781,-0.6255306005477905
1772699408395489500,4.618489501953125,1.051943302154541,0.2968685030937195,-0.3820686936378479
1772699408405446700,4.62844677734375,0.8748107552528381,-0.11046810448169708,-0.168226420879364
1772699408415403500,4.638403564453125,0.5227680206298828,-0.40471145510673523,-0.015721570700407028
1772699408425361400,4.648361328125,0.0636390969157219,-0.5032191276550293,0.09750086069107056
1772699408435318500,4.658318603515625,-0.4149852991104126,-0.45657703280448914,0.17458686232566833
1772699408445276400,4.6682763671875,-0.8139151334762573,-0.3208964467048645,0.19511157274246216
1772699408455233500,4.678233642578125,-1.0334668159484863,-0.19481441378593445,0.11629611998796463
1772699408465191700,4.688191650390625,-1.0511771440505981,-0.13407254219055176,-0.10002432018518448
1772699408475148800,4.698148681640625,-0.9006171822547913,-0.12703487277030945,-0.39303863048553467
1772699408485105700,4.708105712890625,-0.6633490324020386,-0.17402678728103638,-0.695452868938446
1772699408495063800,4.718063720703125,-0.4205116331577301,-0.2346768081188202,-0.958614706993103
1772699408505021000,4.72802099609375,-0.21747621893882751,-0.2767758369445801,-1.172763466835022
1772699408514978800,4.737978759765625,-0.0496925413608551,-0.3008659780025482,-1.2946730852127075
1772699408524936000,4.74793603515625,0.10732211917638779,-0.3179083466529846,-1.3042020797729492
1772699408534893800,4.757893798828125,0.222459614276886,-0.3293412923812866,-1.2120848894119263
1772699408544851000,4.767850830078125,0.26092126965522766,-0.30532437562942505,-1.0473597049713135
1772699408554807800,4.777807861328125,0.22171129286289215,-0.26722440123558044,-0.843574047088623
1772699408564766000,4.787765869140625,0.12353277951478958,-0.21527279913425446,-0.6442268490791321
1772699408574722800,4.797722900390625,0.0016859739553183317,-0.17687241733074188,-0.4670027494430542
1772699408584680700,4.8076806640625,-0.0842750146985054,-0.15453939139842987,-0.33389806747436523
1772699408594637800,4.817637939453125,-0.11536289751529694,-0.15394525229930878,-0.253630131483078
1772699408604595000,4.827594970703125,-0.09557586908340454,-0.15783372521400452,-0.20396587252616882
1772699408614552800,4.837552734375,-0.03389466553926468,-0.15457507967948914,-0.15268564224243164
1772699408624509700,4.847509765625,0.0735127255320549,-0.15681500732898712,-0.08945256471633911
1772699408634467800,4.8574677734375,0.2130727469921112,-0.14687342941761017,-0.006836782209575176
1772699408644425000,4.867425048828125,0.35273054242134094,-0.13472120463848114,0.07719434797763824
1772699408654382800,4.8773828125,0.4784080386161804,-0.10157176107168198,0.14170703291893005
1772699408664339700,4.887339599609375,0.58094722032547,-0.0782715231180191,0.18804049491882324
1772699408674296800,4.897296875,0.6702714562416077,-0.026924975216388702,0.2011834681034088
1772699408684255000,4.9072548828125,0.7454951405525208,0.03752908110618591,0.2039833664894104
1772699408694211800,4.9172119140625,0.806374728679657,0.0866343080997467,0.2264958620071411
1772699408704169700,4.927169677734375,0.8472960591316223,0.09797678887844086,0.25970253348350525
1772699408714126800,4.937126953125,0.8576198220252991,0.08091205358505249,0.30365297198295593
1772699408724084700,4.947084716796875,0.8215597867965698,0.06308138370513916,0.3702048659324646
1772699408734041900,4.957041748046875,0.7183404564857483,0.053289737552404404,0.47219035029411316
1772699408743998700,4.966998779296875,0.5427459478378296,0.07278706133365631,0.6131153106689453
1772699408753956900,4.976956787109375,0.31558340787887573,0.14811617136001587,0.786697506904602
1772699408763914000,4.9869140625,0.08308735489845276,0.20894666016101837,1.0367738008499146
1772699408773871900,4.996871826171875,-0.08430590480566025,0.32030725479125977,1.3664017915725708
1772699408783828700,5.006828857421875,-0.22849242389202118,0.35265815258026123,1.5500197410583496
1772699408793787000,5.016786865234375,-0.37346532940864563,0.10807131230831146,1.195305347442627
1772699408803743700,5.02674365234375,-0.6160270571708679,-0.5113539099693298,-0.09334346652030945
1772699408813700900,5.036700927734375,-0.7708677649497986,-0.9217832088470459,-1.9555344581604004
1772699408823659000,5.046658935546875,-0.6368772387504578,-0.8681008219718933,-3.443876266479492
1772699408833616000,5.056615966796875,-0.3657655715942383,-0.49106115102767944,-3.5294189453125
1772699408843573800,5.06657373046875,-0.17753733694553375,0.048478469252586365,-2.282768964767456
1772699408853531000,5.07653076171875,-0.23352044820785522,0.46657878160476685,-0.4411996006965637
1772699408863489000,5.086489013671875,-0.527027428150177,0.872649073600769,1.2685012817382812
1772699408873445600,5.096445556640625,-0.8154802322387695,1.2890369892120361,2.23248553276062
1772699408883402800,5.10640283203125,-0.9324449300765991,1.667283535003662,2.2305054664611816
1772699408893361000,5.11636083984375,-0.8006946444511414,1.6770515441894531,1.4312732219696045
1772699408903318000,5.126318115234375,-0.42475247383117676,1.293882966041565,0.23762984573841095
1772699408913276000,5.13627587890625,0.06906736642122269,0.7732735276222229,-0.86768639087677
1772699408923232800,5.146232666015625,0.4903213679790497,0.3979742228984833,-1.5035617351531982
1772699408933191000,5.15619091796875,0.6725587844848633,0.219695046544075,-1.6628859043121338
1772699408943147800,5.166147705078125,0.6355560421943665,0.2233230322599411,-1.5046170949935913
1772699408953104600,5.176104736328125,0.46512603759765625,0.274384081363678,-1.1687465906143188
1772699408963062800,5.186062744140625,0.23084107041358948,0.30183303356170654,-0.7603855133056641
1772699408973020000,5.19602001953125,-0.02720538154244423,0.2884370684623718,-0.37940678000450134
1772699408982977800,5.205977783203125,-0.24345672130584717,0.25257495045661926,-0.03861251845955849
1772699408992935000,5.215934814453125,-0.40320059657096863,0.22685468196868896,0.2769869863986969
1772699409002892800,5.225892822265625,-0.5356619358062744,0.22169741988182068,0.5459936261177063
1772699409012850000,5.235849853515625,-0.6315109133720398,0.22685997188091278,0.7131893038749695
1772699409022806800,5.245806884765625,-0.6512670516967773,0.25712457299232483,0.7546223998069763
1772699409032765000,5.255764892578125,-0.5248151421546936,0.30679893493652344,0.7017546892166138
1772699409042721800,5.2657216796875,-0.23543767631053925,0.3109932243824005,0.5960407257080078
1772699409052679700,5.2756796875,0.11822532117366791,0.29628512263298035,0.47403064370155334
1772699409062636800,5.28563671875,0.44753381609916687,0.2884102165699005,0.35264474153518677
1772699409072595000,5.295594970703125,0.6589142084121704,0.3066054582595825,0.22828899323940277
1772699409082552000,5.305552001953125,0.7501868009567261,0.3514207899570465,0.11682124435901642
1772699409092508700,5.3155087890625,0.7821133136749268,0.4156237542629242,0.058363787829875946
1772699409102466800,5.325466796875,0.7772195339202881,0.4727841913700104,0.060909565538167953
1772699409112424000,5.335423828125,0.7608192563056946,0.49971914291381836,0.12189488857984543
1772699409122381800,5.3453818359375,0.7562121748924255,0.4909127354621887,0.21147026121616364
1772699409132338700,5.355338623046875,0.7474700808525085,0.4481127858161926,0.2859836220741272
1772699409142296800,5.365296875,0.6915602684020996,0.4063229262828827,0.3361245393753052
1772699409152254000,5.37525390625,0.5555667281150818,0.39683645963668823,0.3422705829143524
1772699409162210800,5.3852109375,0.38125911355018616,0.40621209144592285,0.30384179949760437
1772699409172168700,5.395168701171875,0.26152101159095764,0.4232928156852722,0.21878710389137268
1772699409182125800,5.405125732421875,0.2387581318616867,0.4480336010456085,0.09504934400320053
1772699409192083700,5.415083740234375,0.2923949956893921,0.4378552734851837,-0.08085377514362335
1772699409202040800,5.425040771484375,0.40979090332984924,0.38462504744529724,-0.30055004358291626
1772699409211997700,5.434997802734375,0.5282800197601318,0.31873205304145813,-0.5477219820022583
1772699409221955800,5.444955810546875,0.5954112410545349,0.2559540867805481,-0.8187222480773926
1772699409231913000,5.454912841796875,0.5820876955986023,0.19706572592258453,-1.112481713294983
1772699409241870800,5.464870849609375,0.5103824138641357,0.15392987430095673,-1.395546793937683
1772699409251828000,5.474827880859375,0.4355020523071289,0.1365242600440979,-1.6144248247146606
1772699409261785900,5.484785888671875,0.4037438631057739,0.11648769676685333,-1.6382776498794556
1772699409271742700,5.49474267578125,0.3689965307712555,0.09778910875320435,-1.4142686128616333
1772699409281699800,5.504699951171875,0.28996703028678894,0.06367255002260208,-1.0041730403900146
1772699409291658000,5.514657958984375,0.38785815238952637,-0.002767191966995597,-0.6384888291358948
1772699409301614800,5.52461474609375,0.2391166090965271,-0.05719441547989845,-0.0524178221821785
1772699409311572700,5.53457275390625,0.11615339666604996,-0.22513040900230408,1.3761235475540161
1772699409321529900,5.54452978515625,0.2247675508260727,0.21279139816761017,1.8555785417556763
1772699409331488000,5.554488037109375,0.19224688410758972,0.24209415912628174,1.4235554933547974
1772699409341444600,5.564444580078125,0.3013160824775696,0.2550792694091797,0.8470116853713989
1772699409351401700,5.574401611328125,0.3389042019844055,0.15426717698574066,0.32762235403060913
1772699409361360000,5.58435986328125,0.3468345105648041,0.03704053908586502,-0.04570022597908974
1772699409371317000,5.59431689453125,-0.10407513380050659,0.20964480936527252,-0.19373390078544617
1772699409381275000,5.60427490234375,-0.4092898666858673,0.022536074742674828,-0.0587877482175827
1772699409391231700,5.614231689453125,-0.3083651065826416,-0.1474798619747162,-0.04997348412871361
1772699409401190000,5.62418994140625,-0.02188330702483654,-0.14885906875133514,-0.14936387538909912
1772699409411146800,5.634146728515625,0.08975347131490707,-0.2528504431247711,-0.22516195476055145
1772699409421103900,5.644103759765625,0.04301232099533081,-0.2571641802787781,-0.20502354204654694
1772699409431061800,5.654061767578125,-0.008158722892403603,-0.23180611431598663,-0.05986502021551132
1772699409441019000,5.664018798828125,-0.07360668480396271,-0.1665688306093216,0.11230535060167313
1772699409450976800,5.673976806640625,-0.26801612973213196,0.016857175156474113,0.2469230741262436
1772699409460934000,5.683933837890625,-0.5193074345588684,0.19712942838668823,0.36173269152641296
1772699409470890500,5.693890380859375,-0.6939730048179626,0.3114911615848541,0.3877480626106262
1772699409480848600,5.7038486328125,-0.7487502694129944,0.3455738425254822,0.32045552134513855
1772699409490805500,5.713805419921875,-0.548308253288269,0.22352702915668488,0.18442177772521973
1772699409500763600,5.723763671875,-0.1953490972518921,-0.42881110310554504,0.5955923199653625
1772699409510720500,5.733720458984375,0.1756124496459961,-0.5314143896102905,0.9368974566459656
1772699409520678400,5.743678466796875,0.45465630292892456,-0.45075494050979614,1.0906944274902344
1772699409530635500,5.753635498046875,0.5925103425979614,-0.3681415319442749,1.1845066547393799
1772699409540592600,5.763592529296875,0.49517181515693665,-0.30063819885253906,1.17525053024292
1772699409550550800,5.77355078125,0.3821483254432678,-0.2784700393676758,1.071393609046936
1772699409560507600,5.783507568359375,0.2656475305557251,-0.1358843892812729,0.833105206489563
1772699409570465500,5.793465576171875,0.17619168758392334,-0.057055097073316574,0.5544943809509277
1772699409580422700,5.803422607421875,0.12903831899166107,-0.09498285502195358,0.22780093550682068
1772699409590380500,5.813380615234375,0.12215671688318253,-0.029676012694835663,-0.12323831766843796
1772699409600337400,5.82333740234375,-0.03243850916624069,-0.004521793220192194,-0.5402432084083557
1772699409610294500,5.83329443359375,-0.31368163228034973,0.10682150721549988,-1.0110034942626953
1772699409620252700,5.843252685546875,-0.4023965895175934,0.1267203986644745,-1.3322862386703491
1772699409630209800,5.853209716796875,-0.38233286142349243,0.07860640436410904,-1.4765206575393677
1772699409640167700,5.863167724609375,-0.2910543382167816,0.0012500104494392872,-1.458862066268921
1772699409650124500,5.87312451171875,-0.17258040606975555,-0.0698675811290741,-1.3388115167617798
1772699409660082700,5.883082763671875,-0.10675022006034851,-0.09584441781044006,-1.1422096490859985
1772699409670039600,5.89303955078125,-0.10338903963565826,-0.09408939629793167,-0.9132094979286194
1772699409679996400,5.902996337890625,-0.12998662889003754,-0.0784037858247757,-0.6643713712692261
1772699409689954600,5.91295458984375,-0.3320627510547638,-0.07599016278982162,-0.4884783625602722
1772699409699911700,5.92291162109375,-0.38104307651519775,-0.02623113989830017,-0.3282527029514313
1772699409709869600,5.93286962890625,-0.2941579818725586,-0.036910947412252426,-0.18090932071208954
1772699409719826700,5.94282666015625,-0.1255979984998703,-0.09503120929002762,-0.05102841183543205
1772699409729783600,5.952783447265625,-0.07690556347370148,-0.13188642263412476,-0.0783764123916626
1772699409739741400,5.962741455078125,-0.19444282352924347,-0.08485984057188034,-0.2612384855747223
1772699409749698600,5.972698486328125,-0.44714033603668213,0.0328899621963501,-0.5316276550292969
1772699409759656700,5.98265673828125,-0.5098636746406555,0.0708906427025795,-0.551994800567627
1772699409769613600,5.992613525390625,-0.5132213830947876,0.014241209253668785,-0.4576568603515625
1772699409779571500,6.002571533203125,-0.48198676109313965,0.023077068850398064,-0.34544652700424194
1772699409789528600,6.012528564453125,-0.37487682700157166,0.04723460227251053,-0.27384504675865173
1772699409799485700,6.022485595703125,-0.22808974981307983,0.05190974101424217,-0.23427404463291168
1772699409809443800,6.03244384765625,-0.09501318633556366,0.05556253343820572,-0.21394135057926178
1772699409819400400,6.042400390625,0.038882799446582794,0.0825342908501625,-0.21471549570560455
1772699409829358600,6.052358642578125,0.17159131169319153,0.09866692125797272,-0.207826167345047
1772699409839315700,6.062315673828125,0.28257083892822266,0.07813870161771774,-0.1758507490158081
1772699409849273600,6.072273681640625,0.38236403465270996,0.033962182700634,-0.10876278579235077
1772699409859230500,6.08223046875,0.4283781051635742,-0.00416975561529398,-0.04752526432275772
1772699409869187600,6.0921875,0.42515939474105835,-0.020784951746463776,0.012454183772206306
1772699409879145700,6.102145751953125,0.3803919553756714,-0.020400939509272575,0.08351563662290573
1772699409889102600,6.1121025390625,0.2912549078464508,-0.03077847883105278,0.15437676012516022
1772699409899060500,6.122060546875,0.1802215576171875,-0.04038577899336815,0.22273750603199005
1772699409909017600,6.132017578125,0.10144072771072388,-0.002815764397382736,0.20650073885917664
1772699409918974700,6.141974609375,0.04712159186601639,0.019631413742899895,0.158244788646698
1772699409928932600,6.1519326171875,0.039310272783041,0.04014574736356735,0.12741470336914062
1772699409938889500,6.161889404296875,0.05789195001125336,0.043261632323265076,0.13067230582237244
1772699409948847600,6.17184765625,0.08588337153196335,0.027513565495610237,0.177699476480484
1772699409958804500,6.181804443359375,0.08795417100191116,0.006181289907544851,0.25837185978889465
1772699409968762600,6.1917626953125,0.06229540705680847,0.0013042432256042957,0.30882570147514343
1772699409978719700,6.2017197265625,0.024742726236581802,0.012073492631316185,0.2990379333496094
1772699409988676600,6.211676513671875,-0.011390244588255882,0.02907750941812992,0.24310223758220673
1772699409998634500,6.221634521484375,-0.02604716643691063,0.03322792425751686,0.1664009690284729
1772699410008591600,6.231591552734375,-0.03008025512099266,0.02312469109892845,0.09976280480623245
1772699410018549800,6.2415498046875,-0.018303457647562027,0.02320796623826027,0.04185745492577553
1772699410028506600,6.251506591796875,-0.016063738614320755,0.028901539742946625,0.012753630988299847
1772699410038464500,6.261464599609375,-0.019169336184859276,0.031072484329342842,0.03490854799747467
1772699410048421600,6.271421630859375,-0.03297676146030426,0.04737183079123497,0.09179020673036575
1772699410058378800,6.281378662109375,-0.04966726526618004,0.05357791855931282,0.14741960167884827
1772699410068336400,6.29133642578125,-0.06519562751054764,0.06133197993040085,0.1600959748029709
1772699410078293500,6.30129345703125,-0.08683545887470245,0.06866112351417542,0.11761786043643951
1772699410088251600,6.311251708984375,-0.11359969526529312,0.07445376366376877,0.033637747168540955
1772699410098208800,6.321208740234375,-0.11930735409259796,0.09475258737802505,0.015645897015929222
1772699410108165400,6.331165283203125,-0.04317157715559006,0.05764037370681763,0.14824442565441132
1772699410118123500,6.34112353515625,0.047973521053791046,0.03040020726621151,0.23324275016784668
1772699410128080600,6.35108056640625,0.08729136735200882,0.035843171179294586,0.21775220334529877
1772699410138038500,6.36103857421875,0.06650064140558243,0.07658892124891281,0.1508139669895172
1772699410147995600,6.37099560546875,0.014389767311513424,0.10951144993305206,0.07990624755620956
1772699410157953500,6.38095361328125,-0.01972535066306591,0.1161760613322258,0.01680191047489643
1772699410167910700,6.39091064453125,-0.03939785435795784,0.1234307736158371,-0.0489635206758976
1772699410177867800,6.40086767578125,-0.04688001796603203,0.12137112766504288,-0.11261691153049469
1772699410187825700,6.41082568359375,-0.051374103873968124,0.125335231423378,-0.17155560851097107
1772699410197782500,6.420782470703125,-0.05260474607348442,0.12061610817909241,-0.22993658483028412
1772699410207740700,6.43074072265625,-0.036687564104795456,0.11688342690467834,-0.24691051244735718
1772699410217697500,6.440697509765625,0.011594723910093307,0.10343451052904129,-0.2054535299539566
