time,seconds_elapsed,z,y,x
1772615947690244000,0.072244140625,0.4076701157867908,0.22935645264089105,0.7730470771800726
1772615947700312000,0.08231201171875,0.28473464099168777,0.1743243012487888,0.8083749956708401
1772615947710380300,0.09238037109375,0.04530161549448967,0.15507190376818178,0.8683637465570121
1772615947720448300,0.1024482421875,-0.2703910583406687,0.20094576619267462,0.8969516892682761
1772615947730516200,0.11251611328125,-0.5724895065873861,0.27675767076313496,0.850027660203725
1772615947740585200,0.122585205078125,-0.8159253379851579,0.37590310464799404,0.8383619184598327
1772615947750653200,0.132653076171875,-0.9775245976954698,0.456439699652791,0.9069146456822752
1772615947760721200,0.14272119140625,-1.0429361042827368,0.46524844453036784,0.9626235272921622
1772615947770789000,0.1527890625,-1.0457605140537023,0.4843453591883182,0.9618279199350624
1772615947780857300,0.162857421875,-0.9834346985220909,0.45738487154841423,0.9565396773338317
1772615947790925300,0.17292529296875,-0.8706558760821819,0.3691074531584978,0.9772783678494393
1772615947800993800,0.182993896484375,-0.7130062307804822,0.31983985664248465,1.0194741262830793
1772615947811061500,0.1930615234375,-0.5637608412086963,0.2727741540849209,1.0044560053713618
1772615947821129500,0.20312939453125,-0.4777583820134401,0.21383973455727098,0.9354465473573654
1772615947831197400,0.213197509765625,-0.39026539199948307,0.1696416963905096,0.8515709441229701
1772615947841265700,0.223265625,-0.32038696913123127,0.16880173843502996,0.7958054369550198
1772615947851333600,0.233333740234375,-0.251600433152914,0.18891864379048345,0.7427877671904861
1772615947861401600,0.243401611328125,-0.23469898271262643,0.21710896548628805,0.6966735201388597
1772615947871470600,0.253470703125,-0.2051999165058136,0.25677637448608875,0.6818130740068853
1772615947881538600,0.26353857421875,-0.21585458151102066,0.2534218033611774,0.7050144283089786
1772615947891606500,0.2736064453125,-0.25332185011804104,0.19245675478875635,0.7757638618580996
1772615947901674500,0.283674560546875,-0.3189408619761467,0.18029226974248885,0.8087501125935465
1772615947911742700,0.29374267578125,-0.35405893710851666,0.24351824898421762,0.8101901553340256
1772615947921810700,0.303810791015625,-0.29713994905650615,0.24487667785584924,0.8634419261153787
1772615947931878700,0.313878662109375,-0.22181085956692695,0.2063233675777912,0.8587129978973418
1772615947941946600,0.323946533203125,-0.16590017177462577,0.2359697333008051,0.7551686714664101
1772615947952014600,0.3340146484375,-0.05290975241065025,0.2959370030075312,0.7272463530570268
1772615947962082600,0.34408251953125,0.014867314264178276,0.30208851137459275,0.8460176208447664
1772615947972150500,0.354150634765625,0.053290860682725906,0.3095972795695066,1.0897945938304066
1772615947982218500,0.364218505859375,0.10678162785172461,0.27264380570352076,1.3968782831437885
1772615947992287700,0.374287841796875,0.11252280185222625,0.20736147845387456,1.5607278059989214
1772615948002355500,0.38435546875,0.043809331110119816,0.1403968972057104,1.5379410969123244
1772615948012423400,0.39442333984375,-0.1083639286071062,-0.04063888438045978,1.3711575664319098
1772615948022491600,0.40449169921875,-0.4055862952500581,-0.3877238908231258,0.9444709808122366
1772615948032559600,0.4145595703125,-0.8192296402275562,-0.6780763716965913,0.26406260423781347
1772615948042627600,0.424627685546875,-1.2703215491116047,-0.7853788085520267,-0.35735381393544374
1772615948052695600,0.434695556640625,-1.7583809603869913,-0.7830442281246185,-0.7251585869975388
1772615948062763800,0.444763671875,-2.0487550685703755,-0.6538999618172645,-0.8757936042968183
1772615948072831700,0.454831787109375,-1.9888883366286754,-0.36527883478105067,-0.8840444960959255
1772615948082899500,0.4648994140625,-1.6015075601547955,0.00039046062231063843,-0.6882483677513898
1772615948092967400,0.474967529296875,-1.1115613122195005,0.3544371227711439,-0.2457072469284758
1772615948103035600,0.48503564453125,-0.6387263580828905,0.6681523590534925,0.22674471750622613
1772615948113103600,0.495103515625,-0.22417583513259887,0.9141916509479284,0.558597138302587
1772615948123172600,0.505172607421875,0.10279051238894461,1.0412637871563435,0.7271320790275931
1772615948133240600,0.515240478515625,0.3722399059653282,1.079107487860322,0.8466639559242873
1772615948143308500,0.52530859375,0.5388894348025322,1.0260708941996097,0.8121226577665657
1772615948153376500,0.53537646484375,0.6403998442530632,0.935507410699129,0.7052961678598075
1772615948163444500,0.545444580078125,0.6337853945493698,0.7450181565910577,0.5603177880827337
1772615948173512700,0.5555126953125,0.4806979425966739,0.5221779539763927,0.33857612129449843
1772615948183580700,0.56558056640625,0.2401952420413494,0.2846282580077648,-0.005752357548219151
1772615948193648600,0.575648681640625,-0.0335667540371418,0.12585633067786692,-0.2941555081519298
1772615948203716600,0.585716552734375,-0.2910720273196697,-0.0037187282621860504,-0.45440665945522485
1772615948213784600,0.59578466796875,-0.5161100322395563,-0.10792086101472377,-0.5012357037127018
1772615948223852500,0.6058525390625,-0.6984387762457132,-0.1364361768811941,-0.48520939213912934
1772615948233920500,0.61592041015625,-0.8067945215463638,-0.14033201527595518,-0.4555861150307581
1772615948243988500,0.625988525390625,-0.8241887239396571,-0.10584288569688796,-0.46321737709417937
1772615948254057700,0.6360576171875,-0.7984229990422725,-0.016513912427425382,-0.517237319236435
1772615948264125700,0.646125732421875,-0.7438438521146774,0.1514648191869259,-0.5251787432275712
1772615948274193400,0.656193359375,-0.638361616423726,0.38030572352111336,-0.3641812853353098
1772615948284261600,0.66626171875,-0.5278735352694988,0.5698316855549812,-0.10107821031203493
1772615948294329600,0.67632958984375,-0.3076134122759104,0.7822498628765344,0.09497533599282615
1772615948304397600,0.6863974609375,-0.034895372292399404,1.0185165332973003,0.24249524434572084
1772615948314465500,0.696465576171875,0.08770166432857512,1.1011077227443455,0.3719538920981809
1772615948324533800,0.70653369140625,0.16821838558912275,1.0904887135744095,0.3913881124190986
1772615948334601700,0.716601806640625,0.29545827957987786,0.9977420408159494,0.35285186287369574
1772615948344669700,0.726669677734375,0.371001888602972,0.7941144881933927,0.29584326030947267
1772615948354737400,0.7367373046875,0.3777250593781471,0.5805991632848978,0.31347178291529415
1772615948364805600,0.7468056640625,0.296675838676095,0.3737923961043358,0.40058253214601425
1772615948374874600,0.75687451171875,0.14001695797741412,0.2566787593305111,0.4957366313723847
1772615948384942600,0.766942626953125,-0.12846446734964848,0.13105273027718067,0.4765281826313585
1772615948395010800,0.7770107421875,-0.47195232608318327,-0.07047872684895992,0.3530815069111064
1772615948405078500,0.78707861328125,-0.8982669365853071,-0.22059680760204792,0.19596377652902155
1772615948415146500,0.797146484375,-1.356999131089449,-0.3094727764070034,0.04365359255913645
1772615948425214500,0.80721435546875,-1.7664800956904887,-0.29774960538744927,-0.07551847458183765
1772615948435282700,0.81728271484375,-2.062952520748973,-0.16495675344467162,-0.05443906260346994
1772615948445350700,0.8273505859375,-2.2149860797345635,0.023711130455136297,0.09706219787001609
1772615948455418600,0.837418701171875,-2.1538369067668914,0.2577642164796591,0.28618631937103345
1772615948465486600,0.847486572265625,-1.8979285472869871,0.4823375264972448,0.43314595435950903
1772615948475554800,0.857554931640625,-1.5181594148606061,0.634415509146452,0.537715203391388
1772615948485622500,0.86762255859375,-1.0677899750322102,0.7649100210189819,0.5790328272836283
1772615948495690500,0.8776904296875,-0.6835282073616981,0.8865554560035467,0.6129501117914915
1772615948505759500,0.887759521484375,-0.44490942085683344,0.8813298303097487,0.5950573122262954
1772615948515827700,0.89782763671875,-0.23289339459538458,0.9158481859833002,0.4515181714721024
1772615948525895700,0.907895751953125,0.008997545447945595,0.945807855439186,0.29950187414856627
1772615948535963600,0.917963623046875,0.19802081865668295,0.8434335226356983,0.2722244295139797
1772615948546031400,0.92803125,0.33296471115350723,0.7401116798490286,0.24022666009292004
1772615948556099600,0.938099609375,0.40048867985010145,0.6895534590005874,0.17786780080823228
1772615948566167600,0.94816748046875,0.3780605749428272,0.5980278524696827,0.10445088334921747
1772615948576235500,0.958235595703125,0.2926221793711185,0.4712660973846912,0.005054159850720316
1772615948586303700,0.9683037109375,0.1535036315381527,0.3421183239459991,-0.12351806045603006
1772615948596371700,0.978371826171875,-0.027444471764564514,0.2537888831079006,-0.24218860781565307
1772615948606439700,0.988439697265625,-0.17856851468980312,0.2126753669530153,-0.24105025143548844
1772615948616507600,0.998507568359375,-0.30753567086458206,0.1469640006363392,-0.1589719799466431
1772615948626575600,1.00857568359375,-0.35619887174665926,0.11049100376367568,-0.17745713764810933
1772615948636644600,1.01864453125,-0.3942652752906084,0.12152736156284809,-0.1354303243068978
1772615948646712600,1.028712646484375,-0.5500619862020015,0.07601531818807125,-0.0319651092604734
1772615948656780500,1.038780517578125,-0.6647551178306341,0.11871347318589687,0.02287404031017795
1772615948666848800,1.048848876953125,-0.6531815844148398,0.15990531527400015,-0.0045686596224084495
1772615948676916500,1.05891650390625,-0.586866991508007,0.1906038203984499,-0.005190243853162974
1772615948686984400,1.068984375,-0.5745826794743537,0.244957341876626,0.13061459458824246
1772615948697052400,1.079052490234375,-0.629172932317853,0.2721241657435894,0.2578675124573521
1772615948707120600,1.08912060546875,-0.6426105060398578,0.36654841632544993,0.3279633226696402
1772615948717188600,1.099188720703125,-0.6752426095753907,0.44379766022264955,0.410078492102772
1772615948727256600,1.109256591796875,-0.7299754857599735,0.4734978019595146,0.4396359374333173
1772615948737324500,1.119324462890625,-0.7570207290738821,0.5078039761871099,0.35858211362138387
1772615948747392800,1.129392822265625,-0.7707932338386774,0.47443712863624093,0.21399987528873607
1772615948757460500,1.13946044921875,-0.7425123112499713,0.4077782523363828,0.034652640444552525
1772615948767529500,1.149529541015625,-0.6294523337811231,0.3577969545930624,-0.10893591980878263
1772615948777597700,1.15959765625,-0.5064338568776846,0.3101835550248623,-0.19569040294773876
1772615948787665700,1.169665771484375,-0.3524386424303055,0.2828723542511463,-0.14511418978488072
1772615948797733600,1.179733642578125,-0.16858721890151498,0.2437684243530035,-0.049642695172410455
1772615948807801600,1.189801513671875,-0.003472644546627998,0.2313730531603098,0.008328952870843932
1772615948817869300,1.199869384765625,0.1015232689321041,0.18862579832375048,0.0008471640144009142
1772615948827937500,1.2099375,0.17349778729677198,0.12797113087475298,-0.03134558912264183
1772615948838005500,1.220005615234375,0.20547639535963533,0.07637304558455944,-0.055002085047401485
1772615948848073500,1.230073486328125,0.19854279670417307,0.03809504511654377,-0.04896433011996559
1772615948858141400,1.240141357421875,0.12577975831031799,-0.0350438408523798,-0.12710170936277135
1772615948868209700,1.250209716796875,0.02543897716104984,-0.10784604221284388,-0.2773305935465731
1772615948878277600,1.260277587890625,-0.06597206307947635,-0.20196984854340552,-0.4408668309351429
1772615948888345600,1.270345703125,-0.11244739852845669,-0.33566695584952827,-0.5851981449803337
1772615948898414600,1.28041455078125,-0.07663432686924934,-0.42225685954391956,-0.6683741851106285
1772615948908482600,1.290482666015625,-0.004634089541435241,-0.4380617469191551,-0.7078605384550988
1772615948918550500,1.300550537109375,0.1421007785141468,-0.4306985246747732,-0.6547357550542802
1772615948928618500,1.310618408203125,0.29361878919303414,-0.4937888948380947,-0.525607380435802
1772615948938686700,1.320686767578125,0.4877917002499103,-0.4539823696285486,-0.5226749802457168
1772615948948754400,1.33075439453125,0.6824912655293941,-0.34974984173774715,-0.5555921843329444
1772615948958822400,1.340822509765625,0.822217716127634,-0.3246592396229505,-0.5229689582236111
1772615948968890400,1.350890380859375,0.984650504052639,-0.3066606415957212,-0.4671039362039417
1772615948978958600,1.36095849609375,1.1453080989986657,-0.2986281417876482,-0.42558899964131414
1772615948989026600,1.371026611328125,1.2878969532907008,-0.3061374945044517,-0.32888317746091633
1772615948999094500,1.381094482421875,1.4013351164221763,-0.3384294063001871,-0.21833624225892126
1772615949009162500,1.39116259765625,1.4166069198340177,-0.3757610658288002,-0.09930994939734228
1772615949019230700,1.401230712890625,1.3395289408504962,-0.41780923248529434,0.021387710742559282
1772615949029299500,1.411299560546875,1.1621417448997498,-0.41406478525996204,0.1179845743894577
1772615949039367400,1.421367431640625,0.9010100978136062,-0.4253624243438244,0.16534683047449214
1772615949049435600,1.431435546875,0.637031829124689,-0.42823827204108234,0.20124325130190698
1772615949059503600,1.441503662109375,0.3850532103091478,-0.4817091654658317,0.19665279997279866
1772615949069571600,1.451571533203125,0.18240940802693367,-0.506936545702815,0.20417738679135217
1772615949079639600,1.4616396484375,0.05628653536736965,-0.5284136334955692,0.287863221340999
1772615949089707500,1.47170751953125,-0.002915595185756683,-0.6265192029386758,0.46272184866219757
1772615949099775500,1.481775390625,-0.04398234958946705,-0.7730833906024694,0.6627427550949155
1772615949109843500,1.491843505859375,-0.12029869655072688,-0.8820996456384659,0.7060441366828978
1772615949119911400,1.501911376953125,-0.23735621922314165,-0.9186655814915895,0.5064366333566606
1772615949129979600,1.511979736328125,-0.4223386926084757,-0.9899854353398084,0.19697278917478397
1772615949140047600,1.522047607421875,-0.6643383537232875,-1.013975967258215,-0.08581720228884368
1772615949150115600,1.532115478515625,-0.9168547326773404,-0.935778044334054,-0.27304160938207056
1772615949160184600,1.5421845703125,-1.0829974810361862,-0.8022375888943671,-0.33754531694203616
1772615949170252500,1.55225244140625,-1.1420634179890155,-0.5720645591735839,-0.31674517856277523
1772615949180320500,1.562320556640625,-1.0767962883085012,-0.3562777822017669,-0.25598244762942196
1772615949190388500,1.572388427734375,-0.9330641092002391,-0.14531272629797456,-0.13580814464334398
1772615949200456700,1.582456787109375,-0.6833505127072333,0.03916238208711147,-0.015218319658935069
1772615949210524700,1.592524658203125,-0.406433267468214,0.2226093164682388,0.07836414633654057
1772615949220592400,1.60259228515625,-0.13247311846911908,0.3299415639400482,0.14632014977484942
1772615949230660400,1.612660400390625,0.10423135884702205,0.38945173752903933,0.1869301368543878
1772615949240728600,1.622728515625,0.2347755550801754,0.4013678007721901,0.10487283508833498
1772615949250796500,1.632796630859375,0.19362579856812953,0.3691770112633705,-0.0698574896780774
1772615949260864500,1.642864501953125,0.07905541653633118,0.40144378861784935,-0.3377604575300589
1772615949270932500,1.652932373046875,-0.02964928833246231,0.4261094433188438,-0.5491434831175953
1772615949281000700,1.663000732421875,-0.03595920213162899,0.49383448754549025,-0.615462240742892
1772615949291069400,1.6730693359375,0.025708441752195357,0.6180185010969639,-0.44910672641620036
1772615949301137400,1.683137451171875,0.13313655081391335,0.68589318292737,-0.14010218857545403
1772615949311205600,1.69320556640625,0.2306394781887531,0.7674152818381786,0.13199918081443757
1772615949321273600,1.703273681640625,0.26974983782768247,0.8320780158847569,0.28354791542515156
1772615949331341600,1.713341552734375,0.23362287791371344,0.8498106564521789,0.3468065548274666
1772615949341409500,1.723409423828125,0.1529880832314491,0.891916690775752,0.3180012430384755
1772615949351477500,1.7334775390625,0.04784253214895725,0.943612975743413,0.2401724822202697
1772615949361545500,1.74354541015625,-0.014846855998039244,0.9682546650469303,0.2169533730657771
1772615949371613400,1.753613525390625,-0.0393745635330677,0.9788742587387561,0.2579174708126113
1772615949381681400,1.763681396484375,-0.055638885113596916,1.076570662859082,0.30152426508795466
1772615949391749600,1.77374951171875,-0.062457917478680604,1.177816283893585,0.40233982414212077
1772615949401817600,1.783817626953125,-0.09577274258136749,1.1808020217061042,0.5235362001849339
1772615949411885600,1.793885498046875,-0.05538461809158325,1.1802046403348445,0.5803973936351016
1772615949421954300,1.803954345703125,-0.011483517044782638,1.1797218252539634,0.6942146557446569
1772615949432022500,1.8140224609375,-0.06915712285637855,1.1337333965390919,0.7928560125648975
1772615949442090500,1.824090576171875,-0.2157125426918268,1.0630120931059122,0.832875449872762
1772615949452158500,1.834158447265625,-0.3960498206198215,1.0486731866300105,0.8141454688310623
1772615949462226400,1.844226318359375,-0.6578285334378481,1.0041951624780894,0.8095109408982097
1772615949472294700,1.854294677734375,-0.9191536572694778,0.9868442147046327,0.779501733212173
1772615949482362600,1.864362548828125,-1.1595084737867116,0.9770879598438739,0.7073957704875617
1772615949492430300,1.874430419921875,-1.3378215524107218,0.8447177172273397,0.6519314382232725
1772615949502498600,1.88449853515625,-1.5143039084762333,0.6073638360917568,0.47627015274967993
1772615949512566500,1.89456640625,-1.7525643830627202,0.3877653918772936,0.18608049775511026
1772615949522634500,1.904634521484375,-1.9439923793256282,0.12971300610601902,-0.01986888541113585
1772615949532702500,1.914702392578125,-2.055525585618615,-0.059711249119043346,-0.2805171694271266
1772615949542770700,1.924770751953125,-1.9939175629675387,-0.10600362921655178,-0.4722935042036697
1772615949552839400,1.93483935546875,-1.8513532585948704,-0.002591185536980629,-0.5118710794955492
1772615949562907400,1.944907470703125,-1.551511649364233,0.24782792887687682,-0.6544524811334907
1772615949572975400,1.954975341796875,-1.0419020850598812,0.22157003654837606,-0.4519761443726718
1772615949583043600,1.965043701171875,-0.5148585708737373,0.34125849224627014,-0.23449286568127573
1772615949593111600,1.975111572265625,0.01518295608460903,0.5476975951582193,-0.06576832066830247
1772615949603179500,1.985179443359375,0.46778819214105605,0.5398457126140594,0.16031561310794204
1772615949613247500,1.99524755859375,0.8916250143527984,0.49318566824793814,0.3150529146268964
1772615949623315500,2.0053154296875,1.2072118897259234,0.3723655781716108,0.297297587303631
1772615949633383400,2.015383544921875,1.3453314896494148,0.2593307351440191,0.17647340557407587
1772615949643451400,2.025451416015625,1.3531728507995604,0.08951426670849323,0.058609608020074665
1772615949653519400,2.035519287109375,1.2994114499956368,-0.10235913523435593,0.00973079162593931
1772615949663587600,2.045587646484375,1.1907359712213277,-0.2015004774659872,0.030651743373274802
1772615949673655600,2.055655517578125,1.0371697958409785,-0.273754981815815,0.20685418651886284
1772615949683724300,2.065724365234375,0.8014134130299091,-0.2881920879691839,0.477765286678262
1772615949693792500,2.07579248046875,0.5381541062653065,-0.2603542329728603,0.714743502901867
1772615949703860500,2.085860595703125,0.2945692217856645,-0.2574064890831709,0.8606953308209776
1772615949713928400,2.095928466796875,0.046916064953804015,-0.2614788530886173,0.9302560660421848
1772615949723996400,2.105996337890625,-0.2153296808540821,-0.296989142408967,0.9164242323055863
1772615949734064600,2.116064697265625,-0.46367783421277997,-0.3086532767176628,0.8499454618129879
1772615949744132600,2.126132568359375,-0.6641676733314991,-0.35111586939394474,0.7387037858124822
1772615949754200600,2.13620068359375,-0.8711445363819599,-0.42290041814446444,0.526570489846915
1772615949764268300,2.146268310546875,-1.1205109268724918,-0.42937575163841246,0.2561731844285503
1772615949774336500,2.15633642578125,-1.27844289624691,-0.39474166063070293,0.11363328384477644
1772615949784404500,2.166404541015625,-1.3086346208930015,-0.30456279253363605,0.095340050252527
1772615949794472700,2.17647265625,-1.2191828980267048,-0.1410766961634159,0.2331932543247938
1772615949804540700,2.186540771484375,-0.9905705417513847,0.053614101287722586,0.4694865204915404
1772615949814609000,2.19660888671875,-0.6248901404321193,0.23457915572524068,0.6869431303717196
1772615949824677600,2.206677734375,-0.23174539360404015,0.4223848698377609,0.8906289159875362
1772615949834745600,2.21674560546875,0.1444178232848644,0.47742286644876003,0.9511457093358039
1772615949844813800,2.226813720703125,0.44214755492806435,0.4594903193950653,0.8438948565371334
1772615949854881800,2.2368818359375,0.6298410408377647,0.41688276529014107,0.6428473835356533
1772615949864949800,2.24694970703125,0.7207774493038653,0.34049218404889103,0.46044897182676936
1772615949875017700,2.257017822265625,0.7440192086815833,0.2114081234961748,0.3226566676288843
1772615949885085700,2.267085693359375,0.6705962450742721,0.13880816670954227,0.19504205857422202
1772615949895153700,2.277153564453125,0.5188099388480186,0.050453591430187225,0.1045725735001266
1772615949905221600,2.2872216796875,0.3384510336101055,-0.03693126203417778,0.08524915660992265
1772615949915289600,2.29728955078125,0.1668529424548149,-0.09877075535356998,0.14137971596429125
1772615949925357800,2.30735791015625,0.022857728496193885,-0.18049626788198947,0.2346910734008066
1772615949935425800,2.31742578125,-0.09813187292814254,-0.2545212890356779,0.29864978736387565
1772615949945494500,2.32749462890625,-0.17822130868732927,-0.29950609366595743,0.30021599550098177
1772615949955562800,2.337562744140625,-0.24571663581132888,-0.36152386616170407,0.2164064797727391
1772615949965630700,2.347630615234375,-0.2639408592879772,-0.4390770614415407,0.07514507469218223
1772615949975698700,2.35769873046875,-0.2225450190603733,-0.4340443279713392,-0.11781071565989404
1772615949985766700,2.3677666015625,-0.12726853556334972,-0.3597434124857187,-0.25765222573885693
1772615949995835000,2.3778349609375,0.0546679942548275,-0.24456045151352881,-0.15850755903897806
1772615950005902800,2.38790283203125,0.32221418455839157,-0.15604221010506153,0.16006417736383155
1772615950015970800,2.397970703125,0.6678285339266061,-0.11798749699890612,0.4911863841895014
1772615950026038500,2.40803857421875,0.9418845445156097,-0.10993044727146625,0.6485454490467906
1772615950036106800,2.418106689453125,1.0306360101580618,-0.12930617887079715,0.5860276911396533
1772615950046174700,2.4281748046875,0.9783692318260669,-0.14404957449436187,0.34650037495512515
1772615950056242700,2.43824267578125,0.8698305311739444,-0.16769991467297077,0.13610535575794055
1772615950066310700,2.448310546875,0.6327484527170658,-0.16910919694900511,0.060080648687016215
1772615950076379000,2.45837890625,0.32032384076714515,-0.12429039653539657,0.11290482343975454
1772615950086447600,2.468447509765625,0.00976677625477314,-0.07026829896867275,0.23338636574409902
1772615950096515600,2.478515625,-0.37332711668014523,0.010047931283712386,0.38984336719512935
1772615950106583800,2.488583740234375,-0.806339178994298,0.07896540016531944,0.5700959259817376
1772615950116651800,2.49865185546875,-1.2266221081167459,0.11507014824748038,0.7769397007044404
1772615950126719700,2.5087197265625,-1.54023388402462,0.18719430421590805,0.8992197072654962
1772615950136787700,2.51878759765625,-1.8143582836747167,0.24346330392658708,0.9376917690008878
1772615950146856000,2.52885595703125,-2.0634581321835515,0.21690905900001525,0.9101739397391676
1772615950156923600,2.538923583984375,-2.198515421926975,0.24853812297284603,0.8528118840947747
1772615950166991600,2.54899169921875,-2.236166230407357,0.2564846980631351,0.6917566681332886
1772615950177059600,2.5590595703125,-2.255219305923581,0.2432318332582712,0.3922712153965607
1772615950187127800,2.5691279296875,-2.1380507240921256,0.28502982454597947,0.034815183195658024
1772615950197195800,2.57919580078125,-1.8302660469025371,0.3230710936486721,-0.30388303010854867
1772615950207264800,2.5892646484375,-1.4032862504899501,0.4091647382587194,-0.5472611765023321
1772615950217332500,2.59933251953125,-0.869171190482378,0.5669324569821358,-0.5552410693403333
1772615950227400700,2.609400634765625,-0.2761912690520286,0.7258031685113906,-0.40077096739020196
1772615950237468700,2.61946875,0.2948503768146038,0.8410890053361654,-0.2146432329598814
1772615950247536600,2.62953662109375,0.7685229508191347,0.941611572793126,-0.09099307055678219
1772615950257604600,2.6396044921875,1.103889462417364,0.9515583817899227,-0.09529898758977651
1772615950267672800,2.6496728515625,1.3258797702044247,0.9358616309642791,-0.2068181653574109
1772615950277740800,2.65974072265625,1.385114049461484,0.8861971440851688,-0.3163143859300762
1772615950287808800,2.669808837890625,1.3331237499833106,0.7802315087914466,-0.5175867171959951
1772615950297876700,2.679876708984375,1.2877876476973293,0.7143284192949533,-0.6900563670214265
1772615950307944700,2.68994482421875,1.245232700562477,0.5779641386061907,-0.6460543628834188
1772615950318012700,2.7000126953125,1.1583236479163168,0.4357786044180393,-0.5079299041217192
1772615950328080600,2.71008056640625,1.0623609357208013,0.31659342206716534,-0.37374640153814104
1772615950338148900,2.72014892578125,0.9155442346006631,0.15349194110035896,-0.23691406494621187
1772615950348217600,2.730217529296875,0.6754144590109586,-0.02082885301709175,-0.19325645379908382
1772615950358285600,2.74028564453125,0.38381870007812974,-0.11741875720024109,-0.2683297053640708
1772615950368353500,2.750353515625,0.11944120293855666,-0.25938918733298777,-0.3375397639840841
1772615950378421800,2.760421875,-0.17473638918101786,-0.4191027794271707,-0.37474421693645416
1772615950388489700,2.77048974609375,-0.4791261632353067,-0.5446884764701128,-0.4623566686116159
1772615950398557700,2.7805576171875,-0.8337316283106804,-0.669731152677536,-0.5649504163194448
1772615950408625700,2.790625732421875,-1.1585358293622732,-0.7445107915908098,-0.7089706916540861
1772615950418694000,2.80069384765625,-1.455959856057167,-0.7313403443723917,-0.9176723326705396
1772615950428761600,2.81076171875,-1.673285094642639,-0.6924515185296535,-1.0801651802197099
1772615950438829600,2.82082958984375,-1.7389175505042076,-0.6605114889115095,-1.0782679682962595
1772615950448897500,2.8308974609375,-1.6235013652980326,-0.5431079292804002,-0.9791586286380887
1772615950458965800,2.8409658203125,-1.329652274480462,-0.33396015193164347,-0.7470814457964151
1772615950469033700,2.85103369140625,-0.9698685299843549,-0.13744681522846222,-0.4665160167807713
1772615950479102700,2.861102783203125,-0.5693108765512704,0.07268062080740928,-0.24871928822603076
1772615950489170700,2.871170654296875,-0.22052666497528553,0.24553543402552602,-0.159699052112177
1772615950499238700,2.88123876953125,0.12590893764793873,0.39702129600048064,-0.07656217494849116
1772615950509306600,2.891306640625,0.4363672179609537,0.5079302329152822,-0.013816380439139901
1772615950519374600,2.90137451171875,0.7071382155299186,0.5952513734936714,0.00864646698795259
1772615950529442800,2.91144287109375,0.9316846375405788,0.6823655933231115,0.025739275281876323
1772615950539510800,2.9215107421875,1.1055956818133592,0.7121084051579236,0.013105601821281015
1772615950549578800,2.931578857421875,1.221174364104867,0.7389864752113818,-0.06136836867630481
1772615950559646700,2.941646728515625,1.2376280707776546,0.7230255204916,-0.11687792832180857
1772615950569714700,2.951714599609375,1.1958020224392414,0.7021878996461629,-0.177228279061988
1772615950579782700,2.96178271484375,1.151409923005104,0.7077922955244779,-0.22778419835548847
1772615950589850600,2.9718505859375,1.0864122579157351,0.6587976707309484,-0.21432346295360474
1772615950599918600,2.981918701171875,1.0067951158434152,0.5442378100931644,-0.10224073301907628
1772615950609987800,2.99198779296875,0.9029588937938213,0.4068997159361839,-0.053231422113068395
1772615950620055600,3.0020556640625,0.739029145309329,0.24541560703814028,-0.11653693286441266
1772615950630123500,3.01212353515625,0.5335971736133098,0.061171969321370125,-0.2243036262307316
1772615950640191700,3.022191650390625,0.2537766081482172,-0.11424012716412543,-0.3563489477418363
1772615950650259700,3.032259765625,-0.042599955320358276,-0.20342823065817356,-0.4796281214080751
1772615950660327700,3.04232763671875,-0.2789110494047403,-0.24529051935374735,-0.44458596105612813
1772615950670395600,3.052395751953125,-0.40203941642343993,-0.28461773661375045,-0.28923909453777596
1772615950680464000,3.0624638671875,-0.4751929154396057,-0.2550999657064676,-0.13248332933587953
1772615950690531800,3.07253173828125,-0.47028643869757647,-0.18444179063737393,-0.023361221038922665
1772615950700599600,3.082599609375,-0.3922136034578085,-0.12406477108597755,0.06911209640456363
1772615950710667500,3.09266748046875,-0.23338263941705226,-0.10045476291775703,0.19071031298022717
1772615950720735700,3.10273583984375,0.0075409168988466255,-0.09285480930805205,0.3307745076328516
1772615950730803700,3.1128037109375,0.2981096708714962,-0.0786146870315075,0.4158439237616956
1772615950740872700,3.122872802734375,0.5534387691587209,-0.11008242296278475,0.48334166203849016
1772615950750940700,3.132940673828125,0.7406050163239241,-0.14903613073527813,0.434417179871723
1772615950761008600,3.143008544921875,0.8516858026742935,-0.13437515269815922,0.28601821452882137
1772615950771076600,3.15307666015625,0.9274497764497995,-0.13452712838947772,0.1939785575285554
1772615950781144600,3.16314453125,0.949661023736,-0.13247078038156032,0.23773685257118193
1772615950791212800,3.173212890625,0.8811053739041089,-0.1669137327313423,0.3428913906777277
1772615950801280300,3.1832802734375,0.7873632603675127,-0.17336802343726157,0.43889914759136733
1772615950811348500,3.193348388671875,0.7229653147369622,-0.2329460015654564,0.5320623652614653
1772615950821416400,3.20341650390625,0.6674433340013027,-0.3476566688507795,0.5896116140410304
1772615950831484400,3.213484375,0.5929436810731887,-0.4596855497062206,0.5980147007271647
1772615950841552400,3.223552490234375,0.4939665894925594,-0.5463853435158729,0.5569305567972361
1772615950851620400,3.233620361328125,0.3918810105025768,-0.5906406648278236,0.482646738576889
1772615950861688300,3.243688232421875,0.2660328631311655,-0.6676344726592301,0.45087815653551366
1772615950871757300,3.25375732421875,0.1266331602692604,-0.7189712766647338,0.4177566255152225
1772615950881825500,3.263825439453125,0.006738368344306946,-0.7670365116536617,0.3730036568794399
1772615950891893500,3.2738935546875,-0.04930559043884277,-0.7948919023066758,0.2774064535280689
1772615950901961200,3.283961181640625,-0.028724574702978133,-0.8399573709577322,0.20583735589282587
1772615950912029200,3.294029296875,0.0037789340168237684,-0.8697253172338009,0.11019753724243492
1772615950922097400,3.304097412109375,0.03843699042201042,-0.8693249197393655,0.0038081783776171504
1772615950932165400,3.314165283203125,0.14495266081392763,-0.8413239831358194,-0.1541151875652373
1772615950942233300,3.3242333984375,0.2593739897638559,-0.8371510813653469,-0.3545581918675452
1772615950952301300,3.33430126953125,0.40454876889586444,-0.8403770576745271,-0.466912724480778
1772615950962369500,3.34436962890625,0.649814738330245,-0.9089607645571232,-0.431733311082609
1772615950972437500,3.3544375,0.9710673843801021,-1.009413773909211,-0.23766776939034462
1772615950982505200,3.364505126953125,1.216340368077159,-1.162107258108258,0.031100765782408415
1772615950992573200,3.3745732421875,1.3622948994100093,-1.2922352747559547,0.1947733977006748
1772615951002642400,3.384642333984375,1.330025199446082,-1.4199065459012985,0.19926343912892042
1772615951012710400,3.39471044921875,1.1243220095932482,-1.501988032260537,0.0733659727230668
1772615951022778400,3.4047783203125,0.7505658538460731,-1.5627771397441625,-0.08913531386088579
1772615951032846300,3.414846435546875,0.2694838803678751,-1.5382646297782658,-0.30547716743219644
1772615951042914300,3.424914306640625,-0.297682969892025,-1.3752718698829411,-0.5641358485335484
1772615951052982300,3.434982177734375,-0.8393699264585971,-1.153446397268772,-0.7564496511876583
1772615951063050200,3.44505029296875,-1.2550760491847992,-0.8241635894984006,-0.9226244021199643
1772615951073118500,3.455118408203125,-1.4603297417044638,-0.3581704640805721,-0.9866209273427724
1772615951083186400,3.4651865234375,-1.3752800531893967,0.1119628298819065,-0.8014153127260506
1772615951093254400,3.47525439453125,-1.0062333903074263,0.4366968883067369,-0.435146005602926
1772615951103322400,3.485322265625,-0.5032552268415689,0.6264782864063978,0.05322817071005702
1772615951113390300,3.495390380859375,-0.029584990924596783,0.9773737910479307,0.21351755339819936
1772615951123458300,3.505458251953125,0.43315702374279497,1.042194930526614,0.25568558357469734
1772615951133527300,3.51552734375,0.9202595726847648,1.038679615882039,0.22358773304633794
1772615951143595500,3.525595458984375,1.3118933304280043,0.994572178608179,0.21160247702449558
1772615951153663500,3.53566357421875,1.5808762755364179,0.8176929321795702,0.263919305043295
1772615951163731500,3.5457314453125,1.7431097414970398,0.5425409430474043,0.2759616980798542
1772615951173799200,3.555799072265625,1.7700076852947473,0.2476800448387861,0.12461889783740043
1772615951183867400,3.565867431640625,1.6208464668750762,-0.004044891476631164,-0.10509268838409334
1772615951193935400,3.575935302734375,1.2702128280401228,-0.2516629769951105,-0.3779138599485159
1772615951204003300,3.58600341796875,0.8338280744224786,-0.3989794443309307,-0.6528598051145672
1772615951214071300,3.5960712890625,0.3564969779103994,-0.4199661182582378,-0.8179526060290634
1772615951224139500,3.606139404296875,-0.14785948817133904,-0.34252222857177256,-0.8220058269426226
1772615951234207500,3.61620751953125,-0.6084107147961855,-0.20318682311773298,-0.7096205338649452
1772615951244275500,3.626275390625,-0.970702058199048,-0.011435586249828338,-0.528554612868838
1772615951254343200,3.63634326171875,-1.1334878973454237,0.22460428967773913,-0.31769374799188227
1772615951264412400,3.646412353515625,-1.07616442014575,0.4934165543943643,0.0220537917021662
1772615951274480400,3.65648046875,-0.9895727628856896,0.6783581112474203,0.40014804971888657
1772615951284548400,3.66654833984375,-0.9465098662286996,0.8569108438462019,0.7024619673471898
1772615951294616600,3.676616455078125,-0.9273620981663465,0.9198305336177348,0.9156968678791075
1772615951304684300,3.686684326171875,-0.979309143024683,0.962027753356099,0.9345409768197684
1772615951314752300,3.696752197265625,-1.0496972689807413,0.9771984344810247,0.7864235683646053
1772615951324820200,3.7068203125,-1.1462088472306728,0.8478431557714938,0.4452529005322605
1772615951334888400,3.716888427734375,-1.1906184823215007,0.7414829682022333,0.02348484741859138
1772615951344956400,3.726956298828125,-1.2155430802196263,0.6011427696198225,-0.2815547688465565
1772615951355024400,3.7370244140625,-1.2174977214187384,0.44361353582739826,-0.44337921561487015
1772615951365092400,3.74709228515625,-1.1913427049428225,0.3366033599168062,-0.5695329218041152
1772615951375160600,3.75716064453125,-1.1383674860805273,0.3004869213968515,-0.7026978949949145
1772615951385228300,3.767228271484375,-1.0823474926948546,0.3487304355621338,-0.827477974743396
1772615951395297300,3.77729736328125,-1.0015314962267876,0.47084582614600656,-0.8935670883312821
1772615951405365200,3.787365234375,-0.8733417541652917,0.5926724629163742,-0.9490706566274165
1772615951415433500,3.79743359375,-0.5994049860417843,0.7616168246924877,-0.9651458853766322
1772615951425501400,3.80750146484375,-0.15599895548522472,0.8285708845466375,-0.8013581757113337
1772615951435569400,3.8175693359375,0.3123965548992157,0.8713841903567313,-0.5023786632027477
1772615951445637000,3.82763720703125,0.7280079850792884,0.9283534472912549,-0.20337544102501123
1772615951455705300,3.837705322265625,1.044287518891692,0.8984230039298534,0.00047269554566591976
1772615951465773300,3.847773193359375,1.2464981904536485,0.8749702321499585,0.08497965548615902
1772615951475841300,3.85784130859375,1.32294196318686,0.7751905920147896,0.07872983784377574
1772615951485909200,3.8679091796875,1.269580375355482,0.6219388894110918,-0.024234058350697158
1772615951495977500,3.8779775390625,1.128317216709256,0.48185821854770183,-0.1738104334425181
1772615951506045400,3.88804541015625,0.9590262334525584,0.3753893099069595,-0.28122937281709165
1772615951516114200,3.8981142578125,0.7731734069734811,0.2546750182926655,-0.286760082404688
1772615951526182400,3.908182373046875,0.5453881491720676,0.1253220776706934,-0.25372845815755424
1772615951536250400,3.91825048828125,0.31295944947898385,0.07682312743961811,-0.20950871961563824
1772615951546318300,3.928318359375,0.12513678423166275,0.015977321332693098,-0.11504925158992409
1772615951556386300,3.93838623046875,-0.07528700391352176,-0.05043839386105537,-0.02217270537409931
1772615951566454500,3.94845458984375,-0.22709552197158336,-0.05956394960284233,0.00218870568331331
1772615951576522200,3.958522216796875,-0.32742052102982994,-0.08756313264071941,0.02356971269045025
1772615951586590200,3.968590087890625,-0.34512510454654693,-0.1121463697552681,0.07663319435808807
1772615951596658200,3.978658203125,-0.3201081521898508,-0.12383505398333072,0.1640492832109332
1772615951606726400,3.988726318359375,-0.27305764720141884,-0.14394085342288016,0.2721425416504964
1772615951616794400,3.99879443359375,-0.21082184804081916,-0.17419804452061652,0.294354848382622
1772615951626862300,4.0088623046875,-0.12235972073376178,-0.18166998783648014,0.226686100920476
1772615951636930300,4.018930419921875,-0.04174830692708492,-0.22693360940814017,0.21258483912535012
1772615951646999300,4.028999267578125,0.09779518831968306,-0.2533236036837101,0.2589365847272798
1772615951657067300,4.0390673828125,0.2267442243158817,-0.25647125405967236,0.3290263122586533
1772615951667135200,4.04913525390625,0.31617724248170853,-0.20091887818574905,0.38184476965665815
1772615951677203500,4.059203369140625,0.3330734322249889,-0.15561492460370063,0.4362733656650409
1772615951687271400,4.069271484375,0.27968963256180285,-0.13364859198927878,0.47143367250394075
1772615951697339400,4.07933935546875,0.25155133331418034,-0.11121405734121799,0.47315037676133215
1772615951707407400,4.089407470703125,0.2087935570836067,-0.13685352551043034,0.4891945893177762
1772615951717475300,4.099475341796875,0.11941899110674857,-0.20796002886891363,0.4823839594548568
1772615951727543300,4.109543212890625,0.01612929702401161,-0.29535365016162396,0.43336233705654736
1772615951737611300,4.119611328125,-0.0888356367945671,-0.34357729058265685,0.3741506349574774
1772615951747679200,4.12967919921875,-0.17064473595321178,-0.41169630256295203,0.3524186225555837
1772615951757747500,4.13974755859375,-0.23510054925084112,-0.4922796593189239,0.3069772332642227
1772615951767815400,4.1498154296875,-0.25383447581529617,-0.5193272407203913,0.2340957195898518
1772615951777884200,4.15988427734375,-0.18389234006106853,-0.5022603705853224,0.16936035869847982
1772615951787952400,4.169952392578125,-0.09432780447006225,-0.5870581301659346,0.1198383490299806
1772615951798020400,4.180020263671875,0.028331775993108748,-0.6056710606992244,0.05624258662778884
1772615951808088600,4.190088623046875,0.1140495730280876,-0.5980915653556585,0.02895191718544811
1772615951818156500,4.200156494140625,0.1460445477038622,-0.6164724406987429,0.03741833316506818
1772615951828224500,4.210224609375,0.19765899960696695,-0.6370166315555572,-0.022508184406161307
1772615951838292500,4.22029248046875,0.26868776155412194,-0.6235042390316724,-0.04583170378319919
1772615951848360400,4.2303603515625,0.2878074725657701,-0.6748287680774927,0.10783742051497101
1772615951858428400,4.240428466796875,0.27045594027042386,-0.7595347577214241,0.427741501500085
1772615951868496400,4.250496337890625,0.26406536245048046,-0.7616425436556339,0.6448265015888959
1772615951878564400,4.260564453125,0.26803718869090076,-0.7589280239999294,0.6942560837335884
1772615951888632600,4.270632568359375,0.2126987478286028,-0.8412251989364623,0.6707617378342896
1772615951898700500,4.280700439453125,0.062463178175687785,-0.9347434405893087,0.5099732099849731
1772615951908769300,4.290769287109375,-0.11646949365139007,-0.9747165545374155,0.27291577277900647
1772615951918837500,4.30083740234375,-0.3053068888992071,-1.0170745177954434,0.06858555177981034
1772615951928905500,4.310905517578125,-0.5771902316242457,-1.0337649558335542,-0.1592986911503598
1772615951938973400,4.320973388671875,-0.8505278648108243,-0.8555296186208724,-0.3408788452789187
1772615951949041400,4.33104150390625,-1.0156564676910638,-0.5668436096549033,-0.36862171546816824
1772615951959109600,4.341109619140625,-1.12340489474833,-0.2650000129520893,-0.1918541127204895
1772615951969177600,4.351177490234375,-1.1982108371466398,0.05964636718928813,0.14197682334091513
1772615951979245300,4.361245361328125,-1.0828963587492704,0.4621732748687267,0.5091416545316577
1772615951989313300,4.371313232421875,-0.8898924914717674,0.8054021904051304,0.8744404361221939
1772615951999381500,4.381381591796875,-0.6717068366646767,1.058784246277809,1.1747460826680063
1772615952009449500,4.391449462890625,-0.4612485612392425,1.253071723625064,1.33284975534752
1772615952019517400,4.401517333984375,-0.28504268402755256,1.3668319583177566,1.3018445223614572
1772615952029585400,4.41158544921875,-0.12068272743225097,1.440750596487522,1.1386015870973467
1772615952039654400,4.421654296875,0.022983985224366187,1.436381295362115,0.9067885350845754
1772615952049722400,4.431722412109375,0.1426268482148647,1.3646686428040264,0.610952289037779
1772615952059790300,4.441790283203125,0.25801672993600366,1.2252666018545626,0.2799078784223646
1772615952069858600,4.451858642578125,0.42378538428545,1.133207326838374,0.021374138874933123
1772615952079926500,4.461926513671875,0.5663046804726124,1.0801228023827076,-0.08052771757859736
1772615952089994500,4.471994384765625,0.6316250016450882,1.0376485192686318,-0.100317509871535
1772615952100062500,4.4820625,0.6191197403371334,1.0517530324667692,-0.08868322271183132
1772615952110130400,4.49213037109375,0.5308592730820179,0.9787988554149866,-0.07599267709800042
1772615952120198400,4.502198486328125,0.3844365397155285,0.8324421730220317,-0.20249436560785397
1772615952130266400,4.512266357421875,0.3080418668210506,0.7614251015126705,-0.39212636356577274
1772615952140334300,4.522334228515625,0.12646247987747192,0.6492126807838678,-0.6555786356192081
1772615952150402600,4.532402587890625,-0.026577041280269623,0.5733721346408128,-1.0289171504762022
1772615952160470500,4.542470458984375,-0.13539865052700042,0.42615562054812905,-1.2777280259758232
1772615952170539300,4.552539306640625,-0.06464461386799812,0.3520148640602827,-1.3143752103716135
1772615952180607500,4.562607421875,0.20961188772916792,0.2809130368769169,-1.0664944553289561
1772615952190675500,4.572675537109375,0.45679625800549983,0.1780021129786968,-0.6107413497008383
1772615952200743400,4.582743408203125,0.5556991153061389,0.10348726248145103,-0.21229908098652958
1772615952210811400,4.592811279296875,0.4788777414321899,0.011582885766029357,0.02586617133086547
1772615952220879600,4.602879638671875,0.3126876468002796,-0.13468261121213435,0.006760625841887667
1772615952230947600,4.612947509765625,0.014846855998039244,-0.2727034269362688,-0.2000613115083426
1772615952241015600,4.623015625,-0.3728156600266695,-0.33464579610824585,-0.39024581051617857
1772615952251083300,4.633083251953125,-0.7619628616511821,-0.3965717986673116,-0.5042572069583461
1772615952261151500,4.6431513671875,-1.0722668281853198,-0.41060090854167935,-0.5202406657708808
1772615952271219500,4.653219482421875,-1.3374006966501473,-0.37476445600688457,-0.4066984942756593
1772615952281287400,4.663287353515625,-1.477882934051752,-0.29828678100407124,-0.2159240848169662
1772615952291356700,4.673356689453125,-1.5233867941200732,-0.17378303397893904,-0.017737882998120038
1772615952301424400,4.68342431640625,-1.5285504604935645,-0.08387012334167956,0.09019622109066694
1772615952311492400,4.693492431640625,-1.4465332715421915,0.037052842587232585,0.06915728725316003
1772615952321560300,4.703560302734375,-1.3009493270874022,0.17264438533782958,-0.05615710030142217
1772615952331628500,4.713628662109375,-1.0237006579369305,0.15271686507463456,-0.08809913921356201
1772615952341696500,4.723696533203125,-0.7823223435908555,0.23788404248952863,-0.01008643666319549
1772615952351764500,4.733764404296875,-0.4564414532184601,0.4486316562503576,-0.0006827398334629833
1772615952361832400,4.74383251953125,-0.07969663704931736,0.5121750308781862,0.13458720627995208
1772615952371900700,4.753900634765625,0.2911205426365137,0.6342582727581262,0.22761715295920149
1772615952381968400,4.763968505859375,0.6072977851182222,0.7150456276535987,0.25462010976765304
1772615952392036400,4.774036376953125,0.851043413117528,0.6899778218924999,0.27401109373504295
1772615952402104300,4.784104248046875,1.0396294639527797,0.6265583659052848,0.24544030308797954
1772615952412172500,4.794172607421875,1.1677601693034172,0.5863870990365744,0.23544386452948673
1772615952422241500,4.804241455078125,1.231135201627016,0.4872264675825834,0.22060805964842436
1772615952432309500,4.8143095703125,1.2562854249745607,0.37553017968237395,0.16560316158942878
1772615952442377500,4.82437744140625,1.1982540917664766,0.24446458992362022,0.014623796965042127
1772615952452445400,4.834445556640625,1.0555495021402834,0.09482581712007522,-0.16013941629081963
1772615952462513400,4.844513427734375,0.8153671195805072,-0.032763036438822744,-0.3315795769380405
1772615952472581400,4.854581298828125,0.5052490310072899,-0.14199381100833416,-0.5282060916921123
1772615952482649600,4.864649658203125,0.17737667455673217,-0.19849428138732908,-0.7074617483958602
1772615952492717600,4.874717529296875,-0.07377250769734382,-0.272014860150218,-0.8027392548061907
1772615952502785500,4.88478564453125,-0.27842180458307264,-0.3306172712445259,-0.7601976786095649
1772615952512853500,4.894853515625,-0.39593350076377387,-0.3778513161063194,-0.674140931943804
1772615952522921500,4.90492138671875,-0.42162089972794053,-0.41247430119812484,-0.5746337886070833
1772615952532989400,4.914989501953125,-0.34263328773081303,-0.4421528156250715,-0.4751129090059548
1772615952543058400,4.925058349609375,-0.20186697269082068,-0.4613900155365467,-0.38955545363184063
1772615952553126700,4.935126708984375,-0.03293663944005966,-0.4572545231670141,-0.33910080275572835
1772615952563194600,4.945194580078125,0.1148474454075098,-0.44875089871585366,-0.3056965092713013
1772615952573262300,4.955262451171875,0.26834698529243467,-0.42064767078161236,-0.29298766994895414
1772615952583330300,4.965330322265625,0.4098047897279262,-0.4130477171719074,-0.2511219837198965
1772615952593398500,4.9753984375,0.5377168838918209,-0.4415080879807472,-0.2091510470180772
1772615952603466500,4.985466552734375,0.6468547194808721,-0.4515145182102918,-0.16444032835513353
1772615952613534500,4.995534423828125,0.6877741743683815,-0.432375517976284,-0.17022148730615153
1772615952623602400,5.0056025390625,0.6832143191069364,-0.41015608738362785,-0.16724694674108176
1772615952633670700,5.015670654296875,0.6581693096995354,-0.4095896856725216,-0.1556352184730582
1772615952643738600,5.025738525390625,0.6259720904499292,-0.38808746343851086,-0.13298711413955316
1772615952653806300,5.035806396484375,0.6075432843118905,-0.33148002555370326,-0.0670447520785965
1772615952663874300,5.045874267578125,0.5767196915030479,-0.3156611096531153,0.03223974321708083
1772615952673942500,5.055942626953125,0.5789461353808641,-0.3828887257516384,0.06511424067374319
1772615952684011500,5.066011474609375,0.5899579432606696,-0.3880208279430866,0.024545005729701367
1772615952694079500,5.07607958984375,0.5577198074787855,-0.41944764734208584,-0.029423608084116128
1772615952704147500,5.0861474609375,0.542425792235136,-0.48209027373790736,-0.07888806061279029
1772615952714215400,5.09621533203125,0.5755933178216218,-0.49245735397338863,-0.0689552984076552
1772615952724283400,5.106283447265625,0.6299427476465702,-0.5295213024765253,0.014235172106791287
1772615952734351400,5.116351318359375,0.6408394047141075,-0.625703794902563,0.041349023677501824
1772615952744419600,5.126419677734375,0.6252490368723869,-0.6972329075872897,-0.06941126201422884
1772615952754487600,5.136487548828125,0.5927864446848631,-0.7193301731050014,-0.2249447919447906
1772615952764555500,5.146555419921875,0.5501788905799389,-0.7473270180553198,-0.30928404890187083
1772615952774623500,5.15662353515625,0.5625450356781483,-0.7480711144208908,-0.33424737137518823
1772615952784691500,5.16669140625,0.577858924666047,-0.7407903097629547,-0.37262503282539544
1772615952794759400,5.176759521484375,0.5683125131636858,-0.7789818009912968,-0.4256496437873691
1772615952804828400,5.186828369140625,0.5530903941124677,-0.8608025905877351,-0.45469581512752916
1772615952814896600,5.196896728515625,0.5698761092185973,-0.9567015898972749,-0.3802760590352118
1772615952824964600,5.206964599609375,0.5921271039932966,-1.1117892757564782,-0.2939391071885824
1772615952835032600,5.217032470703125,0.5944120000600814,-1.2176087805777787,-0.2774056132778525
1772615952845100300,5.227100341796875,0.4764174887984991,-1.2348784798085688,-0.28957943240804596
1772615952855168500,5.23716845703125,0.2552560330510139,-1.2256103007256984,-0.35638993733935054
1772615952865236500,5.247236572265625,-0.0018143559455871582,-1.1248533399909735,-0.4403748096344992
1772615952875304400,5.257304443359375,-0.28120179069042206,-0.9984802919626236,-0.5359348958458751
1772615952885372400,5.267372314453125,-0.5768453637093305,-0.8494342243552208,-0.6808247205566614
1772615952895440600,5.277440673828125,-0.8440127838283776,-0.6177390996336937,-0.8289475358393043
1772615952905508600,5.287508544921875,-0.9751151984661817,-0.3327905236303806,-0.8567457894776016
1772615952915576600,5.29757666015625,-0.9364555052042007,-0.04808978490829467,-0.7068654630031437
1772615952925644300,5.307644287109375,-0.7684522236704826,0.23611118759810923,-0.4025498501636088
1772615952935713500,5.317713623046875,-0.4996265149503946,0.4796960720777511,-0.11349806749201378
1772615952945781500,5.327781494140625,-0.24319033220410347,0.65278937022686,0.047110811207769436
1772615952955849500,5.337849365234375,-0.003418284010887146,0.8000333568483591,0.05891852783877402
1772615952965917400,5.34791748046875,0.2051250977039337,0.8883949463903903,-0.054542733040498566
1772615952975985400,5.3579853515625,0.3909142112970352,0.8932897326946257,-0.1811210852494463
1772615952986053400,5.368053466796875,0.5155459686160088,0.8701023338526487,-0.26887948473393913
1772615952996121300,5.378121337890625,0.5960691196173429,0.8216618358105421,-0.30851854442209004
1772615953006189600,5.388189453125,0.6052361764132976,0.754111563628912,-0.33184301364719865
1772615953016257500,5.398257568359375,0.5738637175500393,0.6815905172973871,-0.3701445411212742
1772615953026325500,5.408325439453125,0.500017560094595,0.6094529173254967,-0.3996000604473054
1772615953036393500,5.4183935546875,0.36249008084535594,0.5935305410504341,-0.35347554772999135
1772615953046461700,5.428461669921875,0.24400983189344405,0.6104840139389037,-0.2198101872690022
1772615953056529400,5.438529296875,0.14305121110677718,0.5684112973630427,-0.0446537460450083
1772615953066598400,5.448598388671875,0.02369534836411476,0.5512146633684635,0.09350023107212037
1772615953076666400,5.458666259765625,-0.07185410685539245,0.5315858337908983,0.19534896909892557
1772615953086734600,5.468734619140625,-0.1602870080679655,0.47155602024197574,0.2732563481112942
1772615953096802600,5.478802490234375,-0.2345434998899698,0.4604775768667459,0.258345742694661
1772615953106870500,5.48887060546875,-0.28158056087493893,0.49781625065803525,0.198062082248833
1772615953116938200,5.498938232421875,-0.3080518036931753,0.5261684849172831,0.19193223772430792
1772615953127006500,5.50900634765625,-0.36055648243427274,0.5946539921224117,0.2035489161620848
1772615953137074400,5.519074462890625,-0.45072482913732526,0.6913789208620786,0.27668142718914895
1772615953147142400,5.529142333984375,-0.4585574224591255,0.7722083613336086,0.33201661664843557
1772615953157210400,5.53921044921875,-0.388933851134777,0.7884756055235862,0.3185805042311549
1772615953167278600,5.549278564453125,-0.25806232264339923,0.7812813101053238,0.2986391929046251
1772615953177346600,5.5593466796875,-0.18549860621392725,0.7870002722740173,0.3744824241951108
1772615953187414500,5.56941455078125,-0.16034019955992698,0.7438970436066389,0.43096155952513215
1772615953197483500,5.5794833984375,-0.1089782611131668,0.7212772155195474,0.48782742915041744
1772615953207551500,5.589551513671875,-0.05158347224295139,0.669850395143032,0.588377323005721
1772615953217619500,5.599619384765625,-0.05807283426225185,0.5218950453817844,0.7286651338137686
1772615953227687400,5.6096875,-0.034039632245898246,0.38448622407615185,0.8592333685096353
1772615953237755600,5.619755615234375,-0.11949088729918002,0.2627858440339565,0.982478201514855
1772615953247823400,5.6298232421875,-0.3796598268330097,0.11260171230733394,1.014192971009761
1772615953257891300,5.639891357421875,-0.6830851397693157,-0.008334113103151321,0.8937330925479531
1772615953267959300,5.649959228515625,-1.0412632026344537,-0.15856383753716946,0.7024260923162102
1772615953278027500,5.660027587890625,-1.369296887126565,-0.24440672225654123,0.4975317711608484
1772615953288095500,5.670095458984375,-1.6276140613138674,-0.2813222021996975,0.3693693554976955
1772615953298163500,5.68016357421875,-1.7912556405067444,-0.2293418395936489,0.2461525978094898
1772615953308231400,5.6902314453125,-1.765877453622222,-0.05950666645765304,0.20146979006677865
1772615953318300400,5.700300537109375,-1.5627531743466854,0.16842881346940994,0.26023502703998236
1772615953328369400,5.710369384765625,-0.6885691241383552,0.6593249094754458,0.7115829199790954
1772615953338437600,5.720437744140625,-0.1151262623488903,0.757429309874773,0.9899363355010747
1772615953348505600,5.730505615234375,0.3780249191075563,0.8384113105595111,1.150964225064218
1772615953358573300,5.7405732421875,0.747992203965783,0.8388497019767761,1.16705282475166
1772615953368641300,5.750641357421875,0.9454524661302566,0.7629752535641193,1.0811365825351327
1772615953378709500,5.76070947265625,1.027653779476881,0.6377069519072771,0.9024911301515995
1772615953388777500,5.770777587890625,0.9885036723494529,0.4502753318041563,0.6528952417541295
1772615953398845400,5.780845458984375,0.8537830672144889,0.2743932797193527,0.43941096957102416
1772615953408913400,5.790913330078125,0.6130915660887957,0.10053834954798221,0.31510895566307007
1772615953418981600,5.800981689453125,0.3740145144224167,-0.029019173735380172,0.37099458207935093
1772615953429049600,5.811049560546875,0.12906710941791533,-0.16586276237368583,0.5438891793185845
1772615953439118300,5.821118408203125,-0.12365502124130726,-0.26383856795728206,0.6745726744245737
1772615953449186600,5.8311865234375,-0.3849608558505773,-0.27747254103422164,0.738413643759489
1772615953459254500,5.841254638671875,-0.6143231537103653,-0.30601182229816914,0.7542491454686969
1772615953469322500,5.851322509765625,-0.8043518045693635,-0.3410784595042467,0.7356693865526467
1772615953479390500,5.861390380859375,-0.9306552944928407,-0.3400876949012279,0.647546793398261
1772615953489458700,5.871458740234375,-1.0452730227977036,-0.2839250781744718,0.5529939845332875
1772615953499526400,5.8815263671875,-1.1680968539118766,-0.2518237205147743,0.4557220163701102
1772615953509594400,5.891594482421875,-1.2075053197145462,-0.16369593972861765,0.34244671565014867
1772615953519662300,5.901662353515625,-1.1179133115947246,-0.053418870976567265,0.297611238096375
1772615953529730600,5.91173046875,-0.8848153343379497,0.06458265454769134,0.39568997433148323
1772615953539798500,5.921798583984375,-0.5566670835554599,0.14304419684410094,0.528495393494889
1772615953549866500,5.931866455078125,-0.20102233856022356,0.2228361109614372,0.6269412277430295
1772615953559934500,5.9419345703125,0.11619009218811988,0.28894378311932084,0.7212898558054119
1772615953570003500,5.95200341796875,0.3474175993978977,0.292410582447052,0.8126401788346469
1772615953580071400,5.962071533203125,0.4800555530399084,0.25521102486550806,0.8462572017543017
1772615953590139400,5.972139404296875,0.5112462255954742,0.22831015845835206,0.8722112157654016
1772615953600207600,5.98220751953125,0.4211918606609106,0.25043138937354087,0.9457660621240734
1772615953610275600,5.992275634765625,0.3270277223199606,0.17607435978651045,0.8772412458218634
1772615953620343600,6.002343505859375,0.34638299565315245,0.17860709313452242,0.7563622651651501
1772615953630411300,6.012411376953125,0.34005203906595705,0.11796528516709803,0.7205017741676419
1772615953640479500,6.0224794921875,0.2625976279854774,0.0980593922138214,0.7370875097222626
1772615953650547500,6.03254736328125,0.16585808619856834,0.10606558853685855,0.7497106983214616
1772615953660615400,6.042615478515625,0.1099105735272169,0.12327917366623878,0.7735441399820149
1772615953670683400,6.052683349609375,0.06520341679453849,0.13365735981762408,0.788289435301721
1772615953680751600,6.062751708984375,-0.061519759845733636,0.1333037240743637,0.8486177203405648
1772615953690820400,6.0728203125,-0.2048725842475891,0.16514789210259914,0.9128168554633855
1772615953700888300,6.082888427734375,-0.26935528555214405,0.15592822833657263,0.9804418003164231
1772615953710956500,6.09295654296875,-0.34414076968431473,0.10460019215941428,1.0285352384865283
1772615953721024500,6.1030244140625,-0.3596721008151769,0.09376198728084564,1.0548433996975422
1772615953731092500,6.113092529296875,-0.287912101984024,0.009832242706418037,1.137811167372018
1772615953741160400,6.123160400390625,-0.14816343955397604,-0.11272796903550625,1.2842115427762268
1772615953751228700,6.133228759765625,0.001827215427160263,-0.19101240119934082,1.3562109033212064
1772615953761296400,6.14329638671875,0.14536124161481856,-0.28778876786530017,1.2566145107984543
1772615953771364400,6.1533642578125,0.22831425011157988,-0.4033756334632635,0.9710355279371142
1772615953781432300,6.163432373046875,0.21560265257656572,-0.527751954716444,0.5985215542707591
1772615953791500500,6.17350048828125,0.062469023394584655,-0.5920943707674742,0.29503468387294557
1772615953801569000,6.183569091796875,-0.257029472464323,-0.5845896942257881,0.11260971295069902
1772615953811637000,6.193636962890625,-0.5897855093032122,-0.5767196915030479,-0.06477222230304032
1772615953821706000,6.2037060546875,-0.8624854291081429,-0.44670331853628154,-0.19380455266851931
1772615953831774000,6.21377392578125,-1.0843214231163263,-0.29905951894223687,-0.19638413909925145
1772615953841842000,6.223842041015625,-1.2338660878956318,-0.1756412290662527,-0.10513797056423499
1772615953851910100,6.23391015625,-1.2883978885501621,-0.06256137785315513,-0.012170659058727324
1772615953861978000,6.24397802734375,-1.3040490466684103,0.06922843452692032,0.035696094216033813
1772615953872046000,6.254046142578125,-1.2933119640767574,0.21314766063988208,0.022550690107326955
1772615953882114000,6.264114013671875,-1.282766020143032,0.3305716785371303,-0.02117322774166241
1772615953892182000,6.27418212890625,-1.2242337516754864,0.39879064376056195,-0.07434594193743542
1772615953902250000,6.28425,-1.0988064600646494,0.4814005379080772,-0.13088465283443218
1772615953912318000,6.29431787109375,-0.9132768741905689,0.5394079057186841,-0.16459643223229795
1772615953922386000,6.304385986328125,-0.7377052032291889,0.5426303748965263,-0.20385266661532223
1772615953932454100,6.3144541015625,-0.6023837095916271,0.46210605485141276,-0.2980685716761276
1772615953942523000,6.32452294921875,-0.43510172806978226,0.40729777534306044,-0.5680567117717117
1772615953952590800,6.3345908203125,-0.21113515177369116,0.43234161570668217,-0.7671054852366447
1772615953962659000,6.3446591796875,-0.11378127748072146,0.44066403837203977,-0.7031416201744228
1772615953972727000,6.35472705078125,-0.07969429896175861,0.5145744932353497,-0.5764764938643202
1772615953982795000,6.364794921875,-0.06876432414650917,0.638281536924839,-0.4770812134042382
1772615953992863000,6.374863037109375,-0.11185060167908668,0.6875584857910871,-0.41014768488146364
1772615954002931200,6.38493115234375,-0.16066227112114428,0.7523463075220584,-0.37633864652104676
1772615954012999200,6.394999267578125,-0.15003157151341437,0.8372901975750923,-0.29969854749813674
1772615954023067000,6.40506689453125,-0.13625555961728095,0.921663594263792,-0.09865501088625751
1772615954033134800,6.415134765625,-0.09782616797983645,0.9808557879447937,0.13285985276438295
1772615954043203000,6.425203125,0.010358312407135964,1.0078542695075272,0.3185743667513132
1772615954053271000,6.43527099609375,0.1600520302683115,1.036822005316615,0.4429184662353247
1772615954063339000,6.445339111328125,0.2718909415096044,1.0412187789708376,0.5463525372248142
1772615954073408000,6.455407958984375,0.3267524125099182,1.0311603262931108,0.6761807672083378
1772615954083476000,6.46547607421875,0.36229485053420063,1.014654597172141,0.8020172241419553
1772615954093544000,6.4755439453125,0.369808294904232,0.9949930343687534,0.886266848320514
1772615954103612000,6.48561181640625,0.3357277461260557,0.9533546175569295,0.9128329298153519
1772615954113680100,6.49568017578125,0.24917232922315596,0.8201414943754672,0.8958202740855514
1772615954123748000,6.505748046875,0.11516308722794055,0.6227601426661015,0.8016897457532585
1772615954133816000,6.515816162109375,-0.010201076018810271,0.46420215034782886,0.6197331229951232
1772615954143884000,6.525884033203125,-0.12649521310329437,0.3497802368760109,0.47206104715466496
1772615954153952000,6.535951904296875,-0.2851151647418737,0.1937006173700094,0.402640049197711
1772615954164020000,6.54602001953125,-0.5020201320886611,0.016909633746743202,0.3446383804755285
1772615954174088000,6.556087890625,-0.7854962974518537,-0.15771102010011673,0.22972839122582225
1772615954184156000,6.566156005859375,-1.062322357276082,-0.25343758545219897,0.07728895485308021
1772615954194225200,6.57622509765625,-1.2782891669899223,-0.3007704145133495,-0.04290021690856665
1772615954204293000,6.586293212890625,-1.429590320047736,-0.3130482968062162,-0.03797130913902074
1772615954214360800,6.59636083984375,-1.5258517229288815,-0.26597265737652775,0.09737561120074242
1772615954224428800,6.6064287109375,-1.5922200918495655,-0.14725918419063092,0.17924612169042228
1772615954234497000,6.6164970703125,-1.6424094793856143,0.02026712748110294,0.23489947372078895
1772615954244565000,6.62656494140625,-1.5635586455106734,0.19291443542838096,0.31823651309907436
1772615954254633000,6.636633056640625,-1.3438725230127573,0.38688101025819777,0.5312684384047984
1772615954264701200,6.646701171875,-1.0760907703876494,0.553205544924736,0.8168564813554287
1772615954274769200,6.65676904296875,-0.7728349687993527,0.7623392937481402,1.0342886874467134
1772615954284837000,6.666837158203125,-0.5156225409835576,0.9138777626931667,1.1664204451322555
1772615954294904800,6.67690478515625,-0.3143903590649366,1.0778408289253711,1.2180243756413458
1772615954304973000,6.68697314453125,-0.09840192204117774,1.1593541600078343,1.125550455409661
1772615954315041000,6.697041015625,0.08248480646312237,1.2236661809206009,1.0520082493368537
1772615954325110000,6.707110107421875,0.2004150203168392,1.2102741999059914,0.9853440392747521
1772615954335178000,6.717177978515625,0.23633564400374887,1.1209183386296033,0.7952543789435178
1772615954345246000,6.727245849609375,0.19234043493270872,1.0449421834081412,0.49875002437680954
1772615954355314000,6.73731396484375,0.14885726703703403,0.9435323117226362,0.2548697736797854
1772615954365382000,6.7473818359375,0.05770166286230087,0.7495335881888866,0.019412154619581998
1772615954375449900,6.757449951171875,-0.10755261222422122,0.5814104796677827,-0.22793162573585285
1772615954385518000,6.76751806640625,-0.28821371527910233,0.44543081438243387,-0.3975075086148456
1772615954395586000,6.7775859375,-0.46544016771018504,0.27883155442774293,-0.48396629674285646
1772615954405654000,6.787654052734375,-0.6024772330939769,0.15309212812781334,-0.5559857502277941
1772615954415722000,6.797721923828125,-0.7507096462309361,0.1013496659308672,-0.6168540604274719
1772615954425790000,6.8077900390625,-0.875950475358963,0.06163666422367096,-0.6144272716719656
1772615954435858000,6.81785791015625,-0.87981650313735,0.08058277223408222,-0.615269202388823
1772615954445927000,6.827927001953125,-0.8654062849909067,0.1922901660501957,-0.48060840114969755
1772615954455995100,6.8379951171875,-0.9453145189642905,0.266643688505888,-0.30885230642110106
1772615954466063000,6.84806298828125,-0.9646054948896169,0.44173195986449715,-0.20492278006486594
1772615954476131000,6.858131103515625,-0.9717477678596973,0.5548860453575849,-0.2011795201496221
1772615954486198800,6.86819873046875,-0.9343675930142402,0.58796180100739,-0.3021350721963681
1772615954496267000,6.87826708984375,-0.8529109605550765,0.5801812301337719,-0.4571658585028723
1772615954506335000,6.8883349609375,-0.7076175234794616,0.5420224721312522,-0.6017376302404329
1772615954516403000,6.89840283203125,-0.4940887545675039,0.4845651394188404,-0.6684813718121498
1772615954526471000,6.908470947265625,-0.19513386504352093,0.40739948215186594,-0.656346551251784
1772615954536539100,6.9185390625,0.1277004972398281,0.3216325852781534,-0.6148831987459212
1772615954546607000,6.928607177734375,0.41870998071730137,0.25630875697433947,-0.5697046981744468
1772615954556675000,6.938675048828125,0.6716951462268829,0.15669921270906925,-0.5090651186967269
1772615954566744000,6.948744140625,0.8625941501796245,0.06600538082718849,-0.46062414573058486
1772615954576812000,6.95881201171875,0.9485264667481184,-0.005220364996790886,-0.39101650262773036
1772615954586880000,6.9688798828125,0.9159645058393477,-0.10110767386853695,-0.3358027841236442
1772615954596948000,6.978947998046875,0.7576473365396261,-0.19044015426933764,-0.3254000480528921
1772615954607016200,6.98901611328125,0.5014186590641737,-0.23362638504505157,-0.37258338564075527
1772615954617084000,6.999083984375,0.16540975790917872,-0.365406845074892,-0.44794740031324326
1772615954627152000,7.00915185546875,-0.14319208088219165,-0.47373102619349955,-0.5891333290047943
1772615954637219800,7.0192197265625,-0.35451369513869285,-0.5386357523024082,-0.6287943082638084
1772615954647288000,7.0292880859375,-0.489474538770318,-0.6426239500433206,-0.6774194421578198
1772615954657356000,7.03935595703125,-0.4503928207039833,-0.5886661498844623,-0.6495296377785503
1772615954667424000,7.049424072265625,-0.3422843281626701,-0.6128057348847389,-0.5036421072673052
1772615954677492000,7.059491943359375,-0.0990051486313343,-0.5860486608624458,-0.392745445312187
1772615954687560200,7.069560302734375,0.24660218647420404,-0.5363362431883811,-0.2959026988791302
1772615954697629000,7.07962890625,0.5134796837359666,-0.6060287880957126,-0.20573353019217028
1772615954707697000,7.08969677734375,0.7747668136447667,-0.6345306599587202,-0.11226525602773763
1772615954717765000,7.09976513671875,0.960442529991269,-0.7425532277822494,0.0352186859626323
1772615954727833000,7.1098330078125,0.9736965638399123,-0.9262064983904361,0.14856671399208715
1772615954737901000,7.119901123046875,0.8565046011328696,-1.0029781879037618,0.0848825700535439
1772615954747969000,7.129968994140625,0.6331044265478849,-1.0862743107497692,-0.07851899897153489
1772615954758037000,7.140037109375,0.3235246826350689,-1.1772206560879945,-0.2519108142763376
1772615954768105000,7.15010498046875,-0.11964812368750571,-1.1698708778470754,-0.546879922099784
1772615954778173000,7.1601728515625,-0.5644850638300181,-1.043754434928298,-0.852159046209231
1772615954788241000,7.170240966796875,-0.9638380176484584,-0.8973632657438516,-1.0063560668390243
1772615954798308400,7.180308349609375,-1.2159715347647666,-0.6460726291924714,-1.066170703267306
1772615954808376300,7.190376220703125,-1.2778490220069885,-0.3076286098450422,-1.045734795090556
1772615954818445300,7.2004453125,-1.0912556062936782,-0.020338439151644707,-0.8971559796687215
1772615954828513000,7.210512939453125,-0.6988380046963691,0.28076573736071586,-0.5974053001245483
1772615954838581200,7.220581298828125,-0.30476036093235015,0.48453532880246636,-0.24627319198185577
1772615954848649200,7.230649169921875,0.06177578043341636,0.60388885345757,-0.030093730464600957
1772615954858717200,7.24071728515625,0.3753945706039667,0.691857644289732,-0.010676082252571358
1772615954868785200,7.25078515625,0.6043973875015973,0.7054425175279379,-0.15592844753228127
1772615954878853400,7.260853271484375,0.7362170104980469,0.650941112011671,-0.39966490584444253
1772615954888921300,7.27092138671875,0.8053250335156917,0.5858581067264079,-0.5486553342744708
1772615954898989300,7.2809892578125,0.7930442286133765,0.4305710989028215,-0.585778392553702
1772615954909057000,7.29105712890625,0.7382482240647077,0.3091886987686157,-0.5969617941407487
1772615954919125200,7.301125244140625,0.5881529396653175,0.2698883695155382,-0.6238543676435947
1772615954929193200,7.311193115234375,0.37648938010334965,0.2435457215130329,-0.6556286853060126
1772615954939261200,7.32126123046875,0.13764438362717626,0.2710211729377508,-0.6640270227517933
1772615954949330400,7.331330322265625,-0.07601005749106407,0.2829898431509733,-0.6785128634177148
1772615954959398100,7.341398193359375,-0.26103929262757297,0.27214170140028,-0.6960245547108351
1772615954969466000,7.351466064453125,-0.37185938221514225,0.2684562908858061,-0.6915126302443444
1772615954979534000,7.3615341796875,-0.44611645855903626,0.24775603268444538,-0.6348183177936821
1772615954989602300,7.371602294921875,-0.4974649530023336,0.3198042008072138,-0.5989767506923526
1772615954999670300,7.381670166015625,-0.5592138454288244,0.4172872544378042,-0.5295328102512284
1772615955009738200,7.39173828125,-0.6097977852404117,0.5283528432190417,-0.46198871208205816
1772615955019806200,7.40180615234375,-0.5754840122282505,0.6321499023020267,-0.3987465488905087
1772615955029874400,7.41187451171875,-0.4878267715632915,0.7728904983788728,-0.2382533324596472
1772615955039942100,7.421942138671875,-0.3990566012203693,0.8983855945289134,-0.03392792006630916
1772615955050010000,7.432010009765625,-0.27560090194344516,0.9705442372888327,0.2335797146254219
1772615955060078000,7.442078125,-0.1301052202939987,1.0045563970059155,0.4648186748109758
1772615955070147300,7.452147216796875,-0.009642273092269896,1.020557683736086,0.6221707984708249
1772615955080215300,7.46221533203125,0.01619651704132557,0.9355787223696708,0.6939882996428758
1772615955090283300,7.472283203125,0.008776011651754378,0.7897896107316017,0.7286458445914089
1772615955100351200,7.482351318359375,-0.025722470277547836,0.5887140806794167,0.8045105753276497
1772615955110419200,7.492419189453125,-0.09043138155341147,0.3744593355804682,0.8248943879909812
1772615955120487200,7.502487060546875,-0.17675415874421596,0.2935784571826458,0.7499195187665522
1772615955130555100,7.51255517578125,-0.35778935580849647,0.23779168803095815,0.6289387582357973
1772615955140623400,7.522623291015625,-0.5719950010687113,0.17562953862845895,0.4973337643707171
1772615955150691300,7.53269140625,-0.8206359998941422,0.11013327636718749,0.36338659129366274
1772615955160759300,7.54275927734375,-1.0859867259800433,0.09595745149850844,0.25281786438496784
1772615955170827300,7.5528271484375,-1.3458756795287132,0.05351648613214492,0.14835372882853262
1772615955180895200,7.562895263671875,-1.4475123457074164,0.02963350624144077,0.06282435790458693
1772615955190963200,7.572963134765625,-1.3969669843405483,-0.012080898416042327,-0.032059673942439255
1772615955201032200,7.5830322265625,-1.247237610644102,0.02406710428595543,-0.1756051165732555
1772615955211100400,7.593100341796875,-0.9944862538903951,0.10940320852696896,-0.21613980992687865
1772615955221168400,7.60316845703125,-0.5761679028391837,0.16704232754707335,-0.11770851566074415
1772615955231236000,7.613236083984375,-0.07303834820389747,0.2530927175372839,0.14003491375921293
1772615955241304000,7.623303955078125,0.33773265620768067,0.37974867416024205,0.3933687648423016
1772615955251372300,7.633372314453125,0.6829302414685487,0.4854851768732071,0.5653861773882061
1772615955261440300,7.643440185546875,0.9793705178231,0.5211147086590528,0.7136340072900056
1772615955271508200,7.65350830078125,1.1813818674206733,0.515271243327856,0.8634544202707707
1772615955281576200,7.663576171875,1.2959972576379775,0.4436597130566835,0.918028744892776
1772615955291644400,7.67364453125,1.405388191205263,0.37334406781494617,0.8795622361153363
1772615955301712400,7.68371240234375,1.3663228397518397,0.1983674401372671,0.9252081350028515
1772615955311780000,7.693780029296875,1.2190467044264077,0.044887773996591565,0.9653343936860561
1772615955321849300,7.703849365234375,0.9829168121278286,0.051909635457396505,1.0640193704523147
1772615955331917300,7.713917236328125,0.6138754099428654,0.03909107041656971,1.1325300120986996
1772615955341985300,7.7239853515625,0.13377075706422328,0.00040039749443531033,1.1559669287223369
1772615955352053200,7.73405322265625,-0.39799803207814693,0.0034060090512037277,1.0841294076755643
1772615955362121200,7.744121337890625,-0.8226035005748271,0.0228396083176136,0.9994272174239158
