time,seconds_elapsed,z,y,x
1772615947690244000,0.072244140625,0.2628028988838196,0.3439258635044098,-0.23738162219524384
1772615947700312000,0.08231201171875,0.282976359128952,0.341446191072464,-0.2556053698062897
1772615947710380300,0.09238037109375,0.2989538609981537,0.3408504128456116,-0.24750293791294098
1772615947720448300,0.1024482421875,0.3041883111000061,0.34335511922836304,-0.22090142965316772
1772615947730516200,0.11251611328125,0.3151782751083374,0.3652954697608948,-0.18050165474414825
1772615947740585200,0.122585205078125,0.33510246872901917,0.3857938051223755,-0.13593019545078278
1772615947750653200,0.132653076171875,0.3478052616119385,0.39115720987319946,-0.08979208767414093
1772615947760721200,0.14272119140625,0.35570552945137024,0.41224172711372375,-0.04975998029112816
1772615947770789000,0.1527890625,0.35737529397010803,0.4316205680370331,-0.03026646375656128
1772615947780857300,0.162857421875,0.36273518204689026,0.4351079761981964,-0.023559559136629105
1772615947790925300,0.17292529296875,0.36666396260261536,0.432817667722702,-0.03188152238726616
1772615947800993800,0.182993896484375,0.3741844594478607,0.4237048625946045,-0.03891093283891678
1772615947811061500,0.1930615234375,0.3785649538040161,0.4223446249961853,-0.047871895134449005
1772615947821129500,0.20312939453125,0.38456159830093384,0.4254738390445709,-0.051676489412784576
1772615947831197400,0.213197509765625,0.3928444981575012,0.44021713733673096,-0.06681999564170837
1772615947841265700,0.223265625,0.3971484303474426,0.4681880474090576,-0.08291853964328766
1772615947851333600,0.233333740234375,0.39536648988723755,0.5062805414199829,-0.09213804453611374
1772615947861401600,0.243401611328125,0.39247214794158936,0.5444929003715515,-0.09666302055120468
1772615947871470600,0.253470703125,0.395927369594574,0.568020224571228,-0.0835980623960495
1772615947881538600,0.26353857421875,0.4093933701515198,0.5720980763435364,-0.06429946422576904
1772615947891606500,0.2736064453125,0.41560235619544983,0.5833346843719482,-0.03124934621155262
1772615947901674500,0.283674560546875,0.42616525292396545,0.5993133783340454,0.009829113259911537
1772615947911742700,0.29374267578125,0.439614474773407,0.6024868488311768,0.035083867609500885
1772615947921810700,0.303810791015625,0.44548383355140686,0.6098139882087708,0.06462205201387405
1772615947931878700,0.313878662109375,0.43585145473480225,0.621381938457489,0.08141804486513138
1772615947941946600,0.323946533203125,0.4201577305793762,0.6362000107765198,0.07901187986135483
1772615947952014600,0.3340146484375,0.4114017188549042,0.6466198563575745,0.0655110701918602
1772615947962082600,0.34408251953125,0.42615723609924316,0.6428704261779785,0.03832738846540451
1772615947972150500,0.354150634765625,0.46735990047454834,0.6014344096183777,0.015933707356452942
1772615947982218500,0.364218505859375,0.5246455669403076,0.5393494367599487,-0.017847159877419472
1772615947992287700,0.374287841796875,0.5885829329490662,0.4670981168746948,-0.053620435297489166
1772615948002355500,0.38435546875,0.6466688513755798,0.4007076323032379,-0.10642585903406143
1772615948012423400,0.39442333984375,0.6748123168945312,0.37301865220069885,-0.18548937141895294
1772615948022491600,0.40449169921875,0.6526398658752441,0.3973647654056549,-0.26486730575561523
1772615948032559600,0.4145595703125,0.5928512215614319,0.46075913310050964,-0.2974795401096344
1772615948042627600,0.424627685546875,0.515880823135376,0.5407887697219849,-0.2767196595668793
1772615948052695600,0.434695556640625,0.4408967196941376,0.6495506763458252,-0.2247968167066574
1772615948062763800,0.444763671875,0.38773229718208313,0.7774370312690735,-0.14963655173778534
1772615948072831700,0.454831787109375,0.3595249354839325,0.8784927129745483,-0.07447345554828644
1772615948082899500,0.4648994140625,0.3768445551395416,0.9210880994796753,0.015995996072888374
1772615948092967400,0.474967529296875,0.42515233159065247,0.9180677533149719,0.10673249512910843
1772615948103035600,0.48503564453125,0.4870434105396271,0.895860493183136,0.1818661391735077
1772615948113103600,0.495103515625,0.5515061616897583,0.8533675074577332,0.23048342764377594
1772615948123172600,0.505172607421875,0.624443769454956,0.8108046054840088,0.2639329731464386
1772615948133240600,0.515240478515625,0.6804333329200745,0.7562862038612366,0.2757928967475891
1772615948143308500,0.52530859375,0.7274519801139832,0.701109766960144,0.2652609050273895
1772615948153376500,0.53537646484375,0.7622103691101074,0.6541313529014587,0.23713906109333038
1772615948163444500,0.545444580078125,0.7808687090873718,0.6454946994781494,0.1896122843027115
1772615948173512700,0.5555126953125,0.771194338798523,0.6615132093429565,0.12374132871627808
1772615948183580700,0.56558056640625,0.7352328300476074,0.6988422274589539,0.07802684605121613
1772615948193648600,0.575648681640625,0.687673807144165,0.7196965217590332,0.05326538905501366
1772615948203716600,0.585716552734375,0.6371890306472778,0.7211002707481384,0.05413571000099182
1772615948213784600,0.59578466796875,0.5856172442436218,0.7132954001426697,0.07253247499465942
1772615948223852500,0.6058525390625,0.5293608903884888,0.7073437571525574,0.09049282968044281
1772615948233920500,0.61592041015625,0.47057878971099854,0.7105478048324585,0.10135183483362198
1772615948243988500,0.625988525390625,0.406885027885437,0.7221085429191589,0.11415551602840424
1772615948254057700,0.6360576171875,0.33667027950286865,0.7417144775390625,0.12990328669548035
1772615948264125700,0.646125732421875,0.2887195348739624,0.7603243589401245,0.15265680849552155
1772615948274193400,0.656193359375,0.26975980401039124,0.7754940986633301,0.16361282765865326
1772615948284261600,0.66626171875,0.2710922062397003,0.8004929423332214,0.16377288103103638
1772615948294329600,0.67632958984375,0.2806742489337921,0.8080189824104309,0.15029458701610565
1772615948304397600,0.6863974609375,0.3033715784549713,0.8058592081069946,0.14096499979496002
1772615948314465500,0.696465576171875,0.3215762674808502,0.7998928427696228,0.1168394535779953
1772615948324533800,0.70653369140625,0.3320896327495575,0.8065611124038696,0.06671423465013504
1772615948334601700,0.716601806640625,0.33476269245147705,0.817108154296875,-0.011885873042047024
1772615948344669700,0.726669677734375,0.3407100737094879,0.8208667039871216,-0.10897993296384811
1772615948354737400,0.7367373046875,0.36552196741104126,0.8168671131134033,-0.21226750314235687
1772615948364805600,0.7468056640625,0.3992983102798462,0.8246051669120789,-0.3100542426109314
1772615948374874600,0.75687451171875,0.4310779869556427,0.8451558351516724,-0.40320080518722534
1772615948384942600,0.766942626953125,0.466958224773407,0.8758005499839783,-0.4754377007484436
1772615948395010800,0.7770107421875,0.49271446466445923,0.9314960837364197,-0.5206992030143738
1772615948405078500,0.78707861328125,0.5040741562843323,0.987589955329895,-0.5317678451538086
1772615948415146500,0.797146484375,0.5129761099815369,1.0612013339996338,-0.4978760778903961
1772615948425214500,0.80721435546875,0.5312613844871521,1.1383206844329834,-0.4221528172492981
1772615948435282700,0.81728271484375,0.5663353800773621,1.1967520713806152,-0.30554336309432983
1772615948445350700,0.8273505859375,0.6175908446311951,1.2422178983688354,-0.1797601282596588
1772615948455418600,0.837418701171875,0.6824384331703186,1.2749329805374146,-0.06550946086645126
1772615948465486600,0.847486572265625,0.746383011341095,1.299256443977356,0.018694370985031128
1772615948475554800,0.857554931640625,0.8140237927436829,1.3133665323257446,0.07139305770397186
1772615948485622500,0.86762255859375,0.8795082569122314,1.3064085245132446,0.09429464489221573
1772615948495690500,0.8776904296875,0.943215012550354,1.2993803024291992,0.11291929334402084
1772615948505759500,0.887759521484375,0.9927197098731995,1.3089320659637451,0.11181487888097763
1772615948515827700,0.89782763671875,1.0255695581436157,1.3070642948150635,0.09737890958786011
1772615948525895700,0.907895751953125,1.0559495687484741,1.295292854309082,0.06544574350118637
1772615948535963600,0.917963623046875,1.0816234350204468,1.2798060178756714,0.030566468834877014
1772615948546031400,0.92803125,1.1041289567947388,1.2753212451934814,-0.018235426396131516
1772615948556099600,0.938099609375,1.1183265447616577,1.2764465808868408,-0.07552263140678406
1772615948566167600,0.94816748046875,1.1202113628387451,1.285251498222351,-0.13386423885822296
1772615948576235500,0.958235595703125,1.0996426343917847,1.281633973121643,-0.17940683662891388
1772615948586303700,0.9683037109375,1.0670133829116821,1.2849605083465576,-0.20962360501289368
1772615948596371700,0.978371826171875,1.0321489572525024,1.2789058685302734,-0.2301267385482788
1772615948606439700,0.988439697265625,1.0052379369735718,1.2803218364715576,-0.2454010248184204
1772615948616507600,0.998507568359375,0.9842016100883484,1.293624758720398,-0.2599054276943207
1772615948626575600,1.00857568359375,0.9709340333938599,1.2922931909561157,-0.2691652476787567
1772615948636644600,1.01864453125,0.9651423692703247,1.2965717315673828,-0.2572343349456787
1772615948646712600,1.028712646484375,0.9685133695602417,1.3091970682144165,-0.2443760484457016
1772615948656780500,1.038780517578125,0.9624282717704773,1.3356316089630127,-0.22948753833770752
1772615948666848800,1.048848876953125,0.9533714056015015,1.3382306098937988,-0.22136889398097992
1772615948676916500,1.05891650390625,0.9505560994148254,1.3362165689468384,-0.2059735357761383
1772615948686984400,1.068984375,0.9615381956100464,1.3307867050170898,-0.19159939885139465
1772615948697052400,1.079052490234375,0.9757081270217896,1.31937575340271,-0.17101602256298065
1772615948707120600,1.08912060546875,0.9961289763450623,1.2883981466293335,-0.13241057097911835
1772615948717188600,1.099188720703125,1.0181550979614258,1.2499760389328003,-0.0873827338218689
1772615948727256600,1.109256591796875,1.0376161336898804,1.2303615808486938,-0.042113788425922394
1772615948737324500,1.119324462890625,1.040441632270813,1.2112932205200195,-0.00027593295089900494
1772615948747392800,1.129392822265625,1.0324727296829224,1.1984492540359497,0.03228707239031792
1772615948757460500,1.13946044921875,1.005702257156372,1.1918468475341797,0.050725508481264114
1772615948767529500,1.149529541015625,0.9746817350387573,1.190179467201233,0.058667056262493134
1772615948777597700,1.15959765625,0.9494498372077942,1.170199990272522,0.06083143875002861
1772615948787665700,1.169665771484375,0.932348906993866,1.1352076530456543,0.04902324825525284
1772615948797733600,1.179733642578125,0.924406886100769,1.1081310510635376,0.02596498280763626
1772615948807801600,1.189801513671875,0.9165297746658325,1.0908644199371338,-0.007639314979314804
1772615948817869300,1.199869384765625,0.9079703688621521,1.0671755075454712,-0.03942364826798439
1772615948827937500,1.2099375,0.9009886384010315,1.0350474119186401,-0.06034277752041817
1772615948838005500,1.220005615234375,0.9024139642715454,1.0022627115249634,-0.06521664559841156
1772615948848073500,1.230073486328125,0.8964735269546509,0.9711002111434937,-0.05902079865336418
1772615948858141400,1.240141357421875,0.8780731558799744,0.9540081024169922,-0.03492435812950134
1772615948868209700,1.250209716796875,0.8554999232292175,0.9486266374588013,-0.001863613841123879
1772615948878277600,1.260277587890625,0.8143872022628784,0.9374697804450989,0.039344385266304016
1772615948888345600,1.270345703125,0.7742837071418762,0.929163932800293,0.08854122459888458
1772615948898414600,1.28041455078125,0.7317641377449036,0.9457595348358154,0.1310027688741684
1772615948908482600,1.290482666015625,0.6950758695602417,0.9270787835121155,0.1637953370809555
1772615948918550500,1.300550537109375,0.6714475154876709,0.9080094695091248,0.18264684081077576
1772615948928618500,1.310618408203125,0.6451978087425232,0.9184258580207825,0.18448521196842194
1772615948938686700,1.320686767578125,0.6142165064811707,0.9490709900856018,0.1709553301334381
1772615948948754400,1.33075439453125,0.5754613876342773,0.9175083041191101,0.17479880154132843
1772615948958822400,1.340822509765625,0.535584032535553,0.8924723863601685,0.17795874178409576
1772615948968890400,1.350890380859375,0.5003706216812134,0.8825574517250061,0.15934325754642487
1772615948978958600,1.36095849609375,0.46983638405799866,0.8934576511383057,0.11101207137107849
1772615948989026600,1.371026611328125,0.4502373933792114,0.9021965861320496,0.049846187233924866
1772615948999094500,1.381094482421875,0.4368000626564026,0.907032310962677,-0.010739810764789581
1772615949009162500,1.39116259765625,0.4277474284172058,0.9063196778297424,-0.06840737164020538
1772615949019230700,1.401230712890625,0.4295564591884613,0.895717978477478,-0.10483019798994064
1772615949029299500,1.411299560546875,0.43007951974868774,0.8886078596115112,-0.11150221526622772
1772615949039367400,1.421367431640625,0.429841011762619,0.8801827430725098,-0.10794129967689514
1772615949049435600,1.431435546875,0.4273088872432709,0.8754844665527344,-0.08499230444431305
1772615949059503600,1.441503662109375,0.42186838388442993,0.8731461763381958,-0.04847041890025139
1772615949069571600,1.451571533203125,0.4210401475429535,0.8621484041213989,-0.0008211411768570542
1772615949079639600,1.4616396484375,0.43963271379470825,0.830121636390686,0.039880018681287766
1772615949089707500,1.47170751953125,0.47562268376350403,0.7756202816963196,0.07592270523309708
1772615949099775500,1.481775390625,0.5156193971633911,0.7350133657455444,0.09419485181570053
1772615949109843500,1.491843505859375,0.5386706590652466,0.7077354192733765,0.09830410778522491
1772615949119911400,1.501911376953125,0.5228750705718994,0.69710373878479,0.08776082843542099
1772615949129979600,1.511979736328125,0.48935413360595703,0.7086338996887207,0.09329194575548172
1772615949140047600,1.522047607421875,0.45080098509788513,0.7269929051399231,0.12473201006650925
1772615949150115600,1.532115478515625,0.41314759850502014,0.7485458254814148,0.17359569668769836
1772615949160184600,1.5421845703125,0.39371827244758606,0.7726091742515564,0.23218274116516113
1772615949170252500,1.55225244140625,0.3707173466682434,0.7884736061096191,0.2919560670852661
1772615949180320500,1.562320556640625,0.362923800945282,0.7756761312484741,0.35428887605667114
1772615949190388500,1.572388427734375,0.3570142388343811,0.737864077091217,0.397192120552063
1772615949200456700,1.582456787109375,0.3571116328239441,0.7039615511894226,0.40876153111457825
1772615949210524700,1.592524658203125,0.3688521981239319,0.6773371696472168,0.3854798972606659
1772615949220592400,1.60259228515625,0.3846198618412018,0.6451096534729004,0.3232399523258209
1772615949230660400,1.612660400390625,0.40405774116516113,0.628851056098938,0.24808157980442047
1772615949240728600,1.622728515625,0.4099273383617401,0.6344753503799438,0.17357933521270752
1772615949250796500,1.632796630859375,0.3901374042034149,0.64970463514328,0.1079060509800911
1772615949260864500,1.642864501953125,0.34858161211013794,0.6850093007087708,0.05802068114280701
1772615949270932500,1.652932373046875,0.30583733320236206,0.7217276096343994,0.011798860505223274
1772615949281000700,1.663000732421875,0.2853732705116272,0.7477098703384399,-0.026485003530979156
1772615949291069400,1.6730693359375,0.28845030069351196,0.7695962190628052,-0.0754147320985794
1772615949301137400,1.683137451171875,0.31297731399536133,0.7810063362121582,-0.11950463056564331
1772615949311205600,1.69320556640625,0.3434968888759613,0.7833347320556641,-0.15610072016716003
1772615949321273600,1.703273681640625,0.37068769335746765,0.7914973497390747,-0.1942794770002365
1772615949331341600,1.713341552734375,0.38519287109375,0.8124769330024719,-0.22389169037342072
1772615949341409500,1.723409423828125,0.3907066583633423,0.8463693261146545,-0.23644711077213287
1772615949351477500,1.7334775390625,0.393378347158432,0.8760476112365723,-0.24643875658512115
1772615949361545500,1.74354541015625,0.4050249457359314,0.9004520773887634,-0.254515141248703
1772615949371613400,1.753613525390625,0.42052292823791504,0.9387125968933105,-0.26111844182014465
1772615949381681400,1.763681396484375,0.4567071497440338,0.9737811088562012,-0.2587985396385193
1772615949391749600,1.77374951171875,0.49907779693603516,0.9984468221664429,-0.2548117935657501
1772615949401817600,1.783817626953125,0.538178563117981,0.9916154146194458,-0.2614099979400635
1772615949411885600,1.793885498046875,0.5906434059143066,0.9988541603088379,-0.27493566274642944
1772615949421954300,1.803954345703125,0.6440420150756836,0.9949916005134583,-0.2892627716064453
1772615949432022500,1.8140224609375,0.6937113404273987,0.9744402170181274,-0.29673081636428833
1772615949442090500,1.824090576171875,0.7358574271202087,0.95451420545578,-0.28985679149627686
1772615949452158500,1.834158447265625,0.7733600735664368,0.9249869585037231,-0.26791608333587646
1772615949462226400,1.844226318359375,0.8094804286956787,0.8885723352432251,-0.22600068151950836
1772615949472294700,1.854294677734375,0.8373823761940002,0.8462482690811157,-0.16564838588237762
1772615949482362600,1.864362548828125,0.8666792511940002,0.7940720915794373,-0.11551782488822937
1772615949492430300,1.874430419921875,0.8737232685089111,0.7417401671409607,-0.08288265019655228
1772615949502498600,1.88449853515625,0.8516892194747925,0.721406102180481,-0.0538068488240242
1772615949512566500,1.89456640625,0.824890673160553,0.7017415761947632,-0.022367697209119797
1772615949522634500,1.904634521484375,0.7727762460708618,0.6970603466033936,0.020007433369755745
1772615949532702500,1.914702392578125,0.7203953266143799,0.6602679491043091,0.0692916214466095
1772615949542770700,1.924770751953125,0.6480873823165894,0.7033759951591492,0.1529146432876587
1772615949552839400,1.93483935546875,0.5873404145240784,0.7105460166931152,0.2327282577753067
1772615949562907400,1.944907470703125,0.5487508177757263,0.7067762017250061,0.29405710101127625
1772615949572975400,1.954975341796875,0.5277488827705383,0.6934473514556885,0.3360181450843811
1772615949583043600,1.965043701171875,0.5169790387153625,0.6803909540176392,0.3471381664276123
1772615949593111600,1.975111572265625,0.524268388748169,0.6876637935638428,0.3228546679019928
1772615949603179500,1.985179443359375,0.5333217978477478,0.6493045687675476,0.27215901017189026
1772615949613247500,1.99524755859375,0.5272838473320007,0.62141352891922,0.20576775074005127
1772615949623315500,2.0053154296875,0.5068479776382446,0.6056450009346008,0.13157765567302704
1772615949633383400,2.015383544921875,0.46156013011932373,0.5879101753234863,0.055227212607860565
1772615949643451400,2.025451416015625,0.41399750113487244,0.5869948863983154,-0.017919909209012985
1772615949653519400,2.035519287109375,0.36297374963760376,0.5742567181587219,-0.09095949679613113
1772615949663587600,2.045587646484375,0.3316836655139923,0.5596601366996765,-0.15144215524196625
1772615949673655600,2.055655517578125,0.32019373774528503,0.5477840304374695,-0.19596435129642487
1772615949683724300,2.065724365234375,0.3292634189128876,0.5188511610031128,-0.2204960435628891
1772615949693792500,2.07579248046875,0.34515103697776794,0.4768880009651184,-0.22974440455436707
1772615949703860500,2.085860595703125,0.3653545677661896,0.43111398816108704,-0.23291580379009247
1772615949713928400,2.095928466796875,0.3829602003097534,0.39680713415145874,-0.23337361216545105
1772615949723996400,2.105996337890625,0.3942590057849884,0.3700355887413025,-0.2279251366853714
1772615949734064600,2.116064697265625,0.3961240351200104,0.3647393584251404,-0.23483310639858246
1772615949744132600,2.126132568359375,0.381926953792572,0.39894622564315796,-0.2396925538778305
1772615949754200600,2.13620068359375,0.3381328582763672,0.4470439553260803,-0.2245732694864273
1772615949764268300,2.146268310546875,0.2885439991950989,0.4944959580898285,-0.18581651151180267
1772615949774336500,2.15633642578125,0.23299206793308258,0.5264105200767517,-0.12483279407024384
1772615949784404500,2.166404541015625,0.2054433971643448,0.5323778390884399,-0.04171875864267349
1772615949794472700,2.17647265625,0.2032441645860672,0.5069790482521057,0.05306261032819748
1772615949804540700,2.186540771484375,0.2379228174686432,0.4999028742313385,0.11905324459075928
1772615949814609000,2.19660888671875,0.2882501780986786,0.47730007767677307,0.14921753108501434
1772615949824677600,2.206677734375,0.3342606723308563,0.4423440098762512,0.15682491660118103
1772615949834745600,2.21674560546875,0.36839786171913147,0.4182474613189697,0.13980677723884583
1772615949844813800,2.226813720703125,0.381157785654068,0.4022781252861023,0.10855314135551453
1772615949854881800,2.2368818359375,0.3753294348716736,0.38654205203056335,0.06115633621811867
1772615949864949800,2.24694970703125,0.36540302634239197,0.3907604515552521,0.015695199370384216
1772615949875017700,2.257017822265625,0.35444170236587524,0.40749281644821167,-0.02152806892991066
1772615949885085700,2.267085693359375,0.33809420466423035,0.4221857786178589,-0.031881462782621384
1772615949895153700,2.277153564453125,0.32157114148139954,0.41923287510871887,-0.016305167227983475
1772615949905221600,2.2872216796875,0.3123186230659485,0.40855205059051514,0.02121221087872982
1772615949915289600,2.29728955078125,0.314079225063324,0.3828434944152832,0.06782019138336182
1772615949925357800,2.30735791015625,0.32218989729881287,0.34895461797714233,0.11872969567775726
1772615949935425800,2.31742578125,0.32725924253463745,0.32415127754211426,0.16825704276561737
1772615949945494500,2.32749462890625,0.32269352674484253,0.2987271547317505,0.2198033183813095
1772615949955562800,2.337562744140625,0.29262667894363403,0.2817833125591278,0.26537397503852844
1772615949965630700,2.347630615234375,0.23242495954036713,0.2791436016559601,0.29995599389076233
1772615949975698700,2.35769873046875,0.1634560078382492,0.291442334651947,0.33781787753105164
1772615949985766700,2.3677666015625,0.09854790568351746,0.2803075313568115,0.37492895126342773
1772615949995835000,2.3778349609375,0.06979561597108841,0.243345245718956,0.3801804482936859
1772615950005902800,2.38790283203125,0.07693696022033691,0.2044750154018402,0.340777724981308
1772615950015970800,2.397970703125,0.09633063524961472,0.16106869280338287,0.2513434588909149
1772615950026038500,2.40803857421875,0.10096131265163422,0.13700322806835175,0.1341785490512848
1772615950036106800,2.418106689453125,0.07177333533763885,0.1285271793603897,0.0031318478286266327
1772615950046174700,2.4281748046875,0.024930406361818314,0.14079339802265167,-0.13674233853816986
1772615950056242700,2.43824267578125,-0.018455151468515396,0.17246238887310028,-0.27037525177001953
1772615950066310700,2.448310546875,-0.042749159038066864,0.2184976041316986,-0.3909256160259247
1772615950076379000,2.45837890625,-0.052624691277742386,0.26955413818359375,-0.4856734275817871
1772615950086447600,2.468447509765625,-0.035151734948158264,0.31574729084968567,-0.5327274203300476
1772615950096515600,2.478515625,0.0004022651119157672,0.34489959478378296,-0.5297664999961853
1772615950106583800,2.488583740234375,0.053700994700193405,0.35457900166511536,-0.48670101165771484
1772615950116651800,2.49865185546875,0.1221836507320404,0.3545960485935211,-0.4114813506603241
1772615950126719700,2.5087197265625,0.18885459005832672,0.34187614917755127,-0.31050074100494385
1772615950136787700,2.51878759765625,0.25531908869743347,0.325908899307251,-0.19017751514911652
1772615950146856000,2.52885595703125,0.3224266469478607,0.3102710247039795,-0.062336478382349014
1772615950156923600,2.538923583984375,0.37829869985580444,0.3102124333381653,0.05224629491567612
1772615950166991600,2.54899169921875,0.41272982954978943,0.34609565138816833,0.15920086205005646
1772615950177059600,2.5590595703125,0.4163866341114044,0.39291563630104065,0.25492045283317566
1772615950187127800,2.5691279296875,0.38537484407424927,0.4218423068523407,0.3507470190525055
1772615950197195800,2.57919580078125,0.3291192948818207,0.4320898652076721,0.4387490451335907
1772615950207264800,2.5892646484375,0.2824838161468506,0.42978668212890625,0.4913863241672516
1772615950217332500,2.59933251953125,0.257986456155777,0.4103107154369354,0.5186344385147095
1772615950227400700,2.609400634765625,0.2534237205982208,0.373891681432724,0.5064881443977356
1772615950237468700,2.61946875,0.25397685170173645,0.3335655629634857,0.45741087198257446
1772615950247536600,2.62953662109375,0.2514707148075104,0.2980310320854187,0.3856423795223236
1772615950257604600,2.6396044921875,0.22789452970027924,0.26568692922592163,0.29344984889030457
1772615950267672800,2.6496728515625,0.19680799543857574,0.25751248002052307,0.1929674595594406
1772615950277740800,2.65974072265625,0.1457003355026245,0.2723119258880615,0.0958009585738182
1772615950287808800,2.669808837890625,0.08198193460702896,0.28989070653915405,0.0009058814030140638
1772615950297876700,2.679876708984375,0.03709995001554489,0.30449628829956055,-0.08991323411464691
1772615950307944700,2.68994482421875,0.016814883798360825,0.3172443211078644,-0.16988441348075867
1772615950318012700,2.7000126953125,0.016330456361174583,0.31217896938323975,-0.2431999146938324
1772615950328080600,2.71008056640625,0.036140188574790955,0.29434850811958313,-0.30573880672454834
1772615950338148900,2.72014892578125,0.053654998540878296,0.2848176062107086,-0.35126739740371704
1772615950348217600,2.730217529296875,0.07430881261825562,0.2722296416759491,-0.3754040598869324
1772615950358285600,2.74028564453125,0.09736859053373337,0.2590413987636566,-0.3914826214313507
1772615950368353500,2.750353515625,0.11589637398719788,0.2418173849582672,-0.40071535110473633
1772615950378421800,2.760421875,0.13112139701843262,0.2146315723657608,-0.3991968035697937
1772615950388489700,2.77048974609375,0.14405196905136108,0.20605254173278809,-0.38096827268600464
1772615950398557700,2.7805576171875,0.15124890208244324,0.22580920159816742,-0.3530045449733734
1772615950408625700,2.790625732421875,0.14151613414287567,0.27755817770957947,-0.30413320660591125
1772615950418694000,2.80069384765625,0.12249105423688889,0.33795255422592163,-0.2307567298412323
1772615950428761600,2.81076171875,0.10536358505487442,0.3914403021335602,-0.134861558675766
1772615950438829600,2.82082958984375,0.09489230066537857,0.439346045255661,-0.03623298555612564
1772615950448897500,2.8308974609375,0.10795518755912781,0.4736146926879883,0.057792652398347855
1772615950458965800,2.8409658203125,0.13790109753608704,0.4971272051334381,0.13202720880508423
1772615950469033700,2.85103369140625,0.1790994107723236,0.5097628235816956,0.18505233526229858
1772615950479102700,2.861102783203125,0.21903030574321747,0.5089172720909119,0.21652531623840332
1772615950489170700,2.871170654296875,0.26032859086990356,0.49868881702423096,0.22974924743175507
1772615950499238700,2.88123876953125,0.30170878767967224,0.47783148288726807,0.22649513185024261
1772615950509306600,2.891306640625,0.3398813307285309,0.44896459579467773,0.21500875055789948
1772615950519374600,2.90137451171875,0.3737090528011322,0.4031262695789337,0.17913277447223663
1772615950529442800,2.91144287109375,0.4023967385292053,0.3721330761909485,0.13353495299816132
1772615950539510800,2.9215107421875,0.418254554271698,0.34263697266578674,0.07186601310968399
1772615950549578800,2.931578857421875,0.41924211382865906,0.29527121782302856,0.018738985061645508
1772615950559646700,2.941646728515625,0.41530701518058777,0.2732756435871124,-0.029104169458150864
1772615950569714700,2.951714599609375,0.4040979743003845,0.2674662470817566,-0.07791607081890106
1772615950579782700,2.96178271484375,0.4056170582771301,0.25778061151504517,-0.12306196987628937
1772615950589850600,2.9718505859375,0.4128914177417755,0.23998664319515228,-0.16916032135486603
1772615950599918600,2.981918701171875,0.4270285367965698,0.22420714795589447,-0.21265347301959991
1772615950609987800,2.99198779296875,0.4293454587459564,0.21130762994289398,-0.2581420838832855
1772615950620055600,3.0020556640625,0.4174642860889435,0.20334184169769287,-0.2959941327571869
1772615950630123500,3.01212353515625,0.3876490294933319,0.20531071722507477,-0.31395214796066284
1772615950640191700,3.022191650390625,0.34512633085250854,0.22276267409324646,-0.31203362345695496
1772615950650259700,3.032259765625,0.30534619092941284,0.24036069214344025,-0.28743746876716614
1772615950660327700,3.04232763671875,0.28240466117858887,0.26033225655555725,-0.24802188575267792
1772615950670395600,3.052395751953125,0.27316850423812866,0.2849833071231842,-0.20426876842975616
1772615950680464000,3.0624638671875,0.27165770530700684,0.32412219047546387,-0.1526910662651062
1772615950690531800,3.07253173828125,0.2740442752838135,0.35062143206596375,-0.09757319837808609
1772615950700599600,3.082599609375,0.27745792269706726,0.3582402169704437,-0.0413605235517025
1772615950710667500,3.09266748046875,0.2877541780471802,0.35834935307502747,0.0022810413502156734
1772615950720735700,3.10273583984375,0.2930956780910492,0.3513934314250946,0.019391316920518875
1772615950730803700,3.1128037109375,0.2999376356601715,0.34435978531837463,0.004827828612178564
1772615950740872700,3.122872802734375,0.29181739687919617,0.34152936935424805,-0.029030002653598785
1772615950750940700,3.132940673828125,0.26715683937072754,0.3528905212879181,-0.07157627493143082
1772615950761008600,3.143008544921875,0.2384604811668396,0.3769412636756897,-0.11929825693368912
1772615950771076600,3.15307666015625,0.21761316061019897,0.39361539483070374,-0.15916399657726288
1772615950781144600,3.16314453125,0.21811994910240173,0.4164498746395111,-0.17663539946079254
1772615950791212800,3.173212890625,0.22698701918125153,0.4409636855125427,-0.17526082694530487
1772615950801280300,3.1832802734375,0.24384216964244843,0.46505144238471985,-0.1639631688594818
1772615950811348500,3.193348388671875,0.2609326243400574,0.4624735713005066,-0.1452091783285141
1772615950821416400,3.20341650390625,0.2709048390388489,0.45077165961265564,-0.11791123449802399
1772615950831484400,3.213484375,0.26650941371917725,0.4349936842918396,-0.09980175644159317
1772615950841552400,3.223552490234375,0.2590605318546295,0.42994725704193115,-0.07880885154008865
1772615950851620400,3.233620361328125,0.2511136531829834,0.4175337255001068,-0.05622125416994095
1772615950861688300,3.243688232421875,0.2420160472393036,0.39132583141326904,-0.019628621637821198
1772615950871757300,3.25375732421875,0.24417002499103546,0.39866000413894653,0.014666753821074963
1772615950881825500,3.263825439453125,0.23439915478229523,0.3798479735851288,0.055622708052396774
1772615950891893500,3.2738935546875,0.2218542844057083,0.35059595108032227,0.08910886943340302
1772615950901961200,3.283961181640625,0.21273721754550934,0.3212401866912842,0.12603093683719635
1772615950912029200,3.294029296875,0.2011147290468216,0.2942955493927002,0.15757161378860474
1772615950922097400,3.304097412109375,0.17872393131256104,0.28273847699165344,0.1870165914297104
1772615950932165400,3.314165283203125,0.14179106056690216,0.2787018418312073,0.21542808413505554
1772615950942233300,3.3242333984375,0.09718044847249985,0.27982568740844727,0.24029295146465302
1772615950952301300,3.33430126953125,0.05227941274642944,0.26826924085617065,0.24643740057945251
1772615950962369500,3.34436962890625,0.02167969010770321,0.22660143673419952,0.22331610321998596
1772615950972437500,3.3544375,0.02173370122909546,0.17856863141059875,0.16340623795986176
1772615950982505200,3.364505126953125,0.033801283687353134,0.13984014093875885,0.07628918439149857
1772615950992573200,3.3745732421875,0.044059716165065765,0.10647570341825485,-0.039311304688453674
1772615951002642400,3.384642333984375,0.04295210912823677,0.0910368263721466,-0.15666882693767548
1772615951012710400,3.39471044921875,0.031640078872442245,0.09712492674589157,-0.2661636471748352
1772615951022778400,3.4047783203125,0.015548194758594036,0.12475282698869705,-0.34550589323043823
1772615951032846300,3.414846435546875,-0.008261559531092644,0.1775851845741272,-0.3686777353286743
1772615951042914300,3.424914306640625,-0.03846234083175659,0.2426009327173233,-0.3365887999534607
1772615951052982300,3.434982177734375,-0.07358840852975845,0.30865880846977234,-0.2362913340330124
1772615951063050200,3.44505029296875,-0.11148811876773834,0.36133667826652527,-0.08362776041030884
1772615951073118500,3.455118408203125,-0.1290990561246872,0.3819599151611328,0.10736527293920517
1772615951083186400,3.4651865234375,-0.09958935528993607,0.3394726514816284,0.28288620710372925
1772615951093254400,3.47525439453125,-0.04172562062740326,0.3104567229747772,0.4102206826210022
1772615951103322400,3.485322265625,0.024921050295233727,0.2904246747493744,0.5003063678741455
1772615951113390300,3.495390380859375,0.08490893989801407,0.26977911591529846,0.5527582764625549
1772615951123458300,3.505458251953125,0.12840023636817932,0.22920987010002136,0.563959002494812
1772615951133527300,3.51552734375,0.1569536179304123,0.18648970127105713,0.538589596748352
1772615951143595500,3.525595458984375,0.19282826781272888,0.1347615271806717,0.4782961905002594
1772615951153663500,3.53566357421875,0.2228751927614212,0.07744842022657394,0.37107935547828674
1772615951163731500,3.5457314453125,0.23126600682735443,0.04094021022319794,0.23416197299957275
1772615951173799200,3.555799072265625,0.21784760057926178,0.032353661954402924,0.0677957534790039
1772615951183867400,3.565867431640625,0.1781819462776184,0.04899894818663597,-0.09146954119205475
1772615951193935400,3.575935302734375,0.11385340988636017,0.08823142945766449,-0.23025640845298767
1772615951204003300,3.58600341796875,0.0414242185652256,0.16077247262001038,-0.3436596691608429
1772615951214071300,3.5960712890625,-0.024051707237958908,0.24745666980743408,-0.4084177017211914
1772615951224139500,3.606139404296875,-0.07443339377641678,0.32630810141563416,-0.424291729927063
1772615951234207500,3.61620751953125,-0.11519256979227066,0.38557085394859314,-0.38233861327171326
1772615951244275500,3.626275390625,-0.13750852644443512,0.4131918251514435,-0.3044930696487427
1772615951254343200,3.63634326171875,-0.12183806300163269,0.4087259769439697,-0.21991005539894104
1772615951264412400,3.646412353515625,-0.07027047127485275,0.3897738456726074,-0.13493604958057404
1772615951274480400,3.65648046875,0.003070477396249771,0.3294149339199066,-0.05171362683176994
1772615951284548400,3.66654833984375,0.09233617782592773,0.2397790551185608,0.01690644770860672
1772615951294616600,3.676616455078125,0.19455400109291077,0.1807340830564499,0.07854187488555908
1772615951304684300,3.686684326171875,0.2738879919052124,0.11420006304979324,0.12553255259990692
1772615951314752300,3.696752197265625,0.32007038593292236,0.0736403837800026,0.1466333121061325
1772615951324820200,3.7068203125,0.33781954646110535,0.057275786995887756,0.1531388908624649
1772615951334888400,3.716888427734375,0.33555933833122253,0.05748187005519867,0.14924795925617218
1772615951344956400,3.726956298828125,0.3351294994354248,0.05966699495911598,0.13156937062740326
1772615951355024400,3.7370244140625,0.32551148533821106,0.07849384099245071,0.10347010940313339
1772615951365092400,3.74709228515625,0.3132825195789337,0.09896502643823624,0.07672984153032303
1772615951375160600,3.75716064453125,0.2918797731399536,0.12597405910491943,0.06490454822778702
1772615951385228300,3.767228271484375,0.26108962297439575,0.1434960663318634,0.07508368045091629
1772615951395297300,3.77729736328125,0.2182321697473526,0.17067851126194,0.10154279321432114
1772615951405365200,3.787365234375,0.1673564612865448,0.19267623126506805,0.13508237898349762
1772615951415433500,3.79743359375,0.13060899078845978,0.20050157606601715,0.14779071509838104
1772615951425501400,3.80750146484375,0.12098538130521774,0.19023430347442627,0.1372493952512741
1772615951435569400,3.8175693359375,0.13830743730068207,0.1650000363588333,0.10329609364271164
1772615951445637000,3.82763720703125,0.16093125939369202,0.1432204246520996,0.04023457318544388
1772615951455705300,3.837705322265625,0.19099478423595428,0.11757471412420273,-0.024018777534365654
1772615951465773300,3.847773193359375,0.2094302475452423,0.08680907636880875,-0.08925344049930573
1772615951475841300,3.85784130859375,0.21049857139587402,0.05246118828654289,-0.14705786108970642
1772615951485909200,3.8679091796875,0.19698621332645416,0.03752777725458145,-0.19661369919776917
1772615951495977500,3.8779775390625,0.1726297289133072,0.03565029427409172,-0.24450981616973877
1772615951506045400,3.88804541015625,0.14494244754314423,0.01639324612915516,-0.2762488126754761
1772615951516114200,3.8981142578125,0.11977364122867584,0.012511170469224453,-0.30186140537261963
1772615951526182400,3.908182373046875,0.09469465166330338,0.012353245168924332,-0.31567949056625366
1772615951536250400,3.91825048828125,0.07603773474693298,-0.0024517241399735212,-0.32494062185287476
1772615951546318300,3.928318359375,0.05749068409204483,-0.011635102331638336,-0.30795231461524963
1772615951556386300,3.93838623046875,0.03390470892190933,-0.0315266028046608,-0.2843407988548279
1772615951566454500,3.94845458984375,0.009238773956894875,-0.04722993075847626,-0.25748521089553833
1772615951576522200,3.958522216796875,-0.01538730040192604,-0.05738355219364166,-0.23279540240764618
1772615951586590200,3.968590087890625,-0.03139263018965721,-0.06262705475091934,-0.21937678754329681
1772615951596658200,3.978658203125,-0.03964954614639282,-0.059295035898685455,-0.21035604178905487
1772615951606726400,3.988726318359375,-0.050195664167404175,-0.0556076243519783,-0.20311996340751648
1772615951616794400,3.99879443359375,-0.07031434029340744,-0.0494999885559082,-0.19065459072589874
1772615951626862300,4.0088623046875,-0.09180951118469238,-0.049632612615823746,-0.18510909378528595
1772615951636930300,4.018930419921875,-0.10132142156362534,-0.05529288947582245,-0.18511995673179626
1772615951646999300,4.028999267578125,-0.10679607838392258,-0.06120217964053154,-0.2027389109134674
1772615951657067300,4.0390673828125,-0.09882570803165436,-0.05430300533771515,-0.21273918449878693
1772615951667135200,4.04913525390625,-0.08576875925064087,-0.052763432264328,-0.21985621750354767
1772615951677203500,4.059203369140625,-0.06734101474285126,-0.05414774268865585,-0.2100515216588974
1772615951687271400,4.069271484375,-0.05059186741709709,-0.05526254326105118,-0.19471491873264313
1772615951697339400,4.07933935546875,-0.023742519319057465,-0.06008868291974068,-0.15961074829101562
1772615951707407400,4.089407470703125,-0.004659372381865978,-0.0760149136185646,-0.11522277444601059
1772615951717475300,4.099475341796875,0.009613074362277985,-0.09004656225442886,-0.06590351462364197
1772615951727543300,4.109543212890625,0.026693256571888924,-0.09454543888568878,-0.007119028829038143
1772615951737611300,4.119611328125,0.04353122040629387,-0.10601559281349182,0.052193038165569305
1772615951747679200,4.12967919921875,0.056557007133960724,-0.10858501493930817,0.1065651997923851
1772615951757747500,4.13974755859375,0.06465045362710953,-0.10856007784605026,0.1600189208984375
1772615951767815400,4.1498154296875,0.06431064009666443,-0.11661400645971298,0.2042931616306305
1772615951777884200,4.15988427734375,0.05900871381163597,-0.13138701021671295,0.23755145072937012
1772615951787952400,4.169952392578125,0.05027167871594429,-0.145394966006279,0.2478264421224594
1772615951798020400,4.180020263671875,0.031015044078230858,-0.1477370709180832,0.24792467057704926
1772615951808088600,4.190088623046875,0.02021006867289543,-0.14646273851394653,0.24729403853416443
1772615951818156500,4.200156494140625,-0.00722341425716877,-0.13189029693603516,0.23457160592079163
1772615951828224500,4.210224609375,-0.0471884086728096,-0.11826370656490326,0.22035032510757446
1772615951838292500,4.22029248046875,-0.07478731870651245,-0.14043070375919342,0.21648429334163666
1772615951848360400,4.2303603515625,-0.07745953649282455,-0.18651697039604187,0.19879770278930664
1772615951858428400,4.240428466796875,-0.05553681030869484,-0.21820634603500366,0.16521741449832916
1772615951868496400,4.250496337890625,-0.02941652573645115,-0.24850992858409882,0.10871605575084686
1772615951878564400,4.260564453125,-0.02252849191427231,-0.2874884605407715,0.044976405799388885
1772615951888632600,4.270632568359375,-0.026856128126382828,-0.3035598397254944,-0.03263343498110771
1772615951898700500,4.280700439453125,-0.04677056521177292,-0.28840577602386475,-0.11477841436862946
1772615951908769300,4.290769287109375,-0.07792261987924576,-0.254395067691803,-0.1962173581123352
1772615951918837500,4.30083740234375,-0.12637273967266083,-0.18382903933525085,-0.25698742270469666
1772615951928905500,4.310905517578125,-0.1828509271144867,-0.07929677516222,-0.2879410684108734
1772615951938973400,4.320973388671875,-0.23909179866313934,0.03562396764755249,-0.2869781255722046
1772615951949041400,4.33104150390625,-0.26265811920166016,0.12440736591815948,-0.23421773314476013
1772615951959109600,4.341109619140625,-0.25406816601753235,0.18426862359046936,-0.1400498002767563
1772615951969177600,4.351177490234375,-0.21214069426059723,0.21815522015094757,-0.02321186102926731
1772615951979245300,4.361245361328125,-0.14688371121883392,0.21578703820705414,0.09266801178455353
1772615951989313300,4.371313232421875,-0.0669446736574173,0.17446038126945496,0.22077591717243195
1772615951999381500,4.381381591796875,0.01765839383006096,0.11122950911521912,0.3303806185722351
1772615952009449500,4.391449462890625,0.09207669645547867,0.04889502376317978,0.4255574643611908
1772615952019517400,4.401517333984375,0.15415354073047638,-0.0006304096896201372,0.49283263087272644
1772615952029585400,4.41158544921875,0.20359167456626892,-0.0278985146433115,0.5433977842330933
1772615952039654400,4.421654296875,0.24295423924922943,-0.02752951718866825,0.5621815919876099
1772615952049722400,4.431722412109375,0.2532210052013397,-0.02059038355946541,0.555594801902771
1772615952059790300,4.441790283203125,0.2392788678407669,-0.03427105396986008,0.5365808010101318
1772615952069858600,4.451858642578125,0.2361307442188263,-0.04008340835571289,0.49554651975631714
1772615952079926500,4.461926513671875,0.23044537007808685,-0.05153711512684822,0.4427982270717621
1772615952089994500,4.471994384765625,0.2329878956079483,-0.07778310030698776,0.3742026686668396
1772615952100062500,4.4820625,0.23641061782836914,-0.10727892071008682,0.3138795495033264
1772615952110130400,4.49213037109375,0.23198604583740234,-0.13503678143024445,0.26227229833602905
1772615952120198400,4.502198486328125,0.2064327597618103,-0.17173072695732117,0.225898876786232
1772615952130266400,4.512266357421875,0.17170514166355133,-0.14770954847335815,0.21982046961784363
1772615952140334300,4.522334228515625,0.09177929162979126,-0.13766607642173767,0.22136905789375305
1772615952150402600,4.532402587890625,-0.0127433892339468,-0.10537151992321014,0.22138823568820953
1772615952160470500,4.542470458984375,-0.10641709715127945,-0.03856652230024338,0.2031036615371704
1772615952170539300,4.552539306640625,-0.1615932732820511,0.01803417131304741,0.12806403636932373
1772615952180607500,4.562607421875,-0.1676035374403,0.043416090309619904,0.046932805329561234
1772615952190675500,4.572675537109375,-0.13319389522075653,0.020124882459640503,-0.021961038932204247
1772615952200743400,4.582743408203125,-0.08324815332889557,-0.01636594906449318,-0.09179263561964035
1772615952210811400,4.592811279296875,-0.03745004162192345,-0.02786414697766304,-0.17196124792099
1772615952220879600,4.602879638671875,-0.02143583633005619,-0.008196013048291206,-0.24741199612617493
1772615952230947600,4.612947509765625,-0.022428130730986595,0.028939105570316315,-0.2993881106376648
1772615952241015600,4.623015625,-0.040027324110269547,0.06561820954084396,-0.31849104166030884
1772615952251083300,4.633083251953125,-0.06141277402639389,0.09427275508642197,-0.30746182799339294
1772615952261151500,4.6431513671875,-0.06740174442529678,0.12363135069608688,-0.28178638219833374
1772615952271219500,4.653219482421875,-0.04742617905139923,0.15045738220214844,-0.23466601967811584
1772615952281287400,4.663287353515625,-0.018861785531044006,0.1577979326248169,-0.1818014681339264
1772615952291356700,4.673356689453125,0.01884431391954422,0.16486676037311554,-0.1255621612071991
1772615952301424400,4.68342431640625,0.03684968128800392,0.180000439286232,-0.07083845883607864
1772615952311492400,4.693492431640625,0.03864065557718277,0.2158316671848297,-0.017132092267274857
1772615952321560300,4.703560302734375,0.0507010743021965,0.19422709941864014,0.026630248874425888
1772615952331628500,4.713628662109375,0.05593445152044296,0.20966145396232605,0.08076858520507812
1772615952341696500,4.723696533203125,0.07273049652576447,0.21518518030643463,0.11551292985677719
1772615952351764500,4.733764404296875,0.10235683619976044,0.22271820902824402,0.13581208884716034
1772615952361832400,4.74383251953125,0.13741017878055573,0.21863755583763123,0.14204439520835876
1772615952371900700,4.753900634765625,0.1749735325574875,0.221342533826828,0.12969079613685608
1772615952381968400,4.763968505859375,0.21564877033233643,0.2075790911912918,0.10111536830663681
1772615952392036400,4.774036376953125,0.24805891513824463,0.18651747703552246,0.06587375700473785
1772615952402104300,4.784104248046875,0.28489112854003906,0.16003301739692688,0.02392466925084591
1772615952412172500,4.794172607421875,0.3223556876182556,0.12764312326908112,-0.035007357597351074
1772615952422241500,4.804241455078125,0.35857731103897095,0.10248801112174988,-0.10689083486795425
1772615952432309500,4.8143095703125,0.38495829701423645,0.08795540779829025,-0.18362821638584137
1772615952442377500,4.82437744140625,0.39922034740448,0.08133159577846527,-0.254763662815094
1772615952452445400,4.834445556640625,0.4074881076812744,0.08335000276565552,-0.311551034450531
1772615952462513400,4.844513427734375,0.4070189893245697,0.1044752299785614,-0.33680203557014465
1772615952472581400,4.854581298828125,0.3932568430900574,0.12840132415294647,-0.3303782343864441
1772615952482649600,4.864649658203125,0.378676176071167,0.14927709102630615,-0.2921818792819977
1772615952492717600,4.874717529296875,0.3710648715496063,0.1699453443288803,-0.24259565770626068
1772615952502785500,4.88478564453125,0.37696149945259094,0.19269095361232758,-0.1837427318096161
1772615952512853500,4.894853515625,0.38749563694000244,0.208577498793602,-0.12331028282642365
1772615952522921500,4.90492138671875,0.3924466371536255,0.21277561783790588,-0.07278145104646683
1772615952532989400,4.914989501953125,0.3981708288192749,0.21065254509449005,-0.03147689253091812
1772615952543058400,4.925058349609375,0.38981759548187256,0.21219342947006226,0.0008995616808533669
1772615952553126700,4.935126708984375,0.3873600363731384,0.21819698810577393,0.01774698495864868
1772615952563194600,4.945194580078125,0.37144702672958374,0.2330852746963501,0.028093066066503525
1772615952573262300,4.955262451171875,0.3507143259048462,0.24731694161891937,0.025584368035197258
1772615952583330300,4.965330322265625,0.33936452865600586,0.25396087765693665,0.0142021793872118
1772615952593398500,4.9753984375,0.31972503662109375,0.26356449723243713,-0.0028058323077857494
1772615952603466500,4.985466552734375,0.30006614327430725,0.27273979783058167,-0.02171301282942295
1772615952613534500,4.995534423828125,0.27628597617149353,0.27990663051605225,-0.03213422745466232
1772615952623602400,5.0056025390625,0.24865539371967316,0.27845728397369385,-0.034738216549158096
1772615952633670700,5.015670654296875,0.21749508380889893,0.27343884110450745,-0.034360844641923904
1772615952643738600,5.025738525390625,0.19588148593902588,0.2697446346282959,-0.029352694749832153
1772615952653806300,5.035806396484375,0.18058374524116516,0.25813165307044983,-0.01820683293044567
1772615952663874300,5.045874267578125,0.16704024374485016,0.24271513521671295,-0.009407749399542809
1772615952673942500,5.055942626953125,0.14480072259902954,0.23904716968536377,-0.0023437149357050657
1772615952684011500,5.066011474609375,0.12063246220350266,0.24115513265132904,0.00976929534226656
1772615952694079500,5.07607958984375,0.09527730941772461,0.24594110250473022,0.021258970722556114
1772615952704147500,5.0861474609375,0.07897532731294632,0.2507036328315735,0.04002085328102112
1772615952714215400,5.09621533203125,0.0786094143986702,0.2457701414823532,0.05223490670323372
1772615952724283400,5.106283447265625,0.0835854560136795,0.24457710981369019,0.06019125506281853
1772615952734351400,5.116351318359375,0.07999551296234131,0.24318453669548035,0.0682864710688591
1772615952744419600,5.126419677734375,0.06798592954874039,0.23872284591197968,0.07970624417066574
1772615952754487600,5.136487548828125,0.059656091034412384,0.23707622289657593,0.09159699082374573
1772615952764555500,5.146555419921875,0.05738154798746109,0.23792986571788788,0.10243698209524155
1772615952774623500,5.15662353515625,0.05393541604280472,0.24879050254821777,0.11983887851238251
1772615952784691500,5.16669140625,0.04550272971391678,0.25435397028923035,0.14352327585220337
1772615952794759400,5.176759521484375,0.030562132596969604,0.24051512777805328,0.17376373708248138
1772615952804828400,5.186828369140625,0.029398787766695023,0.21655605733394623,0.19569341838359833
1772615952814896600,5.196896728515625,0.027604350820183754,0.19312715530395508,0.19232717156410217
1772615952824964600,5.206964599609375,0.03109295852482319,0.16935868561267853,0.15686269104480743
1772615952835032600,5.217032470703125,0.027208736166357994,0.15325428545475006,0.10747729986906052
1772615952845100300,5.227100341796875,0.019288377836346626,0.16042019426822662,0.054350920021533966
1772615952855168500,5.23716845703125,0.007017065770924091,0.16724321246147156,0.0135856494307518
1772615952865236500,5.247236572265625,-0.008818181231617928,0.18008838593959808,-0.004141511395573616
1772615952875304400,5.257304443359375,-0.041533250361680984,0.1988181173801422,0.0038580922409892082
1772615952885372400,5.267372314453125,-0.08971980214118958,0.2285924106836319,0.03960698843002319
1772615952895440600,5.277440673828125,-0.1423846185207367,0.24527978897094727,0.10190258920192719
1772615952905508600,5.287508544921875,-0.17672881484031677,0.23812584578990936,0.17092472314834595
1772615952915576600,5.29757666015625,-0.18031582236289978,0.22316819429397583,0.22400419414043427
1772615952925644300,5.307644287109375,-0.1528385877609253,0.20430758595466614,0.2516995370388031
1772615952935713500,5.317713623046875,-0.10787191241979599,0.17990078032016754,0.26212847232818604
1772615952945781500,5.327781494140625,-0.0693221315741539,0.15468573570251465,0.26042062044143677
1772615952955849500,5.337849365234375,-0.043952327221632004,0.13151037693023682,0.23856033384799957
1772615952965917400,5.34791748046875,-0.032033730298280716,0.11450358480215073,0.19730287790298462
1772615952975985400,5.3579853515625,-0.020815430209040642,0.10647948086261749,0.13784247636795044
1772615952986053400,5.368053466796875,-0.01483775395900011,0.10653217881917953,0.07236367464065552
1772615952996121300,5.378121337890625,-0.0026346170343458652,0.11529317498207092,0.005370528437197208
1772615953006189600,5.388189453125,0.0032225779723376036,0.13610568642616272,-0.06238126754760742
1772615953016257500,5.398257568359375,0.0013972471933811903,0.1546918898820877,-0.11386523395776749
1772615953026325500,5.408325439453125,0.004544567316770554,0.1794458031654358,-0.14207425713539124
1772615953036393500,5.4183935546875,0.01420784741640091,0.19245454668998718,-0.15025177597999573
1772615953046461700,5.428461669921875,0.035910941660404205,0.19795259833335876,-0.14694207906723022
1772615953056529400,5.438529296875,0.06415057182312012,0.20256838202476501,-0.13508674502372742
1772615953066598400,5.448598388671875,0.09062818437814713,0.19152428209781647,-0.1135091632604599
1772615953076666400,5.458666259765625,0.1145034208893776,0.18010491132736206,-0.09395942836999893
1772615953086734600,5.468734619140625,0.12748052179813385,0.17129051685333252,-0.07716164737939835
1772615953096802600,5.478802490234375,0.13244278728961945,0.17194165289402008,-0.06026575341820717
1772615953106870500,5.48887060546875,0.13528192043304443,0.18067102134227753,-0.05158662050962448
1772615953116938200,5.498938232421875,0.14586985111236572,0.18625514209270477,-0.03004324436187744
1772615953127006500,5.50900634765625,0.15548916161060333,0.1885199397802353,-0.004359416663646698
1772615953137074400,5.519074462890625,0.16945025324821472,0.1948779821395874,0.02097310498356819
1772615953147142400,5.529142333984375,0.17632019519805908,0.20071715116500854,0.02483541890978813
1772615953157210400,5.53921044921875,0.17261333763599396,0.20707570016384125,0.021186355501413345
1772615953167278600,5.549278564453125,0.1724722981452942,0.19884467124938965,-0.0002930448390543461
1772615953177346600,5.5593466796875,0.16965307295322418,0.1993304342031479,-0.02582130767405033
1772615953187414500,5.56941455078125,0.16448627412319183,0.19763879477977753,-0.06718605756759644
1772615953197483500,5.5794833984375,0.1636742651462555,0.19217026233673096,-0.11654189229011536
1772615953207551500,5.589551513671875,0.17095474898815155,0.19096626341342926,-0.17917531728744507
1772615953217619500,5.599619384765625,0.19998213648796082,0.18995507061481476,-0.2537558078765869
1772615953227687400,5.6096875,0.23233090341091156,0.17649990320205688,-0.32635733485221863
1772615953237755600,5.619755615234375,0.2637532651424408,0.1769734025001526,-0.3779992163181305
1772615953247823400,5.6298232421875,0.2760760188102722,0.17741608619689941,-0.415413498878479
1772615953257891300,5.639891357421875,0.2745228409767151,0.18932893872261047,-0.4391308128833771
1772615953267959300,5.649959228515625,0.2625771462917328,0.21987885236740112,-0.41902294754981995
1772615953278027500,5.660027587890625,0.23986731469631195,0.2615429162979126,-0.38437095284461975
1772615953288095500,5.670095458984375,0.21315498650074005,0.3179706633090973,-0.3189224302768707
1772615953298163500,5.68016357421875,0.1911066770553589,0.3620435893535614,-0.22543266415596008
1772615953308231400,5.6902314453125,0.17137278616428375,0.3833456337451935,-0.10462157428264618
1772615953318300400,5.700300537109375,0.16426534950733185,0.38854917883872986,0.014915211126208305
1772615953328369400,5.710369384765625,0.18671360611915588,0.3858604431152344,0.08761003613471985
1772615953338437600,5.720437744140625,0.2336941659450531,0.3760741353034973,0.12051020562648773
1772615953348505600,5.730505615234375,0.29468387365341187,0.35968005657196045,0.10535788536071777
1772615953358573300,5.7405732421875,0.3498097062110901,0.3409585952758789,0.06753034889698029
1772615953368641300,5.750641357421875,0.3879562020301819,0.3188086450099945,0.013424691744148731
1772615953378709500,5.76070947265625,0.4010094106197357,0.30494424700737,-0.050788648426532745
1772615953388777500,5.770777587890625,0.3964049220085144,0.3143512010574341,-0.12322425097227097
1772615953398845400,5.780845458984375,0.37047693133354187,0.33704614639282227,-0.18600349128246307
1772615953408913400,5.790913330078125,0.332986056804657,0.3657510578632355,-0.23543129861354828
1772615953418981600,5.800981689453125,0.30678802728652954,0.38687074184417725,-0.2668784558773041
1772615953429049600,5.811049560546875,0.30184653401374817,0.4023168087005615,-0.2846984565258026
1772615953439118300,5.821118408203125,0.3000037670135498,0.4123397767543793,-0.2827892303466797
1772615953449186600,5.8311865234375,0.30581676959991455,0.4178272783756256,-0.258288711309433
1772615953459254500,5.841254638671875,0.30715635418891907,0.41720008850097656,-0.22255069017410278
1772615953469322500,5.851322509765625,0.30171364545822144,0.4126501679420471,-0.1749953329563141
1772615953479390500,5.861390380859375,0.28563132882118225,0.3979950547218323,-0.11570246517658234
1772615953489458700,5.871458740234375,0.26040327548980713,0.38620054721832275,-0.056463778018951416
1772615953499526400,5.8815263671875,0.22614116966724396,0.3868306279182434,0.001695397775620222
1772615953509594400,5.891594482421875,0.18448516726493835,0.40440115332603455,0.06695572286844254
1772615953519662300,5.901662353515625,0.1422402411699295,0.4170415997505188,0.13384154438972473
1772615953529730600,5.91173046875,0.110562264919281,0.41149672865867615,0.18985140323638916
1772615953539798500,5.921798583984375,0.08949612826108932,0.4004390239715576,0.21709714829921722
1772615953549866500,5.931866455078125,0.0803685188293457,0.39277589321136475,0.21048589050769806
1772615953559934500,5.9419345703125,0.09222225099802017,0.3898929953575134,0.18664154410362244
1772615953570003500,5.95200341796875,0.10714036971330643,0.37312909960746765,0.15785646438598633
1772615953580071400,5.962071533203125,0.12364743649959564,0.350058913230896,0.11431510746479034
1772615953590139400,5.972139404296875,0.14841532707214355,0.3315281271934509,0.08439648151397705
1772615953600207600,5.98220751953125,0.1746802181005478,0.32025283575057983,0.07215872406959534
1772615953610275600,5.992275634765625,0.1924053579568863,0.33278167247772217,0.06493231654167175
1772615953620343600,6.002343505859375,0.1934509128332138,0.3474873900413513,0.040216319262981415
1772615953630411300,6.012411376953125,0.19259464740753174,0.3645390570163727,0.018177982419729233
1772615953640479500,6.0224794921875,0.1912902295589447,0.3864233195781708,0.0012511967215687037
1772615953650547500,6.03254736328125,0.19317923486232758,0.4280073642730713,-0.020418958738446236
1772615953660615400,6.042615478515625,0.1940804421901703,0.46694278717041016,-0.03675612062215805
1772615953670683400,6.052683349609375,0.20344100892543793,0.49253496527671814,-0.045123182237148285
1772615953680751600,6.062751708984375,0.223143070936203,0.5260375142097473,-0.02909254841506481
1772615953690820400,6.0728203125,0.24971413612365723,0.5573230385780334,0.0014232227113097906
1772615953700888300,6.082888427734375,0.28157326579093933,0.5789995789527893,0.04599655047059059
1772615953710956500,6.09295654296875,0.315013587474823,0.596147894859314,0.10728561878204346
1772615953721024500,6.1030244140625,0.33982571959495544,0.6067672371864319,0.17514990270137787
1772615953731092500,6.113092529296875,0.3715693950653076,0.5962214469909668,0.23262810707092285
1772615953741160400,6.123160400390625,0.4175136983394623,0.5608032941818237,0.2774038314819336
1772615953751228700,6.133228759765625,0.4734293222427368,0.5157718062400818,0.2881664037704468
1772615953761296400,6.14329638671875,0.5136236548423767,0.48573267459869385,0.24709941446781158
1772615953771364400,6.1533642578125,0.5288636684417725,0.4699113667011261,0.16989390552043915
1772615953781432300,6.163432373046875,0.5104683637619019,0.46052104234695435,0.06953879445791245
1772615953791500500,6.17350048828125,0.48419833183288574,0.4684857130050659,-0.022280078381299973
1772615953801569000,6.183569091796875,0.46595194935798645,0.4983016550540924,-0.10358558595180511
1772615953811637000,6.193636962890625,0.4467999041080475,0.5504469275474548,-0.15245173871517181
1772615953821706000,6.2037060546875,0.42475318908691406,0.5925996899604797,-0.17042702436447144
1772615953831774000,6.21377392578125,0.42170658707618713,0.6258612871170044,-0.14767765998840332
1772615953841842000,6.223842041015625,0.43232595920562744,0.6338486671447754,-0.09614710509777069
1772615953851910100,6.23391015625,0.4563354253768921,0.6376226544380188,-0.0291910283267498
1772615953861978000,6.24397802734375,0.4808216094970703,0.635584831237793,0.04885690286755562
1772615953872046000,6.254046142578125,0.5006829500198364,0.6307353377342224,0.1409730464220047
1772615953882114000,6.264114013671875,0.5121129751205444,0.6273967623710632,0.22967283427715302
1772615953892182000,6.27418212890625,0.5195032358169556,0.6216281056404114,0.32217124104499817
1772615953902250000,6.28425,0.5261486172676086,0.6197308301925659,0.3979876935482025
1772615953912318000,6.29431787109375,0.5355528593063354,0.6245908737182617,0.44378742575645447
1772615953922386000,6.304385986328125,0.5486862659454346,0.6180166006088257,0.45513197779655457
1772615953932454100,6.3144541015625,0.5448912978172302,0.616783082485199,0.44398680329322815
1772615953942523000,6.32452294921875,0.5061420798301697,0.6190033555030823,0.419265478849411
1772615953952590800,6.3345908203125,0.4470546841621399,0.6000036597251892,0.3774425685405731
1772615953962659000,6.3446591796875,0.3892504870891571,0.5726849436759949,0.32228636741638184
1772615953972727000,6.35472705078125,0.3381648659706116,0.560370147228241,0.26369279623031616
1772615953982795000,6.364794921875,0.29476359486579895,0.5610196590423584,0.19452890753746033
1772615953992863000,6.374863037109375,0.24826286733150482,0.5675697922706604,0.13347019255161285
1772615954002931200,6.38493115234375,0.1931796371936798,0.5823439955711365,0.08491143584251404
1772615954012999200,6.394999267578125,0.14562878012657166,0.5975338220596313,0.047971460968256
1772615954023067000,6.40506689453125,0.1057218536734581,0.6052889227867126,0.028276318684220314
1772615954033134800,6.415134765625,0.0864310935139656,0.6235980987548828,0.010059010237455368
1772615954043203000,6.425203125,0.07973324507474899,0.6412947773933411,-0.014047124423086643
1772615954053271000,6.43527099609375,0.07407563924789429,0.6574528217315674,-0.046679913997650146
1772615954063339000,6.445339111328125,0.07401411980390549,0.6635091304779053,-0.0732143223285675
1772615954073408000,6.455407958984375,0.0848732739686966,0.6522392630577087,-0.08936315774917603
1772615954083476000,6.46547607421875,0.11194644123315811,0.6396827101707458,-0.10437406599521637
1772615954093544000,6.4755439453125,0.15644603967666626,0.6290236115455627,-0.12408658117055893
1772615954103612000,6.48561181640625,0.20831722021102905,0.6203672885894775,-0.1421571969985962
1772615954113680100,6.49568017578125,0.2701861262321472,0.6151115298271179,-0.16485333442687988
1772615954123748000,6.505748046875,0.32967209815979004,0.607338547706604,-0.19165273010730743
1772615954133816000,6.515816162109375,0.38271698355674744,0.6123983860015869,-0.2233055830001831
1772615954143884000,6.525884033203125,0.4340347647666931,0.6264878511428833,-0.26087695360183716
1772615954153952000,6.535951904296875,0.4886336922645569,0.6484438180923462,-0.3011995851993561
1772615954164020000,6.54602001953125,0.5471281409263611,0.673331618309021,-0.34828799962997437
1772615954174088000,6.556087890625,0.5947223901748657,0.7181846499443054,-0.382907897233963
1772615954184156000,6.566156005859375,0.6249423623085022,0.7729640007019043,-0.3965752422809601
1772615954194225200,6.57622509765625,0.6443145275115967,0.8280415534973145,-0.3950984477996826
1772615954204293000,6.586293212890625,0.6674782037734985,0.8934402465820312,-0.3732711970806122
1772615954214360800,6.59636083984375,0.6972078680992126,0.9770150780677795,-0.3444574177265167
1772615954224428800,6.6064287109375,0.7244125604629517,1.073080062866211,-0.3031509816646576
1772615954234497000,6.6164970703125,0.7498232126235962,1.1655364036560059,-0.23841972649097443
1772615954244565000,6.62656494140625,0.7715215682983398,1.2371562719345093,-0.1607598066329956
1772615954254633000,6.636633056640625,0.8093822598457336,1.2883975505828857,-0.08713813871145248
1772615954264701200,6.646701171875,0.8856956958770752,1.358798861503601,-0.030548635870218277
1772615954274769200,6.65676904296875,0.933753252029419,1.3577232360839844,0.00886017270386219
1772615954284837000,6.666837158203125,1.0188201665878296,1.3393665552139282,0.04785337671637535
1772615954294904800,6.67690478515625,1.0985615253448486,1.3434175252914429,0.08797313272953033
1772615954304973000,6.68697314453125,1.1591836214065552,1.3250880241394043,0.0966704860329628
1772615954315041000,6.697041015625,1.2114120721817017,1.2993296384811401,0.0945621132850647
1772615954325110000,6.707110107421875,1.2594536542892456,1.2613362073898315,0.07997438311576843
1772615954335178000,6.717177978515625,1.2827831506729126,1.2273228168487549,0.04924645274877548
1772615954345246000,6.727245849609375,1.2826625108718872,1.214712381362915,0.0021319345105439425
1772615954355314000,6.73731396484375,1.2681089639663696,1.2077815532684326,-0.05792352929711342
1772615954365382000,6.7473818359375,1.2436392307281494,1.2028733491897583,-0.12142208218574524
1772615954375449900,6.757449951171875,1.2136266231536865,1.2160015106201172,-0.16906777024269104
1772615954385518000,6.76751806640625,1.181623935699463,1.2378021478652954,-0.209359809756279
1772615954395586000,6.7775859375,1.1516247987747192,1.2609812021255493,-0.24053876101970673
1772615954405654000,6.787654052734375,1.1170750856399536,1.2859898805618286,-0.2637881338596344
1772615954415722000,6.797721923828125,1.0849733352661133,1.315138816833496,-0.27721065282821655
1772615954425790000,6.8077900390625,1.047281265258789,1.3357744216918945,-0.28223150968551636
1772615954435858000,6.81785791015625,1.01693856716156,1.3497384786605835,-0.2740418314933777
1772615954445927000,6.827927001953125,0.9927424192428589,1.3232094049453735,-0.24579744040966034
1772615954455995100,6.8379951171875,0.9939234852790833,1.2936623096466064,-0.19932223856449127
1772615954466063000,6.84806298828125,1.0030648708343506,1.262904167175293,-0.14330823719501495
1772615954476131000,6.858131103515625,1.0146795511245728,1.2323561906814575,-0.07848209887742996
1772615954486198800,6.86819873046875,1.0133883953094482,1.2053003311157227,-0.010783213190734386
1772615954496267000,6.87826708984375,0.9982367157936096,1.1815708875656128,0.06041693687438965
1772615954506335000,6.8883349609375,0.9744147658348083,1.160250186920166,0.11824455112218857
1772615954516403000,6.89840283203125,0.9429872632026672,1.1470884084701538,0.16597039997577667
1772615954526471000,6.908470947265625,0.914235532283783,1.1345773935317993,0.18055786192417145
1772615954536539100,6.9185390625,0.8909194469451904,1.118914008140564,0.1749422699213028
1772615954546607000,6.928607177734375,0.866455614566803,1.097839117050171,0.14331643283367157
1772615954556675000,6.938675048828125,0.8381407856941223,1.0681066513061523,0.09326303750276566
1772615954566744000,6.948744140625,0.8152881860733032,1.0300297737121582,0.036619462072849274
1772615954576812000,6.95881201171875,0.7926375269889832,0.986544668674469,-0.03483855724334717
1772615954586880000,6.9688798828125,0.7784863114356995,0.951499342918396,-0.10587172210216522
1772615954596948000,6.978947998046875,0.7654306292533875,0.9270884394645691,-0.16274356842041016
1772615954607016200,6.98901611328125,0.7451295852661133,0.9083895683288574,-0.19335581362247467
1772615954617084000,6.999083984375,0.7236851453781128,0.9006308913230896,-0.19172516465187073
1772615954627152000,7.00915185546875,0.6841239333152771,0.9026053547859192,-0.14971113204956055
1772615954637219800,7.0192197265625,0.6450476050376892,0.8960378170013428,-0.08834677189588547
1772615954647288000,7.0292880859375,0.5936760306358337,0.9152352213859558,-0.014432867988944054
1772615954657356000,7.03935595703125,0.548289954662323,0.9096415638923645,0.055484794080257416
1772615954667424000,7.049424072265625,0.5177624225616455,0.9109582304954529,0.1239599883556366
1772615954677492000,7.059491943359375,0.5019580125808716,0.929502546787262,0.16732342541217804
1772615954687560200,7.069560302734375,0.49197566509246826,0.9301888346672058,0.1804424226284027
1772615954697629000,7.07962890625,0.48408687114715576,0.9288793206214905,0.18392795324325562
1772615954707697000,7.08969677734375,0.49070483446121216,0.9064956903457642,0.1641015112400055
1772615954717765000,7.09976513671875,0.5087877511978149,0.8607400059700012,0.1184985488653183
1772615954727833000,7.1098330078125,0.5276389122009277,0.8136236071586609,0.0616547092795372
1772615954737901000,7.119901123046875,0.5311673879623413,0.773918867111206,-0.006543305236846209
1772615954747969000,7.129968994140625,0.5217291116714478,0.7386293411254883,-0.07442914694547653
1772615954758037000,7.140037109375,0.4953361749649048,0.7115942239761353,-0.14002852141857147
1772615954768105000,7.15010498046875,0.4510858952999115,0.7158241271972656,-0.17490260303020477
1772615954778173000,7.1601728515625,0.3902326822280884,0.7316274046897888,-0.16954678297042847
1772615954788241000,7.170240966796875,0.32698047161102295,0.7426196336746216,-0.12653221189975739
1772615954798308400,7.180308349609375,0.2690425515174866,0.7738443613052368,-0.030321339145302773
1772615954808376300,7.190376220703125,0.21315982937812805,0.7860651016235352,0.08938615769147873
1772615954818445300,7.2004453125,0.16618995368480682,0.7706893682479858,0.20692631602287292
1772615954828513000,7.210512939453125,0.15388748049736023,0.7240180373191833,0.3126905560493469
1772615954838581200,7.220581298828125,0.1725643277168274,0.632189154624939,0.3823525309562683
1772615954848649200,7.230649169921875,0.20722830295562744,0.5453267097473145,0.40749624371528625
1772615954858717200,7.24071728515625,0.238616943359375,0.4618663191795349,0.3844029903411865
1772615954868785200,7.25078515625,0.25337696075439453,0.39493441581726074,0.32978448271751404
1772615954878853400,7.260853271484375,0.24636533856391907,0.3545180559158325,0.2536216676235199
1772615954888921300,7.27092138671875,0.23493531346321106,0.3319014310836792,0.15251581370830536
1772615954898989300,7.2809892578125,0.22438938915729523,0.31989091634750366,0.04493064805865288
1772615954909057000,7.29105712890625,0.21508270502090454,0.30594179034233093,-0.04436381161212921
1772615954919125200,7.301125244140625,0.21118411421775818,0.2875891625881195,-0.11783536523580551
1772615954929193200,7.311193115234375,0.20710307359695435,0.27175188064575195,-0.163856640458107
1772615954939261200,7.32126123046875,0.20272041857242584,0.25585654377937317,-0.19314125180244446
1772615954949330400,7.331330322265625,0.19326700270175934,0.2416112869977951,-0.19709789752960205
1772615954959398100,7.341398193359375,0.17864559590816498,0.22697550058364868,-0.18874362111091614
1772615954969466000,7.351466064453125,0.15954966843128204,0.21231132745742798,-0.17689014971256256
1772615954979534000,7.3615341796875,0.14204004406929016,0.21012750267982483,-0.16491654515266418
1772615954989602300,7.371602294921875,0.12782488763332367,0.20902281999588013,-0.15558482706546783
1772615954999670300,7.381670166015625,0.1112450584769249,0.2236279994249344,-0.13193905353546143
1772615955009738200,7.39173828125,0.10424201190471649,0.24161072075366974,-0.10710214078426361
1772615955019806200,7.40180615234375,0.09416913241147995,0.2629314661026001,-0.0692964419722557
1772615955029874400,7.41187451171875,0.08839912712574005,0.27133268117904663,-0.02671489305794239
1772615955039942100,7.421942138671875,0.09731671214103699,0.27985280752182007,0.01648052968084812
1772615955050010000,7.432010009765625,0.12485086172819138,0.27578961849212646,0.05053303763270378
1772615955060078000,7.442078125,0.1639828383922577,0.2625599801540375,0.06474418193101883
1772615955070147300,7.452147216796875,0.20447035133838654,0.24586698412895203,0.0740487352013588
1772615955080215300,7.46221533203125,0.23446816205978394,0.22735844552516937,0.0741981565952301
1772615955090283300,7.472283203125,0.253181129693985,0.19639359414577484,0.06784438341856003
1772615955100351200,7.482351318359375,0.2827689051628113,0.1628589928150177,0.04718431085348129
1772615955110419200,7.492419189453125,0.3047005832195282,0.1263454556465149,0.02009756676852703
1772615955120487200,7.502487060546875,0.32199040055274963,0.0818413570523262,-0.02165958657860756
1772615955130555100,7.51255517578125,0.3290770947933197,0.05107146129012108,-0.06430664658546448
1772615955140623400,7.522623291015625,0.3310675024986267,0.024517500773072243,-0.09458117932081223
1772615955150691300,7.53269140625,0.32857105135917664,0.001359716523438692,-0.11198493838310242
1772615955160759300,7.54275927734375,0.3283427655696869,-0.013421611860394478,-0.10631895065307617
1772615955170827300,7.5528271484375,0.3234736919403076,-0.02493179403245449,-0.05774741619825363
1772615955180895200,7.562895263671875,0.31727612018585205,-0.03021831437945366,0.012575527653098106
1772615955190963200,7.572963134765625,0.2946717441082001,-0.02114279195666313,0.08757387101650238
1772615955201032200,7.5830322265625,0.2588363587856293,-0.0011050463654100895,0.16502583026885986
1772615955211100400,7.593100341796875,0.21371974050998688,0.008692989125847816,0.2413027584552765
1772615955221168400,7.60316845703125,0.17759791016578674,0.013308064080774784,0.2950451374053955
1772615955231236000,7.613236083984375,0.14483357965946198,-0.012513680383563042,0.30694466829299927
1772615955241304000,7.623303955078125,0.1622423231601715,0.013955586589872837,0.29780808091163635
1772615955251372300,7.633372314453125,0.16562746465206146,0.02123054303228855,0.2604077160358429
1772615955261440300,7.643440185546875,0.16405129432678223,0.004793125204741955,0.19163234531879425
1772615955271508200,7.65350830078125,0.1654750108718872,0.003870605956763029,0.13297969102859497
1772615955281576200,7.663576171875,0.1665593832731247,-0.03125940263271332,0.0817352682352066
1772615955291644400,7.67364453125,0.16700147092342377,-0.041052114218473434,-0.008895564824342728
1772615955301712400,7.68371240234375,0.16341018676757812,-0.022772708907723427,-0.12457849085330963
1772615955311780000,7.693780029296875,0.16469304263591766,-0.006146327592432499,-0.2488996386528015
1772615955321849300,7.703849365234375,0.17379888892173767,0.016314486041665077,-0.3569256067276001
1772615955331917300,7.713917236328125,0.1845245063304901,0.03252008557319641,-0.44367650151252747
1772615955341985300,7.7239853515625,0.19640657305717468,0.047725480049848557,-0.49232205748558044
1772615955352053200,7.73405322265625,0.19781938195228577,0.06511778384447098,-0.4857533574104309
1772615955362121200,7.744121337890625,0.19941140711307526,0.09242869913578033,-0.4355226159095764
