time,seconds_elapsed,z,y,x
1772614948829904100,0.064904052734375,0.023289982433617115,-0.017046411868929863,0.021963172542955725
1772614948839971000,0.07497119140625,0.03197597771435976,0.06251812323331833,0.09875975903552026
1772614948850039000,0.0850390625,0.04140811518728733,0.12270868030190467,0.10721250268281436
1772614948860106000,0.09510595703125,0.04749678745120763,0.13000175991952417,-0.03195675242408179
1772614948870174000,0.105174072265625,0.04032879551798105,0.1250648880392313,-0.16376257522404192
1772614948880241000,0.115240966796875,0.05790858361124992,0.10049041875302792,-0.14432998060462995
1772614948890309000,0.12530908203125,0.04798340192437172,0.03304652955532074,-0.186978031116724
1772614948900377000,0.135377197265625,0.007124152791500091,-0.003800561326742172,-0.20615772868730126
1772614948910444000,0.145444091796875,-0.027579496321082114,0.01309504389464855,-0.11097192828156985
1772614948920512000,0.155511962890625,-0.07477817760854959,0.0008124854266643523,-0.010294097197661176
1772614948930579000,0.165578857421875,-0.15706658471673726,0.004413140267133712,-0.012403079575113952
1772614948940647200,0.175647216796875,-0.2042258107766509,0.0530471150547266,0.023908689720695837
1772614948950714000,0.185714111328125,-0.2099365896388888,0.08909808712303638,0.08059287350298837
1772614948960782000,0.195781982421875,-0.16253215664625167,0.09455401444137096,0.0909002685736399
1772614948970849000,0.20584912109375,-0.06339227571934461,0.07148001284599304,0.05944578484958037
1772614948980917000,0.2159169921875,0.03801408883482218,0.015415595796704292,-0.050316256185574455
1772614948990985000,0.22598486328125,0.11946399929225444,-0.017702829951047896,-0.09405373676903546
1772614949001052000,0.236052001953125,0.14762012645751238,-0.06774725605845451,-0.13361606882601043
1772614949011120000,0.2461201171875,0.12714432466179132,-0.10674071131944655,-0.14887699465081095
1772614949021187000,0.25618701171875,0.08931143761277198,-0.08376490940153598,-0.1223336638438981
1772614949031255000,0.266255126953125,0.024697511143982408,-0.027256255716085434,-0.04603509000134654
1772614949041322000,0.276322021484375,-0.07003390569090842,-0.006404021823406219,0.015310244859242811
1772614949051390000,0.286389892578125,-0.15673311497867107,-0.008656769186258316,-0.04328270428697578
1772614949061457000,0.296456787109375,-0.23153671928942202,0.026087211936712262,-0.04290840934817679
1772614949071525000,0.306525146484375,-0.24645956313312053,0.04770458498299122,0.016675176536897197
1772614949081593000,0.316593017578125,-0.20657558877319096,0.05029752408564091,0.03908489640410989
1772614949091660000,0.326659912109375,-0.1501674728527665,0.09359247593283652,0.02872237361273728
1772614949101728000,0.33672802734375,-0.089585578379035,0.11785247244238853,0.041596221637912094
1772614949111795000,0.346794921875,-0.0584498508810997,0.09384089773595332,0.029611084347078574
1772614949121863200,0.35686328125,-0.02056172651350498,0.07249649641215801,-0.0423332763413433
1772614949131930000,0.36693017578125,-0.010172142185270785,0.06766600751578808,-0.09306254290775395
1772614949141998000,0.376998046875,0.009577391162514687,0.047129415443539616,-0.09225111692701465
1772614949152065000,0.38706494140625,0.04492284530997276,0.008544540983438492,-0.09111419445211068
1772614949162133000,0.397133056640625,0.04574234499931335,-0.038377953711152074,-0.10696201678677461
1772614949172201000,0.407200927734375,0.03335223450362682,-0.042165071034431456,-0.09878065569307655
1772614949182268000,0.417267822265625,-0.00101999069750309,-0.009810615396499633,-0.07745786341289058
1772614949192336100,0.427336181640625,-0.032119477838277816,0.033785949745774264,-0.03334913836424239
1772614949202403000,0.437403076171875,-0.028887948571145534,0.10386427910029887,0.045739805982355025
1772614949212471000,0.447470947265625,-0.0036468320697546,0.13968962571918964,0.05165726813152432
1772614949222538000,0.4575380859375,0.019951193399727344,0.09445406119823455,-0.023687996174721046
1772614949232606000,0.46760595703125,0.007209200726449489,0.05937514903247356,-0.04370938700013794
1772614949242673000,0.4776728515625,-0.03747457513064146,0.0334141938239336,-0.0495982441093307
1772614949252741000,0.4877412109375,-0.1154571017384529,-0.04151975886821747,-0.0934906412598677
1772614949262809000,0.49780908203125,-0.17697949193269014,-0.06858136879503726,-0.15603409986384212
1772614949272876000,0.5078759765625,-0.18833850581496953,-0.0651373658210039,-0.15691722110761328
1772614949282944000,0.517944091796875,-0.13937223033308982,-0.0875374136775732,-0.13392230349727904
1772614949293011000,0.528010986328125,-0.0710834147438407,-0.07026245374977588,-0.09003736813399009
1772614949303079000,0.538078857421875,-0.016694821952283383,-0.003322422420978546,-0.03646859469218179
1772614949313146000,0.54814599609375,0.03839519710689783,0.08677987330853938,0.024200466608349232
1772614949323214000,0.558214111328125,0.0597089110314846,0.11521686324179171,0.06338517012512311
1772614949333281000,0.568281005859375,0.0655734191507101,0.1165729540258646,0.02841395611753687
1772614949343349000,0.578348876953125,0.0209770293161273,0.115675128403306,-0.03707210441012867
1772614949353417000,0.5884169921875,-0.0014195114091038704,0.10749532907903193,-0.07793757322123274
1772614949363484000,0.59848388671875,-0.007128828966617584,0.05675590644478798,-0.03968520951797254
1772614949373552000,0.60855224609375,-0.020375556291639802,0.02320434997677803,0.01944447685345076
1772614949383619000,0.618619140625,-0.027014848175644875,0.020583353823423384,0.07216212705837097
1772614949393687000,0.62868701171875,-0.026723171752691267,-0.004604863446950912,0.04363710264863912
1772614949403754000,0.63875390625,-0.06651011547893286,-0.03529693883061409,-0.010736182975932023
1772614949413822000,0.648822021484375,-0.08448620941340923,-0.04053250139653682,-0.06882213244808372
1772614949423889000,0.658888916015625,-0.10491174232661724,-0.03541968842744827,-0.11368300473801791
1772614949433957000,0.66895703125,-0.1322682435467839,-0.030057284611463547,-0.12136828027730807
1772614949444025000,0.679025146484375,-0.1321539695173502,0.0130406833589077,-0.07184235248551704
1772614949454092000,0.689092041015625,-0.10266542470455169,0.05321545735895633,-0.021174195856042206
1772614949464160000,0.699159912109375,-0.06459171463698149,0.04750350945293903,-0.004662064393749461
1772614949474227000,0.70922705078125,-0.022099603605270385,0.03782733409106731,-0.0102754427295411
1772614949484295000,0.719294921875,0.004173778553307056,0.037089667466282845,-0.027967025200789794
1772614949494362000,0.729362060546875,0.009869359846413135,0.0229746328741312,-0.0551290587282041
1772614949504430000,0.73943017578125,-0.001057107837498188,0.014563362881541251,-0.06142759718340821
1772614949514497000,0.7494970703125,-0.02169628350138664,0.031330957809090614,-0.025666283110901713
1772614949524565000,0.75956494140625,-0.031229835522174832,0.04475917918086052,-0.020686837030784225
1772614949534632700,0.7696328125,-0.046319268104434014,0.020824176841974257,-0.005075257437676191
1772614949544699600,0.77969970703125,-0.0291246799364686,0.03550795123279094,0.01575898870716337
1772614949554767600,0.789767578125,0.00025777415335178375,0.04541501274108886,-0.0049177379215601825
1772614949564834800,0.799834716796875,0.006265782396495342,0.0397796372026205,-0.044883257651678284
1772614949574902800,0.80990283203125,0.015825930163264272,0.01441138719022274,-0.14025187184498644
1772614949584969700,0.8199697265625,0.004976327107846737,-0.007927285867929458,-0.14785069294353015
1772614949595037700,0.83003759765625,-0.030319150418043134,0.001665302863717079,-0.054480088733602314
1772614949605105700,0.840105712890625,-0.08053717952668667,0.029531214910745618,0.02163890902465209
1772614949615172600,0.850172607421875,-0.11548866592049598,0.059033203727006905,0.056067312259273604
1772614949625240800,0.86024072265625,-0.12525924156755208,0.05772971991300582,0.05778395258458331
1772614949635307800,0.870307861328125,-0.09867489376366138,0.04641454517245292,0.025778292118012903
1772614949645375700,0.880375732421875,-0.0709627109736204,0.0400935254573822,-0.060986516052135266
1772614949655442700,0.890442626953125,-0.030195816299319264,0.04060264402329922,-0.08129334992254153
1772614949665510700,0.9005107421875,0.017977555239200593,0.04279226302206516,-0.0699534243332222
1772614949675577600,0.91057763671875,0.0373135393500328,0.03113455845415592,-0.08694311931254342
1772614949685645800,0.920645751953125,0.05464052172601223,0.001620294678211212,-0.09712294248077087
1772614949695712800,0.930712646484375,0.04725917930305004,-0.0140688573628664,-0.08873245954788289
1772614949705780700,0.94078076171875,0.000957154594361782,-0.028107904109358785,-0.07203292488786392
1772614949715848700,0.9508486328125,-0.04242284518778324,-0.021167291191220284,-0.056955118811316784
1772614949725915600,0.96091552734375,-0.08074380801469087,0.0010737667113542555,-0.016366457647597418
1772614949735983600,0.970983642578125,-0.09987170233279466,0.03624035716056823,0.007461376256076619
1772614949746050800,0.98105078125,-0.09171089996993541,0.05068038592338562,-0.018135357883106915
1772614949756118800,0.991118896484375,-0.04481470876038074,0.052770051679015155,-0.09405955458846874
1772614949766185700,1.001185791015625,0.01196224047243595,0.04649579371511936,-0.04258523267526179
1772614949776253700,1.011253662109375,0.03861030116230249,0.04115560173094272,0.033165488893026486
1772614949786321700,1.02132177734375,0.029544366653263567,0.03639467093944549,0.034254471439821646
1772614949796388600,1.031388671875,0.004413432528078556,0.015868600261211393,-0.008107017215853557
1772614949806456800,1.041456787109375,-0.04379617936760187,-0.020461773270368574,-0.062380924986023455
1772614949816523800,1.051523681640625,-0.07434796949774027,-0.028463877940177917,-0.10809584312229417
1772614949826591700,1.061591796875,-0.08339052313119173,-0.015578677403926848,-0.10087511635483241
1772614949836658700,1.07165869140625,-0.05650777690261602,0.014224340185523033,-0.07808181313066744
1772614949846726700,1.0817265625,-0.026325404606759546,0.04878010526001453,0.009173513936204835
1772614949856793600,1.091793701171875,0.020485446406900882,0.08696049057245255,0.08860956382057629
1772614949866861800,1.10186181640625,0.037597324727475644,0.10951485220789908,0.10366542292679659
1772614949876929800,1.1119296875,0.030944296579062936,0.08746201035380363,0.06310466355015523
1772614949886996700,1.121996826171875,0.016863748778402805,0.04887362876236438,-0.02740258711790666
1772614949897064700,1.132064697265625,0.0036500469401478763,-0.025537761360406874,-0.19077362400740383
1772614949907131600,1.142131591796875,-0.024515140314400195,-0.0830973854035139,-0.22873410122515633
1772614949917199600,1.15219970703125,-0.05435118339061737,-0.07742752307355404,-0.1551732087181881
1772614949927266800,1.162266845703125,-0.08123743675053119,-0.05440145227313042,-0.08357815465778112
1772614949937334800,1.172334716796875,-0.11685703166425228,-0.004055412870645523,0.0027526049100793895
1772614949947401700,1.182401611328125,-0.10215952100902795,0.06446341208219528,0.056010558837046844
1772614949957469700,1.1924697265625,-0.08483721480816603,0.10927578275501727,0.11970624708291143
1772614949967537700,1.20253759765625,-0.05005494750142097,0.1484270589262247,0.12746363801034166
1772614949977604600,1.2126044921875,-0.021822832490503787,0.13576046957671642,0.08394913426148705
1772614949987672800,1.2226728515625,-0.004273439535498619,0.08189736196398735,-0.0326535390492063
1772614949997739800,1.23273974609375,0.036306115873157976,0.013034253618121147,-0.16382500946838408
1772614950007807700,1.242807861328125,0.05680968245863914,-0.03828267664313316,-0.21793029180653392
1772614950017874700,1.252874755859375,0.05246054733842611,-0.049637014350295064,-0.18099623502707107
1772614950027942700,1.262942626953125,0.025253099200129508,-0.035305706658959386,-0.11797215329930186
1772614950038009600,1.273009521484375,-0.006239478911459446,0.010453004953265189,-0.01550182190858759
1772614950048077800,1.283077880859375,-0.04920622171759605,0.06857844618558884,0.0996773579376284
1772614950058145800,1.293145751953125,-0.04755523964017629,0.09630816463232039,0.1742935590506531
1772614950068212700,1.303212646484375,-0.04891717564314604,0.10113514639735222,0.14808850202108734
1772614950078280700,1.31328076171875,-0.04139320987910032,0.0868798265516758,0.10153316927161067
1772614950088347600,1.32334765625,-0.06611790129095316,0.03792553376853466,0.021451976184383964
1772614950098415600,1.33341552734375,-0.08570435303151606,0.015966215416789054,-0.09274016995243728
1772614950108482600,1.343482666015625,-0.09268997413516045,-0.0016617957323789595,-0.15119528153054415
1772614950118550800,1.35355078125,-0.08511953888088464,-0.028172786039113995,-0.2279991562804207
1772614950128617700,1.36361767578125,-0.054142509075999254,-0.03858779706954956,-0.21164865425378082
1772614950138685700,1.373685791015625,-0.014281623330712317,-0.02953822917342186,-0.10976484491359442
1772614950148753700,1.383753662109375,0.0013452771291136742,-0.03709960433840751,-0.05334846348832361
1772614950158820600,1.393820556640625,-0.01183072304725647,-0.02013911718726158,-0.041723551511741244
1772614950168888800,1.403888916015625,0.0061102995738387105,0.040972646379470824,0.022846974206739104
1772614950178955800,1.413955810546875,0.013074877889454365,0.0675426733970642,0.08532480652886443
1772614950189023700,1.424023681640625,0.00034720600247383117,0.06395487803816795,0.07038943656373303
1772614950199090700,1.434090576171875,-0.00797813927233219,0.057167994377017015,0.0043207629756769166
1772614950209158700,1.44415869140625,0.0015177110865712165,0.01800678133368492,-0.0831527688525617
1772614950219225600,1.4542255859375,0.00532908606827259,-0.046316930016875264,-0.1842412630965933
1772614950229293800,1.4642939453125,-0.008701192849874495,-0.0699912355929613,-0.19527067969832568
1772614950239361800,1.47436181640625,-0.014820552513003349,-0.06411503703594207,-0.12080516650183126
1772614950249428700,1.4844287109375,-0.0397512878909707,-0.03418459367454052,-0.03167925522353034
1772614950259496700,1.49449658203125,-0.05366875408440828,0.010332593443989754,-0.001482964000175707
1772614950269563600,1.504563720703125,-0.06013502748906612,0.06879062763154506,0.014254274099483153
1772614950279631600,1.514631591796875,-0.03229834153652191,0.0998334161490202,0.04646501498436555
1772614950289698600,1.524698486328125,-0.012292203079164028,0.11357844838500022,0.06399174858299084
1772614950299766800,1.534766845703125,-0.005507949766516685,0.1372170981258154,0.04911606378268916
1772614950309833700,1.544833740234375,0.015295476548373698,0.1127384904295206,-0.009742861089645885
1772614950319901700,1.554901611328125,0.04720598781108856,0.04190145166218281,-0.09053654069462791
1772614950329969700,1.5649697265625,0.05025660755336284,0.02453179918825626,-0.12672003483511507
1772614950340036600,1.57503662109375,0.006516542287170886,0.003218377524614334,-0.08099749051481485
1772614950350104800,1.585104736328125,-0.03101999216377735,0.005609072053432464,-0.04983863786961883
1772614950360171800,1.595171875,-0.05086684840619564,0.02262567330598831,-0.05738237234663684
1772614950370239700,1.60523974609375,-0.05571136582791805,0.028231238228082656,-0.03365651011324953
1772614950380306700,1.615306640625,-0.036630817782878876,0.04719897354841232,-0.016645064526423812
1772614950390374700,1.625374755859375,-0.02905629087537527,0.05573357765972614,0.0018042638098355382
1772614950400441600,1.635441650390625,-0.025257483114302155,0.08145195628404617,0.07859939813083038
1772614950410509800,1.645509765625,-0.04036532813608646,0.0888876592427492,0.06428604165471624
1772614950420577800,1.655577880859375,-0.05483282942771911,0.029263503885269163,-0.10862153836367651
1772614950430644700,1.665644775390625,-0.04592033191472292,0.006654781714081764,-0.15516604832503944
1772614950440712700,1.675712646484375,-0.04031593603640794,0.024375731843709943,-0.01194461348420009
1772614950450779600,1.685779541015625,-0.03755143975913525,0.028888825353980064,0.037150206581060774
1772614950460847600,1.69584765625,-0.03282762610763311,0.03232230693399906,0.012199528960185125
1772614950470914600,1.70591455078125,-0.04181786503195763,0.0223603003680706,-0.017142561153206042
1772614950480982800,1.715982666015625,-0.04805909750908613,0.004954992058873176,-0.019189301082561724
1772614950491049700,1.7260498046875,-0.026990298256278036,0.010015198057889937,-0.013863607981195673
1772614950501117700,1.73611767578125,-0.03510170851945877,-0.000751110628247261,-0.0919964389130473
1772614950511185700,1.746185546875,-0.01686345651745796,-0.008014379629492759,-0.11275141384317539
1772614950521252600,1.756252685546875,0.0025268881291151046,0.018620529317855832,-0.044106793386465865
1772614950531320800,1.76632080078125,0.01768266394585371,0.03610007190704345,-0.003631657333509065
1772614950541388000,1.776387939453125,0.028877427177131175,0.049671501141786575,-0.0037333321762736886
1772614950551456000,1.7864560546875,0.04637918159812689,0.03854804958105087,0.0026895085120340807
1772614950561523000,1.79652294921875,0.039788697291910646,0.018214871126413346,-0.037236711254157125
1772614950571591000,1.8065908203125,0.033580490301549436,-0.01094224977493286,-0.05635512535786256
1772614950581659100,1.8166591796875,0.02172200246453285,-0.03756313019692897,-0.046282082465779965
1772614950591726000,1.82672607421875,-0.011963409516215323,-0.03747136026024818,-0.032700154669908804
1772614950601794000,1.8367939453125,-0.04304214612990617,-0.02474748776555061,-0.033766496126633135
1772614950611861000,1.846861083984375,-0.07209376083016396,0.008720482072234153,-0.06930161849413997
1772614950621929000,1.856928955078125,-0.06564736116975546,0.021605098086595532,-0.11159817955428734
1772614950631996000,1.866995849609375,-0.054905017881095405,0.02795709746181965,-0.07725702534485608
1772614950642064100,1.877064208984375,-0.048208442851901054,0.018085107266902923,-0.043952922565583134
1772614950652131000,1.887131103515625,-0.05537555800229311,0.023244097465276718,-0.03809014517914038
1772614950662199000,1.897198974609375,-0.05211246455311775,0.016079028141498565,-0.016674806644138878
1772614950672266000,1.907265869140625,-0.046285950356721874,0.026803835773468017,0.03584838956776075
1772614950682334000,1.917333984375,-0.018068448393046856,0.07017185285687447,0.06690616102523636
1772614950692402200,1.927402099609375,-0.025318273390829562,0.07639467289447784,0.0607909934800351
1772614950702469000,1.93746923828125,-0.02207183881551027,0.06749649616777896,0.004067884193151258
1772614950712537000,1.947537109375,-0.012046119363605976,0.05251169300377369,-0.09984543538037687
1772614950722604000,1.95760400390625,-0.022161562925577163,0.04109422693252563,-0.15400425627036018
1772614950732672000,1.967672119140625,-0.004467500802874565,0.024959084689617154,-0.15841973462505266
1772614950742739000,1.977739013671875,0.018595102615654467,0.025467034211754797,-0.0671962345795706
1772614950752807000,1.987806884765625,0.03975158015191555,0.04057809410393238,0.029959148866077884
1772614950762875100,1.997875244140625,0.03920768253356218,0.04176525806188583,0.08004990746639669
1772614950772942000,2.007942138671875,0.01246463703662157,0.045341362982988354,0.09762118345964699
1772614950783010000,2.018010009765625,0.006977437797188758,0.02160100643336773,0.0472476760949241
1772614950793077000,2.028076904296875,-0.03990881654024124,0.0055599722146987916,-0.02496659670921508
1772614950803145000,2.03814501953125,-0.08435439972728491,0.02696925546824932,-0.03694496176596731
1772614950813212000,2.0482119140625,-0.11027794553488492,0.06250760183930397,-0.03455258217013907
1772614950823280000,2.058280029296875,-0.11391951690763234,0.058040101036429405,-0.06164795736924279
1772614950833347000,2.06834716796875,-0.10866145024895667,0.03755202428102493,-0.09238789504920132
1772614950843415000,2.0784150390625,-0.07993103032708168,0.00659048430621624,-0.11103775092624127
1772614950853482000,2.08848193359375,-0.04341974727064371,-0.01293254680931568,-0.11242177089685573
1772614950863550000,2.098550048828125,-0.01023819315880537,-0.014461071550846099,-0.050607640347583215
1772614950873618200,2.1086181640625,0.010488076266646384,0.0014893617749214172,-0.005872371765272692
1772614950883685000,2.11868505859375,0.02212386126369238,0.028426468539237974,0.03583391808441374
1772614950893753000,2.128753173828125,0.03063040832430124,0.061460138612985604,0.08892729713339358
1772614950903820000,2.138820068359375,0.02790332144796848,0.09351707260906696,0.07443184382233303
1772614950913888000,2.148887939453125,0.024802725084125996,0.07986965552866458,-0.039723609866178594
1772614950923955000,2.158954833984375,0.026519758135080337,0.028525252738595006,-0.15070125093590467
1772614950934023000,2.16902294921875,0.023038638021051883,0.0054763855844736095,-0.14854262073044663
1772614950944091100,2.179091064453125,0.0003615267887711525,-0.009796002349257468,-0.08773284491812809
1772614950954158000,2.189157958984375,-0.03351180897951126,-0.009918751946091651,-0.03190730095889885
1772614950964226000,2.19922607421875,-0.05996376257538795,0.007753682866692543,-0.025903039592399726
1772614950974293000,2.20929296875,-0.09822013573348522,0.027207740399241447,-0.049127840985450894
1772614950984361000,2.21936083984375,-0.11406652416288852,0.045503860068321224,-0.0269020742668421
1772614950994428000,2.229427978515625,-0.10702508121877909,0.06853869869709014,-0.024071081774751653
1772614951004496100,2.23949609375,-0.10825170040428637,0.07232113984525203,-0.04039054934231098
1772614951014563000,2.24956298828125,-0.06097147831320762,0.09059563220441341,-0.045522263374691826
1772614951024631000,2.259631103515625,-0.02860708580315113,0.07192541852593422,-0.003241614553018007
1772614951034699000,2.269698974609375,0.00692249273955822,0.03277472687661648,0.0033852037251926956
1772614951044766000,2.279765869140625,0.0269853298202157,0.006792144358158111,-0.019549012656870764
1772614951054834200,2.289834228515625,0.041726679617166515,0.007780570873618125,-0.05130708928725216
1772614951064901000,2.299901123046875,0.03210428026914596,-0.0064770870596170425,-0.024539884313300717
1772614951074969000,2.309968994140625,0.01641571274995804,-0.03037467999756336,-0.06894253939078189
1772614951085036000,2.3200361328125,-0.01502308934777975,-0.006680500677227973,-0.11697777196709067
1772614951095104000,2.33010400390625,-0.04938450089395046,0.027227029621601104,-0.07447559163251426
1772614951105171000,2.3401708984375,-0.08366612520217895,0.05212240142524242,-0.04440302268695086
1772614951115239000,2.350239013671875,-0.09514145894050598,0.054122635331749915,-0.04403812576415948
1772614951125307100,2.36030712890625,-0.05928776300996542,0.06104863520264625,-0.017573397168389054
1772614951135374000,2.3703740234375,-0.012476619735360146,0.06070142920017242,0.0024370532795495816
1772614951145442000,2.380442138671875,0.012024199792742728,0.059852118894457816,0.02778122030510567
1772614951155509000,2.390509033203125,0.022509061188995837,0.05313654690384864,0.041959520258661356
1772614951165577000,2.400576904296875,0.001441138719022274,0.039000469523668285,-0.02206788415960036
1772614951175644000,2.410643798828125,-0.026309330254793165,0.007190788286924362,-0.07579067455276381
1772614951185712000,2.420712158203125,-0.05737082347273826,-0.010058452677726745,-0.09342675484395585
1772614951195779000,2.430779052734375,-0.07260024904757738,0.007048749467730522,-0.08165940675595774
1772614951205847000,2.440846923828125,-0.06839549083411693,0.010303367349505424,-0.06633640287984162
1772614951215915000,2.4509150390625,-0.054689329303801056,0.009023264411091804,-0.04735932890900876
1772614951225982000,2.46098193359375,-0.02461129416525364,0.03728782038688659,-0.023063521300558932
1772614951236050000,2.4710498046875,0.002247194404900074,0.038898178192973136,0.029215659855282863
1772614951246117000,2.4811171875,0.003143558722734451,0.01661035853922367,-0.0017097973092808387
1772614951256185000,2.49118505859375,0.012763035461306572,-0.009406126248836516,-0.09790608308194204
1772614951266252000,2.501251953125,0.007056932774186134,-0.04720248067975044,-0.12117756174448877
1772614951276320000,2.511320068359375,-0.013739771538972854,-0.05901099189519882,-0.11636121097132562
1772614951286387000,2.521386962890625,-0.05870324112027883,-0.05235270304977894,-0.1214824173094239
1772614951296455000,2.531454833984375,-0.08682663505971432,-0.012394786670804023,-0.07257191343565937
1772614951306523100,2.541523193359375,-0.09577624971270561,0.028914544317126274,0.008904384417666006
1772614951316590000,2.551590087890625,-0.09899287367165088,0.028072832795977592,0.04359987134421244
1772614951326658000,2.561657958984375,-0.06496522412449121,0.028258710756897926,-0.021072062072262632
1772614951336725000,2.57172509765625,-0.030009353816509245,0.01642214249074459,-0.08730606174026616
1772614951346793000,2.58179296875,-0.00326864640712738,0.01495557706952095,-0.09423294752715156
1772614951356860000,2.59185986328125,0.03864040403962135,0.042618660020828245,-0.04063102530098986
1772614951366928100,2.60192822265625,0.06631576195061206,0.04573416169285774,-0.0026041403458541023
1772614951376995000,2.6119951171875,0.0525131543084979,0.03676818042695522,-0.013270792045554845
1772614951387063000,2.62206298828125,0.013922142368555069,0.03020341508388519,-0.04753890042672865
1772614951397131000,2.632131103515625,-0.03653144906163215,0.03525543777644634,-0.09223247615862637
1772614951407198000,2.642197998046875,-0.0747317081183195,0.026347324177622793,-0.09703621404538862
1772614951417266000,2.652265869140625,-0.09011047903597354,0.017177344772219657,-0.0677631797133712
1772614951427333000,2.6623330078125,-0.10990502056926488,0.024315526089072226,-0.03950743266511708
1772614951437401000,2.672401123046875,-0.12469342437833547,0.032799861317873,-0.04286651556836441
1772614951447468000,2.682468017578125,-0.12537117750942706,0.04396072227954864,-0.025389500579691957
1772614951457536000,2.692535888671875,-0.12194967862814664,0.06574819119572639,-0.004741054193137097
1772614951467603000,2.70260302734375,-0.0852589473515749,0.08920914628207684,0.014199390690645668
1772614951477671000,2.7126708984375,-0.05852876133620739,0.09191840524077415,0.013932090657122897
1772614951487739100,2.7227392578125,-0.025533669707179067,0.07586743414998054,0.0224962861891021
1772614951497806000,2.73280615234375,0.008118716786801814,0.04274433222711086,0.01839191618526238
1772614951507874000,2.7428740234375,0.03096855423748493,-0.017044073781371117,-0.027423298829083793
1772614951517941000,2.75294091796875,0.005653203456103801,-0.04068798421919346,-0.04085312991933897
1772614951528009000,2.763009033203125,-0.04539396995306015,-0.04492459887564182,-0.039371723122010004
1772614951538076200,2.773076171875,-0.1097431080058217,-0.030680384945869443,-0.031877204931445885
1772614951548144000,2.78314404296875,-0.16260960579663514,0.005931143614649772,-0.028244173058180604
1772614951558211000,2.793211181640625,-0.18796791893690823,0.03232756763100624,-0.05131653753560968
1772614951568279000,2.803279052734375,-0.18192133224904536,0.04339665865600109,-0.10517122437986545
1772614951578347300,2.81334716796875,-0.1231651918977499,0.05498889677226543,-0.1119446001054719
1772614951588414200,2.823414306640625,-0.04474281256794929,0.0417447997957468,-0.06546416835626587
1772614951598482200,2.833482177734375,0.017726503087580205,0.013888240098953246,-0.019574594622699077
1772614951608549000,2.843549072265625,0.052690848962962625,-0.007922025170922279,-0.052682779820938594
1772614951618617000,2.8536171875,0.04979483526051044,-0.028189737173914906,-0.11739337616381235
1772614951628684000,2.86368408203125,0.009892448461055754,-0.021832477101683616,-0.14287389091164804
1772614951638752000,2.873751953125,-0.02994038023352623,0.0017313538372516631,-0.13566462625311687
1772614951648820200,2.8838203125,-0.03693184655606747,0.0353442851036787,-0.10374394978941417
1772614951658887200,2.89388720703125,-0.013575813148915768,0.047483635708689687,-0.031165837225120046
1772614951668955100,2.903955078125,0.00739478642642498,0.048827451533079144,-0.033310564486100334
1772614951679022000,2.91402197265625,0.011410451808571816,0.03075286566019058,-0.08530675028236583
1772614951689090000,2.924090087890625,-0.0005818915411829948,0.045320904716849325,-0.0668744461461436
1772614951699157000,2.934156982421875,-0.02262859591543674,0.04286065208315849,-0.10274200620525516
1772614951709225200,2.94422509765625,-0.0534022121027112,0.039513679742813106,-0.13231815623627044
1772614951719292200,2.954292236328125,-0.07657879728972912,0.0691162063241005,-0.11199314282177947
1772614951729360100,2.964360107421875,-0.10054419476687908,0.08934533988237381,-0.050817817066120916
1772614951739428000,2.974427978515625,-0.09062018212378024,0.11827508176863193,0.01031420954557252
1772614951749495000,2.9844951171875,-0.07681874352544546,0.13256605744957922,0.05973776266663335
1772614951759563300,2.994563232421875,-0.03885901522636413,0.08615034323334693,0.04107928509172052
1772614951769630200,3.004630126953125,0.0001727262184023857,0.02517243517935276,-0.04318193362650927
1772614951779698200,3.0146982421875,0.015379355439543723,-0.02651917361319065,-0.14347377476724796
1772614951789765000,3.02476513671875,0.010191723668575287,-0.0739653999209404,-0.1880634517332539
1772614951799833000,3.0348330078125,-0.010974690739810467,-0.06396189230084419,-0.11817797806970774
1772614951809900000,3.044900146484375,-0.04373305100351572,-0.02768821739256382,-0.02887437670351937
1772614951819968000,3.054968017578125,-0.07275748543590307,-0.005863339075446129,-0.005899705013481434
1772614951830036200,3.0650361328125,-0.07306114455759524,0.003564414483308792,-0.06862473757930565
1772614951840103200,3.075103271484375,-0.0669587360292673,0.021592823126912117,-0.06209112085974775
1772614951850171100,3.085171142578125,-0.053235915625095366,0.02634966226518154,-0.012160693645494757
1772614951860238000,3.095238037109375,-0.03844926538169384,0.023875965628027913,-0.04770519690434448
1772614951870306000,3.10530615234375,-0.026814357167482376,0.018647417324781417,-0.08861813071952201
1772614951880373000,3.115373046875,-0.015494506251811981,0.00987608184814453,-0.07785035159550607
1772614951890441200,3.125441162109375,-0.018952537751197814,-0.0024748656809329985,-0.05184573077517561
1772614951900509200,3.13550927734375,-0.04211509441286325,-0.002741407662630081,-0.06463568164287134
1772614951910576000,3.145576171875,-0.07871580931842327,0.00976502268910408,-0.08928190099103375
1772614951920644000,3.15564404296875,-0.09677578214406966,0.008014964151382446,-0.13246962047093547
1772614951930711000,3.1657109375,-0.10306465315520763,0.03428220883011818,-0.1057398271812126
1772614951940779300,3.175779296875,-0.07531915261745452,0.04561082757413387,-0.04572237079036422
1772614951950846200,3.18584619140625,-0.03863280525505543,0.028648586857318876,-0.053428798715537414
1772614951960914200,3.1959140625,0.004459025235474109,0.04249941755533218,-0.08436487545552664
1772614951970981000,3.205981201171875,0.020767478218674657,0.045704351076483726,-0.07607571573895401
1772614951981049000,3.216049072265625,0.025075112284719942,0.053687166523933405,-0.0464388667629566
1772614951991117000,3.226116943359375,0.019041969600319862,0.06310673677623271,-0.048158041538647375
1772614952001184000,3.23618408203125,-0.00203998139500618,0.05512859750390053,-0.07609555295058526
1772614952011252200,3.246252197265625,0.004444119927287101,0.030125089150667188,-0.07457808389260899
1772614952021319200,3.256319091796875,0.0028872458741068838,0.024711831930279732,-0.07372262240732089
1772614952031387100,3.26638720703125,0.01889905399829149,0.025779168900847433,-0.07889376883436926
1772614952041454000,3.2764541015625,0.0418885921806097,-0.006722001731395721,-0.14666652466026134
1772614952051522000,3.28652197265625,0.027369945223629472,-0.030324411115050316,-0.12482799227712675
1772614952061589000,3.296589111328125,0.00791588769108057,-0.00935761093199253,-0.08397472536046989
1772614952071657200,3.3066572265625,-0.050565527372062206,0.020602058523893355,-0.01567654143796535
1772614952081725200,3.31672509765625,-0.09677432083934545,0.043615854364633555,0.033813917748222594
1772614952091792100,3.326792236328125,-0.12217121242433786,0.06504618040621281,0.023915541869879233
1772614952101860000,3.336860107421875,-0.12606120560020206,0.05029693956375122,-0.01685793324225815
1772614952111927000,3.346927001953125,-0.08066051364541053,0.03734802614152431,-0.03415076218688628
1772614952121995300,3.356995361328125,-0.012614859162271022,0.005655833804607391,-0.09975355584584177
1772614952132062200,3.367062255859375,0.03611965339034796,-0.028024317479133604,-0.18066205290295181
1772614952142130200,3.377130126953125,0.06004588790088892,-0.02565115860700607,-0.17502903371835127
1772614952152197000,3.387197021484375,0.07004355030208825,-0.006322188758850098,-0.10105528609417379
1772614952162265000,3.39726513671875,0.05530249276608228,0.030981413719058035,-0.01877799175175605
1772614952172333000,3.4073330078125,0.03513736435472965,0.06592705489397048,0.03239223949820735
1772614952182400000,3.41739990234375,0.007804244010150432,0.06433657083213329,0.006455932390445378
1772614952192468200,3.42746826171875,-0.021975392703711984,0.03734334996640682,-0.03976205131358001
1772614952202535200,3.43753515625,-0.044292730712890624,0.017664251506328582,-0.08927592790797352
1772614952212603100,3.44760302734375,-0.06503799709975719,0.048155835881829256,-0.09434776041270233
1772614952222670000,3.457670166015625,-0.05088876797705889,0.05969780511558056,-0.04844089990090578
1772614952232738000,3.467738037109375,-0.03886339914053678,0.047262686434388156,-0.03670038273761747
1772614952242805000,3.477804931640625,-0.020073650735616684,0.04520692294836044,-0.036576203802099916
1772614952252873200,3.487873291015625,0.0033899346992373462,0.03305354381799697,0.0032932191593805327
1772614952262941200,3.497941162109375,0.027260931891202926,-0.0132236387103796,0.040757661055075
1772614952273008000,3.508008056640625,0.01656242774426937,-0.07998013016581534,-0.019434366451390087
1772614952283076000,3.518076171875,-0.01562047071903944,-0.08664543327391147,-0.10826081529250368
1772614952293143000,3.52814306640625,-0.06522212149500846,-0.05964578266739845,-0.07157819425715133
1772614952303211000,3.5382109375,-0.09161679194569587,-0.03981295495033264,-0.030265698631177656
1772614952313278200,3.5482783203125,-0.07199906828403473,0.03187923934161663,-0.0735541248394642
1772614952323346200,3.55834619140625,-0.06805179196298122,0.056680503121018404,0.009523809228197205
1772614952333414100,3.5684140625,-0.0657496525004506,0.05602057790756225,0.046596824670489874
1772614952343481000,3.578481201171875,-0.04582739293426275,0.05361702389717102,0.008777756084268912
1772614952353549000,3.588549072265625,-0.04800386019051075,0.0370697937220335,-0.00017750742479693144
1772614952363616000,3.598615966796875,-0.03200169667750597,0.003996376159787178,-0.008208539078279864
1772614952373684200,3.608684326171875,-0.0253819862768054,-0.0036123452782630917,-0.05567373723126948
1772614952383751200,3.618751220703125,-0.016136019025743006,0.0037187282621860504,-0.05455277037732303
1772614952393819100,3.628819091796875,-0.004251519964635372,0.020042086553573608,-0.01712002966098953
1772614952403886000,3.638885986328125,0.004082300877571106,0.03504910154938698,-0.0018011060216580517
1772614952413954000,3.6489541015625,-0.004561901088058948,0.04693360061049461,0.028859398330096153
1772614952424022300,3.659022216796875,0.0001654196947813034,0.047838440495729447,0.03489788847647141
1772614952434089200,3.669089111328125,0.0023909867897629737,0.042919688794016836,0.035744116342533376
1772614952444157200,3.6791572265625,-0.009315525355935095,0.04128127393722534,0.04320240559238009
1772614952454224100,3.68922412109375,-0.030267712491750715,0.035658757880330086,-0.000548471045482438
1772614952464292000,3.6992919921875,-0.07372428464144468,0.025793781948089598,-0.10981100387657061
1772614952474359000,3.709359130859375,-0.08548165019154548,0.010972644913196564,-0.15783850067099556
1772614952484427000,3.719427001953125,-0.07170271568596363,0.014095745369791983,-0.1282784706577193
1772614952494494200,3.729494140625,-0.05745148749351501,0.0524631776869297,-0.05638604565251153
1772614952504562200,3.739562255859375,-0.007506137846410274,0.08422259004116057,-0.014518313596840016
1772614952514630100,3.749630126953125,0.03458645247370004,0.063486676004529,-0.02927573317917995
1772614952524697000,3.759697021484375,0.07772124532312154,0.05543839410543441,-0.009966764939436688
1772614952534765000,3.76976513671875,0.08464724519401788,0.05742401496469974,0.0045710342425853015
1772614952544832000,3.77983203125,0.05048486335128546,0.026454291683435438,0.00031300005548400803
1772614952554900000,3.78989990234375,0.005997194588184356,-0.0034708909809589386,-0.10033460713680833
1772614952564967000,3.799966796875,-0.027101357415318487,-0.017758944052457808,-0.13894235101584343
1772614952575035100,3.81003515625,-0.04527268166095018,-0.038349896660447115,-0.13873024263512343
1772614952585102000,3.82010205078125,-0.044929859572649,-0.051667058873176575,-0.18650025753714145
1772614952595170000,3.830170166015625,-0.031136896541714667,-0.035953356912732125,-0.14228303061272016
1772614952605238000,3.840238037109375,-0.024808862563967703,0.00239420166015625,-0.03623817433663644
1772614952615305000,3.850304931640625,-0.019260873048007488,0.06598083090782166,0.08392326003471388
1772614952625373200,3.860373291015625,-0.03767272805124521,0.09046002312600612,0.1233627420301549
1772614952635440000,3.870440185546875,-0.04259937079846859,0.10631985555887222,0.08694187720352783
1772614952645508000,3.880508056640625,-0.044860301467776295,0.10615618942975998,0.08457144914460368
1772614952655575000,3.890574951171875,-0.022882570676505565,0.07202420272529125,0.04438171960401814
1772614952665643000,3.90064306640625,0.007094634436070919,0.03105097182393074,-0.07480825765298213
1772614952675711000,3.9107109375,0.003423544707894325,-0.00973579659461975,-0.1392812093150802
1772614952685778000,3.92077783203125,0.008786533045768737,-0.022473113092780113,-0.16713590584835036
1772614952695846100,3.93084619140625,-0.006606558658182621,-0.02265606844425201,-0.13369449522392823
1772614952705913000,3.9409130859375,-0.04293810123354196,0.021004209583997725,-0.03686926161467563
1772614952715981000,3.95098095703125,-0.06668605656772851,0.05091594824492931,0.010424733273428865
1772614952726048000,3.961048095703125,-0.06431815839260817,0.0650076019614935,0.021831682517239822
1772614952736116000,3.971115966796875,-0.05783113446086645,0.05720949543118477,0.02361311344075948
1772614952746183000,3.981182861328125,-0.047203941984474654,0.05475041184127331,0.009238811424490996
1772614952756251100,3.991251220703125,-0.04063274690061807,0.06221475637257099,0.002340685941209085
1772614952766319000,4.001319091796875,-0.03528378708809614,0.05805529860556125,-0.021602924395818263
1772614952776386000,4.011385986328125,-0.03332388519197702,0.046993806365132326,-0.0735633630252676
1772614952786454000,4.0214541015625,-0.004352349990606308,0.030628947019577024,-0.12273642682535574
1772614952796521000,4.03152099609375,0.04328443045318126,0.021180735194683074,-0.0936237295876257
1772614952806589200,4.041589111328125,0.05537643478512764,-0.01793313157558441,-0.0815612436111085
1772614952816656100,4.05165625,0.0503062919139862,-0.017872341299057005,-0.07487695724132935
1772614952826724000,4.06172412109375,0.020816870318353175,0.0038549218624830245,-0.02424616434702184
1772614952836792000,4.0717919921875,-0.0011585223853588103,0.025061960542201993,0.019953138761641457
1772614952846859000,4.08185888671875,-0.0002358545824885368,0.058280924054980275,0.005654123621422332
1772614952856927000,4.091927001953125,-0.016217852090299127,0.06984510512053967,0.008255606790131422
1772614952866994000,4.101993896484375,-0.01827829175144434,0.03991407723724842,-0.030716846782027275
1772614952877062100,4.112062255859375,-0.018777765706181525,0.02432721652686596,-0.09220740564945154
1772614952887129000,4.122129150390625,-0.0009612462475895881,-0.009276362389326095,-0.11631382816564291
1772614952897197000,4.132197021484375,-0.010098492427170275,-0.042620413586497305,-0.11844763445709831
1772614952907264000,4.142263916015625,-0.020007307501137255,-0.045858080333471295,-0.07170082512297667
1772614952917332000,4.15233203125,-0.010626900215446948,-0.008239420557022094,-0.022779363747069147
1772614952927400200,4.162400146484375,-0.03982873704135418,-0.0031628479450941083,0.023802334136236458
1772614952937467100,4.172467041015625,-0.06511866112053394,-0.010045008674263953,-0.006967658471979666
1772614952947535000,4.18253515625,-0.08526011639535426,0.021041618984937668,0.015440789603465236
1772614952957602000,4.19260205078125,-0.06822334913760424,0.05463000033199787,0.07298579603275283
1772614952967670000,4.202669921875,-0.036596330991387364,0.052667760348320006,0.029279509738576598
1772614952977737000,4.212737060546875,-0.017610767753422258,0.034544074636697765,-0.054489541548537086
1772614952987805200,4.22280517578125,-0.0105374683663249,0.036735447201132775,-0.07800092991418205
1772614952997872000,4.2328720703125,-0.008523205934464931,0.035925299862027166,-0.031511814818310085
1772614953007940000,4.242940185546875,-0.025830899088084697,0.04668284071981907,-0.045215133654279635
1772614953018008000,4.253008056640625,-0.020371172377467155,0.058008536854386325,-0.02202018169350922
1772614953028075000,4.263074951171875,-0.004112111493945122,0.03251753724515438,0.031756752322975076
1772614953038143000,4.27314306640625,0.009067688074707984,-0.0023708207845687863,0.02373486524046166
1772614953048210000,4.2832099609375,0.0350175373673439,-0.006591068828105926,0.035856593423814045
1772614953058278100,4.293278076171875,0.0039437691897153855,-0.017732056045532227,0.0615350304801017
1772614953068345000,4.303344970703125,-0.04654840068519115,-0.021871640068292616,0.0353967984589166
1772614953078413000,4.3134130859375,-0.0904369345113635,-0.01080196452140808,-0.006588315182016231
1772614953088481000,4.32348095703125,-0.11111790349036454,0.01353168174624443,-0.0528313214461552
1772614953098548000,4.3335478515625,-0.11170651703327894,0.02497545130252838,-0.1310653888293542
1772614953108616200,4.3436162109375,-0.07958440884649753,0.031065000349283216,-0.11978326697503217
1772614953118683100,4.35368310546875,-0.040132396163046355,0.0537006105273962,-0.02868768360855756
1772614953128751000,4.363751220703125,-0.004324000678956509,0.08663783448934555,0.05616723810294643
1772614953138818000,4.373818115234375,0.020540391464531422,0.07670271593034267,0.09389393396428786
1772614953148886000,4.383885986328125,0.03230272545069456,0.04986439336538315,-0.0059542002632515505
1772614953158953000,4.393952880859375,0.030649697546660897,0.006873392900824547,-0.09596848434917628
1772614953169021000,4.40402099609375,0.02802753234952688,-0.007235796472430229,-0.10010792224146425
1772614953179089200,4.414089111328125,0.04908668699115514,0.0002566051095724106,-0.10189921697187238
1772614953189156000,4.424156005859375,0.055330257555842394,-0.01509936945438385,-0.16910313253439962
1772614953199224000,4.43422412109375,0.06816051303446292,-0.015124503895640372,-0.17037401098674163
1772614953209291000,4.444291015625,0.07954962979406117,0.02195171956717968,-0.08261413193121551
1772614953219359000,4.45435888671875,0.044700434730947015,0.04674129290878772,0.02454408784767147
1772614953229426000,4.464426025390625,-0.00561316370666027,0.04398994837403297,0.004541251025674865
1772614953239494100,4.474494140625,-0.07426292156279087,0.03871113118827343,-0.044866251717950216
1772614953249561000,4.48456103515625,-0.13058628180921078,0.047538580766320226,-0.048299591734074054
1772614953259629000,4.494629150390625,-0.14682751477509737,0.048860184758901595,-0.07514328916047233
1772614953269697000,4.504697021484375,-0.11653437558114528,0.05345043515861034,-0.09678867815826088
1772614953279764000,4.514763916015625,-0.059388885296881196,0.07136486203372477,-0.013863165023201144
1772614953289832200,4.524832275390625,0.003500701597332954,0.08247370054721832,0.07478064356027171
1772614953299899100,4.534899169921875,0.009348258581757545,0.07995499572455883,0.0480699887958588
1772614953309967000,4.544967041015625,0.0016389993786811827,0.06207154850959778,-0.02497460420244606
1772614953320034000,4.555033935546875,-0.015458558155596255,0.040029228049516676,-0.0499709498792421
1772614953330102000,4.56510205078125,-0.028541911612451076,0.0036252047598361965,-0.0921564791798126
1772614953340170000,4.575169921875,-0.012243980023264885,-0.0313403101593256,-0.12377639173180796
1772614953350237000,4.58523681640625,-0.0006722001731395721,-0.05132043739259243,-0.09657095288750715
1772614953360305200,4.59530517578125,0.016979776373505593,-0.04114098868370056,-0.04093515478014014
1772614953370372000,4.6053720703125,0.020146715971827506,-0.03622632863521576,-0.028412398914690128
1772614953380440000,4.615440185546875,-0.005071019653975963,-0.02775485288798809,-0.04808558822378982
1772614953390507000,4.625507080078125,-0.005524024118483066,-0.02710778715610504,-0.04861174925605301
1772614953400575000,4.635574951171875,-0.05164718512892723,-0.02504384036362171,-0.02463698572893627
1772614953410642000,4.645641845703125,-0.0839864431977272,0.008732757031917572,-0.019004295337898654
1772614953420710100,4.655710205078125,-0.08595014448612928,0.039921676021814345,-0.03128933802391402
1772614953430778000,4.665778076171875,-0.055220951962471,0.042187282866239545,0.004469943921710364
1772614953440845000,4.675844970703125,-0.03509440199583769,0.03610708616971969,-0.05490091709471307
1772614953450913000,4.6859130859375,-0.03208177617639303,0.024826982742547986,-0.0907873553842306
1772614953460980000,4.69597998046875,-0.006583177782595157,0.023095628905296324,-0.063992410736694
1772614953471048200,4.706048095703125,-0.00013853168785572052,0.007290157008171081,-0.08589982080468908
1772614953481115100,4.716115234375,0.0020867431461811066,-0.0033148236364126202,-0.14633887274162843
1772614953491183000,4.72618310546875,0.004875497081875801,0.019332476979494095,-0.10793680750252678
1772614953501250000,4.73625,-0.002158347077667713,0.04750526301860809,-0.02287071584193036
1772614953511318000,4.746318115234375,-0.02243833404034376,0.0668541066110134,0.010487267982470802
1772614953521386000,4.756385986328125,-0.03969371248483657,0.06272212137281895,-0.016226957845361902
1772614953531453000,4.766452880859375,-0.03776683607548475,0.06305062267482281,-0.020591523430147207
1772614953541521200,4.776521240234375,-0.036736616244912146,0.04824292964339256,-0.0336375770839164
1772614953551588000,4.786588134765625,-0.04565817384719848,0.03131576023995876,-0.09978627993850968
1772614953561656000,4.796656005859375,-0.029801848545670508,0.0021539631634950635,-0.1481627637005411
1772614953571723000,4.806722900390625,0.009813538005948067,-0.01887304277420044,-0.1281101740192622
1772614953581791200,4.816791259765625,0.02105857011973858,-0.015590952363610267,-0.10337254092744551
1772614953591859200,4.826859130859375,0.015710779350996018,0.001391162097454071,-0.0965325388395693
1772614953601926100,4.836926025390625,-0.012925824807584285,0.04189385287761688,-0.05259247118898201
1772614953611994000,4.846994140625,-0.022235504944622515,0.06616904695630073,0.029195018926053307
1772614953622061000,4.85706103515625,-0.045913317652046676,0.05605272661149501,0.08035659879539161
1772614953632129300,4.86712939453125,-0.06327507908046245,0.057148120632767675,0.051407837114832364
1772614953642196200,4.8771962890625,-0.078184771181643,0.05495440998077392,0.026948774369223973
1772614953652264200,4.88726416015625,-0.0797360922768712,0.040945758372545236,-0.024528967910353094
1772614953662331100,4.8973310546875,-0.0786754773080349,0.00908405468761921,-0.0599658403680427
1772614953672399000,4.907399169921875,-0.05962210953086614,0.0035059622943401335,-0.04495286598890088
1772614953682467000,4.917467041015625,-0.03210661835670471,-0.015945757150650025,-0.030583587207621894
1772614953692534300,4.9275341796875,-0.01945464205443859,-0.020249591824412345,-0.05211857463349588
1772614953702602200,4.937602294921875,-0.00888707081079483,0.003531681257486343,-0.06546216362884734
1772614953712669200,4.947669189453125,0.005942834052443504,-0.0010328501790761947,-0.05827602868415415
1772614953722737200,4.957737060546875,0.02084375832527876,-0.0006143325060606002,-0.07633741714875214
1772614953732804000,4.96780419921875,0.04341507109552622,0.03282558028101921,-0.03401621027111541
1772614953742872000,4.9778720703125,0.050802843259274956,0.04371873021721839,0.04309350185780786
1772614953752940300,4.987940185546875,0.03820698105841875,0.03434942884743213,-0.02654813027961645
1772614953763007200,4.99800732421875,0.007041735205054283,0.032976971450448034,-0.09764823586335405
1772614953773075200,5.0080751953125,-0.024468086302280423,0.04277355832159519,-0.11354206189736724
1772614953783142100,5.01814208984375,-0.07479103709012269,0.03246083862185478,-0.11459761709859594
1772614953793210000,5.028210205078125,-0.115054073895514,0.03747895904481411,-0.1097563510798849
1772614953803277000,5.038277099609375,-0.1173284485682845,0.06684709234833718,-0.0749220065260306
1772614953813345300,5.04834521484375,-0.067052551792562,0.08436229077279567,-0.03285523563376628
1772614953823412200,5.058412109375,0.003208440652489662,0.08433014206886291,0.011019283366785385
1772614953833480200,5.068480224609375,0.05418780952244997,0.08793664212822913,0.060598475715774106
1772614953843548200,5.078548095703125,0.09523293661624192,0.08047931185960769,0.10323639299292117
1772614953853615000,5.088614990234375,0.09358926106244325,0.019898878690600395,0.025390306580578906
1772614953863683000,5.09868310546875,0.06080635087937116,-0.013806407034397124,-0.07231187425998505
1772614953873750300,5.108750244140625,0.014231062187254428,-0.008002689191699027,-0.09371897012302652
1772614953883818200,5.118818359375,-0.05748129810988903,0.01619768608510494,-0.08369610021533444
1772614953893885200,5.12888525390625,-0.10927841310352086,0.010500351226329804,-0.13011556815807707
1772614953903953200,5.138953125,-0.09590338322371243,0.025679800179600715,-0.12268656893479638
1772614953914020000,5.14902001953125,-0.06310761355906724,0.021608020696043968,-0.035979683230654334
1772614953924088000,5.159088134765625,-0.04252659782320261,0.009267594560980797,0.02148127077752724
1772614953934156300,5.16915625,-0.0050075990289449685,-0.008016717717051506,0.01577829619583208
1772614953944223200,5.17922314453125,-0.0020700842723250386,-0.026062077495455742,0.03416514005539938
1772614953954291200,5.189291259765625,-0.00040770401805639264,-0.02614449508190155,0.04189700381592847
1772614953964358100,5.199358154296875,-0.006309913799166679,-0.051835985699296,-0.013329537637112662
1772614953974426000,5.209426025390625,-0.042024201259016986,-0.05885843168199062,-0.0834065244179219
1772614953984493000,5.2194931640625,-0.039194823051989076,-0.02845627915561199,-0.05791694958079606
1772614953994561300,5.229561279296875,-0.04787292728722095,-0.018815175107121468,-0.01095156559254974
1772614954004629200,5.239629150390625,-0.04602992976903915,-0.0060679217368364334,-0.012557215257477945
1772614954014696200,5.2496962890625,-0.0364838105276227,-0.006276011529564857,-0.03274226764542982
1772614954024764200,5.25976416015625,-0.056017947559058666,-0.039649288821220395,-0.04909626310367603
1772614954034831000,5.2698310546875,-0.04349631963819265,-0.01638765569925308,-0.09182063482156955
1772614954044899000,5.279899169921875,-0.06361030238419771,0.0024906477719545362,-0.10090698193097486
1772614954054966300,5.28996630859375,-0.05441197366714477,0.029172902992367744,-0.08382664952613413
1772614954065034200,5.3000341796875,-0.009465747481584548,0.07591361137926578,-0.01736885788948275
1772614954075101200,5.31010107421875,0.030985797633230686,0.10671440783441066,0.03633014976929407
1772614954085169200,5.320169189453125,0.05780833810716867,0.11056757613122463,0.033338196845119815
1772614954095237000,5.330237060546875,0.07280921562314033,0.07774141132831573,-0.032786558878305366
1772614954105303000,5.340302978515625,0.06362345412671566,0.037467268607020376,-0.04480274432795122
1772614954115370000,5.350369873046875,0.032930794221162796,0.03461421726346016,-0.033018353773606936
1772614954125438000,5.36043798828125,0.01593231314718723,0.0267173265337944,-0.06495815049631055
1772614954135506200,5.370506103515625,0.0007622165441513061,-0.017595862445235252,-0.10224075128538533
1772614954145573000,5.380572998046875,-0.007956511962413787,-0.015639467680454253,-0.1514292364168912
1772614954155641000,5.39064111328125,-0.01775368335545063,-0.015472878941893576,-0.1445494046421256
1772614954165708000,5.4007080078125,-0.02875526210218668,0.015029226827621459,-0.08653894069213419
1772614954175776000,5.41077587890625,-0.06605857231914997,0.04654781616330147,-0.007884355475078337
1772614954185843000,5.420843017578125,-0.08356441839337349,0.06999357368052006,0.050450394826103
1772614954195911200,5.4309111328125,-0.08822042750567197,0.06886077025830745,0.05503711069501005
1772614954205978000,5.44097802734375,-0.07875818715542554,0.07559972312450408,0.040468514515925195
1772614954216046000,5.451046142578125,-0.057713353300094604,0.07612228569388389,0.030071719562192446
1772614954226114000,5.461114013671875,-0.029571546921133993,0.052985740256309505,0.03451257895331364
1772614954236181000,5.471180908203125,0.004399404002726078,0.034281039786338806,0.020377972011012022
1772614954246249200,5.481249267578125,0.029226386745274065,0.013467968860268593,-0.011381097849924117
1772614954256316200,5.491316162109375,0.010800795477628708,-0.0044803602844476695,-0.07400793302156962
1772614954266384100,5.501384033203125,0.006179565417766571,0.004794833061099052,-0.06945508745622356
1772614954276451000,5.511451171875,-0.0016384148567914962,0.00393266327381134,-0.04131570136321243
1772614954286519000,5.52151904296875,-0.021622341482341288,0.0018827450066804885,-0.056746156802331096
1772614954296587000,5.5315869140625,-0.04447393249869346,0.017666005071997642,-0.060114089732314455
1772614954306654000,5.541654052734375,-0.03862696003615856,0.0002986906856298446,-0.04934953917842358
1772614954316722200,5.55172216796875,-0.03405804468542337,-0.016150924333930016,-0.05336730518611148
1772614954326789000,5.5617890625,-0.025449206294119356,0.009899462723731994,-0.04992343007624149
1772614954336857000,5.571857177734375,-0.01066080248504877,0.03889057940840721,-0.00028747517187148333
1772614954346924000,5.581924072265625,0.004513093510270119,0.028908699098229407,-0.006565655825636349
1772614954356992000,5.591991943359375,0.013895254361629486,0.010341361272335052,-0.05474500044721644
1772614954367059000,5.602058837890625,0.0021215221986174582,0.001647182685136795,-0.08235887852851301
1772614954377127200,5.612127197265625,0.015577508360147475,0.023410101681947706,-0.06099141598953865
1772614954387195100,5.622195068359375,0.02061141087412834,-0.005110474881529808,-0.08144985565850511
1772614954397262000,5.632261962890625,0.011675240224599837,-0.02951192568838596,-0.09812937044380232
1772614954407330000,5.642330078125,0.012139935126900672,-0.00736906746327877,-0.08893750800015404
1772614954417397000,5.65239697265625,-0.00582797550112009,0.01183072304725647,-0.04534093829130288
1772614954427465200,5.66246533203125,-0.03669394614696502,0.024132570737600324,-0.02235856050213333
1772614954437532200,5.6725322265625,-0.04849515083879232,0.07647650595903396,0.019662430453067644
1772614954447600000,5.68260009765625,-0.03850888661444187,0.10992577109634875,0.08971063866396434
1772614954457667000,5.6926669921875,-0.01679857458770275,0.07582944022715091,0.05963300538421608
1772614954467735000,5.702735107421875,-0.017623919495940207,0.024634090518951414,-0.10885136506417765
1772614954477803000,5.712802978515625,0.006310206060111522,0.042722704917192454,-0.14321478590434417
1772614954487870000,5.722869873046875,0.008845569756627081,0.05339607462286949,-0.05268860220694914
1772614954497938200,5.732938232421875,0.005862462292611599,0.05519406395554542,-0.0026991485566366462
1772614954508005000,5.743005126953125,-0.011115560515224932,0.05992459960877895,-0.009160147564555517
1772614954518073000,5.753072998046875,-0.014034955093264578,0.058823944890499115,0.011226007752912118
1772614954528140000,5.76314013671875,-0.032815643408894535,0.03196457953751087,0.02825065074802842
1772614954538208000,5.7732080078125,-0.0392874697715044,0.005775076270103454,-0.01999709206779953
1772614954548276500,5.7832763671875,-0.047535658156871795,0.019898878690600395,-0.052328249028534626
1772614954558343400,5.793343505859375,-0.036132220610976214,0.03473521329462528,-0.025014623402291908
1772614954568411400,5.803411376953125,-0.017946575579047202,0.05522270552814006,0.050848545564524825
1772614954578478300,5.813478271484375,-0.03723872054815292,0.06993219888210296,-0.009782517246599308
1772614954588546300,5.82354638671875,-0.060139119142293924,0.06063654727041721,-0.08759894373961724
1772614954598613500,5.833613525390625,-0.045023090814054006,0.030276480320096014,-0.09695744058759882
1772614954608681500,5.843681396484375,-0.0078971829906106,-0.023562077373266217,-0.15527869665296748
1772614954618748400,5.85374853515625,0.03750672383457422,-0.041454876938462254,-0.10570108433971181
1772614954628816400,5.86381640625,0.07778934212327003,-0.012041735449433325,0.03636030287896283
1772614954638884400,5.87388427734375,0.0724991267606616,0.0027186113089323043,0.16467638386702163
1772614954648951300,5.883951416015625,0.043325346985459326,-0.02454290510416031,0.11296247191112488
1772614954659019500,5.89401953125,-0.005179448464512825,-0.031191257077455518,-0.019406857389956712
1772614954669086500,5.90408642578125,-0.0601227525293827,0.0011684592574834824,-0.07659739239234477
1772614954679154400,5.914154541015625,-0.06863251446038485,-0.004691957208514213,-0.1198520396286156
1772614954689221400,5.924221435546875,-0.05535626877993345,-0.030998364853858946,-0.19050330089973286
1772614954699289300,5.934289306640625,-0.03499970944970846,-0.0006079027652740478,-0.13534203410209156
1772614954709357600,5.944357666015625,0.0005237316131591796,0.03126724492311477,0.0022351249411934984
1772614954719424500,5.954424560546875,0.008255494908988475,0.03358896586894989,0.05606135744252242
1772614954729492500,5.964492431640625,-0.013969780902564524,0.00398059406876564,-0.01670840751964133
1772614954739559400,5.974559326171875,-0.022686755843460558,-0.04019698583185673,-0.07169925422039813
1772614954749627400,5.98462744140625,-0.012563421235978603,-0.05527648154199123,-0.07478340177293867
1772614954759694300,5.9946943359375,-0.023780980820953843,-0.04504267229735851,-0.07971081170514226
1772614954769762300,6.00476220703125,-0.024199206233024597,-0.03464811953306198,-0.08556284393528475
1772614954779830500,6.01483056640625,-0.03730798639208078,-0.039485038170218464,-0.09240899263615719
1772614954789897500,6.0248974609375,-0.04193535393178463,0.009945639953017234,-0.060277943091094494
1772614954799965400,6.03496533203125,-0.05607493844330311,0.051363692012429234,-0.0004457618729677051
1772614954810032400,6.045032470703125,-0.05573650026917457,0.05337269374728203,-0.004117856248142197
1772614954820100400,6.055100341796875,-0.03865618613064289,0.050232642155885694,-0.023525567588047122
1772614954830167300,6.065167236328125,-0.0148161685988307,0.05826572648584842,-0.049125343067687934
1772614954840235500,6.075235595703125,0.0027066286101937293,0.06731412533819675,-0.039200759602431204
1772614954850302500,6.085302490234375,0.020405659168958663,0.0678916329652071,-0.027885169303347355
1772614954860370400,6.095370361328125,0.01959317374229431,0.06681202103495597,-0.009354660923080519
1772614954870438400,6.1054384765625,0.041669688732922074,0.07255904025435447,-0.0012029414823977276
1772614954880505300,6.11550537109375,0.060169222019612785,0.07546411404609679,0.013538992836442776
1772614954890573600,6.125573486328125,0.060411798603832716,0.059497314107418056,0.01362452482858207
1772614954900640500,6.135640625,0.041997605513036246,0.049119712477922434,-0.004014811432198621
1772614954910708500,6.14570849609375,0.026258769111335276,0.04195873480737209,0.013081910418439655
1772614954920775400,6.155775390625,0.007212123335897922,0.054233694490790366,0.02232333392512519
1772614954930843400,6.165843505859375,-0.04888473467826843,0.02807107923030853,-0.02720000005078036
1772614954940911400,6.175911376953125,-0.058466802015900605,-0.003925649011135101,-0.06282799746666569
1772614954950978300,6.185978271484375,-0.03582797696739435,-0.025872692403197287,-0.09495292323161847
1772614954961046500,6.196046630859375,-0.023243805204331874,-0.03780862939059734,-0.1063072335393168
1772614954971113500,6.206113525390625,-0.00010725976675748824,-0.046644262275099754,-0.08454933777749538
1772614954981181400,6.216181396484375,-0.00391220500767231,-0.043484921461343765,-0.06159455124814994
1772614954991248400,6.226248291015625,-0.022618366782367227,-0.02749766325652599,-0.04826103155566379
1772614955001316400,6.23631640625,-0.06260872412621975,-0.003998129725456237,-0.024771115236310287
1772614955011384600,6.246384521484375,-0.07836217357516288,0.02172726316154003,-0.0030761925749480724
1772614955021451500,6.256451416015625,-0.07265840897560119,0.060840545409917825,0.021190169743308795
1772614955031519500,6.26651953125,-0.05184241544008255,0.08753624463379382,0.00918067889593076
1772614955041586400,6.27658642578125,-0.027527181611955165,0.08897007682919501,-0.011765694987028837
1772614955051654400,6.286654296875,-0.026522096222639083,0.06925707609951495,-0.02551074092274066
1772614955061721300,6.296721435546875,-0.04135872308760881,0.08357026361227035,-0.03013498035701923
1772614955071789600,6.30678955078125,-0.04339344378560781,0.08315349950492382,-0.06153800788847729
1772614955081856500,6.3168564453125,-0.032196926988661285,0.048642158094048496,-0.07013225149884819
1772614955091924500,6.326924560546875,-0.043486090505123136,0.028955460849404334,-0.08162996146576479
1772614955101992400,6.336992431640625,-0.04002162926495075,0.019716507861018178,-0.09442681699828244
1772614955112059400,6.347059326171875,-0.030654373721778393,0.01629354767501354,-0.052551682520867324
1772614955122127400,6.35712744140625,-0.013666998563706874,0.026598084068298337,-0.006231272772117518
1772614955132194300,6.3671943359375,-0.005632745189964771,0.04869651862978935,-0.012019203957216814
1772614955142262500,6.377262451171875,0.00947831470221281,0.03850245687365532,-0.024207741165929473
1772614955152329500,6.38732958984375,0.054882513788342475,0.031048633736371994,-0.03678841036423109
1772614955162397400,6.3973974609375,0.08110475028157234,0.005135609322786331,-0.06408871071801986
1772614955172465400,6.40746533203125,0.08519903385788202,-0.016803250762820243,-0.04726971896337345
1772614955182532400,6.417532470703125,0.07465455122888087,-0.023120763346552848,-0.009889411687175742
1772614955192600600,6.4276005859375,0.040189094786345955,-0.0005658171892166138,-0.009259662416274659
1772614955202667500,6.43766748046875,-0.0027639117553830144,0.00803834502696991,-0.031428646029904486
1772614955212735500,6.447735595703125,-0.018886194516718385,0.008481412619352341,-0.054715103065874425
1772614955222802400,6.457802490234375,-0.011362521013617516,0.01191430967748165,-0.04912822914451826
1772614955232870400,6.467870361328125,0.009568038812279701,-0.0047714521855115885,-0.05127899113735184
1772614955242938400,6.4779384765625,0.007376666247844696,-0.005636544582247734,-0.05611186378705315
1772614955253005300,6.48800537109375,-0.011182196010649204,-0.008859013760089874,-0.05583612471874803
1772614955263073500,6.498073486328125,-0.05448299307674169,-0.0010568155765533446,-0.00008712572760414332
1772614955273140500,6.508140380859375,-0.10538257470875978,0.03786006731688976,0.05582363056335598
1772614955283208400,6.51820849609375,-0.1587500077590346,0.05824293013215065,0.05506227253573015
1772614955293275400,6.528275390625,-0.16262188075631856,0.048533437022566794,0.019688354912190696
1772614955303343400,6.53834326171875,-0.13245762863904237,0.037004327270388604,-0.03321077335645677
1772614955313410300,6.548410400390625,-0.08087415639609098,0.007636778488755226,-0.06963806564058177
1772614955323478500,6.558478515625,-0.04770370820015669,-0.03199029850065708,-0.07628439918672665
1772614955333546500,6.56854638671875,-0.00710457130819559,-0.02480769352018833,-0.09284220555480568
1772614955343613400,6.578613525390625,0.01129910038858652,-0.015897241833806038,-0.05668182742842473
1772614955353681400,6.588681396484375,0.01600070220828056,-0.011704466319084167,-0.03836725422062445
1772614955363748400,6.598748291015625,0.004107435318827629,0.0028723405659198758,-0.07555000679783988
1772614955373816600,6.608816650390625,-0.009859715235233307,0.03191255708932876,-0.08427283152421004
1772614955383883500,6.618883544921875,-0.008113163828849792,0.03645078504085541,-0.10256117887878789
1772614955393951500,6.628951416015625,-0.00007949497699737548,0.06304770006537437,-0.06133488196523394
1772614955404019500,6.63901953125,0.016041911001503466,0.07064414654374122,0.028512484588567165
1772614955414086400,6.64908642578125,0.03167407215833664,0.05981295592784881,0.1296765465531498
1772614955424154400,6.659154296875,0.007065992863476276,0.04079436720311642,0.13410512185143306
1772614955434221300,6.66922119140625,-0.022602292430400846,0.007636193966865539,0.0039007063661236313
1772614955444289500,6.67928955078125,-0.035059622943401335,-0.03848316765129566,-0.1464648463420104
1772614955454356500,6.6893564453125,0.0012926701590418815,-0.05421791239976883,-0.22384422855805605
1772614955464424400,6.699424560546875,0.013162556172907352,-0.05853577559888363,-0.2211834118509665
1772614955474492400,6.709492431640625,0.022522212931513786,-0.022805706048011777,-0.1592998967267573
1772614955484559400,6.719559326171875,0.03379237948656082,0.010987842482328414,-0.09460364400306716
1772614955494627600,6.729627685546875,0.03418634724020958,0.06142448277771473,0.022488644022052175
1772614955504694500,6.739694580078125,0.022293372611701487,0.08457564126253128,0.10916877871658652
1772614955514762500,6.749762451171875,-0.0001312251642346382,0.09949906962811947,0.12627181614357977
1772614955524829400,6.759829345703125,-0.029788404542207717,0.09451543599665164,0.076266324673919
1772614955534897400,6.7698974609375,-0.04795242226421833,0.07470248202383518,-0.01007335341933649
1772614955544964000,6.779964111328125,-0.05284253239333629,0.045021629509329794,-0.0788949287449941
1772614955555032000,6.790031982421875,-0.04841974751502275,0.018040099081397056,-0.14564034168398937
1772614955565100300,6.800100341796875,-0.038867490793764586,-0.022446809607744214,-0.19414973111068828
1772614955575167200,6.810167236328125,-0.001441138719022274,-0.05997428396940231,-0.15314221434723585
1772614955585235200,6.820235107421875,0.006771978352963924,-0.07111410214304924,-0.09896384850656613
1772614955595302100,6.83030224609375,-0.007661912930011749,-0.04517126711308956,-0.04612838060825597
1772614955605370000,6.8403701171875,-0.067712769266963,0.005030395382642746,0.00983311035609804
1772614955615437000,6.85043701171875,-0.10885638829916715,0.04076747919619083,0.05643129130003508
1772614955625505300,6.86050537109375,-0.1291276074334979,0.06412789651751517,0.04811473211988341
1772614955635573200,6.8705732421875,-0.10292524468451737,0.06268763458132744,0.009973660471104085
1772614955645640200,6.88064013671875,-0.0676601622968912,0.05703180077672004,-0.0212289354176959
1772614955655708200,6.890708251953125,-0.011617372557520865,0.060230304557085036,-0.04076404969666619
1772614955665775000,6.900775146484375,0.021179858411848544,0.04856324763894081,-0.06780704168798402
1772614955675843300,6.91084326171875,0.058491351935267444,0.03107961339652538,-0.07009652716491836
1772614955685910300,6.92091015625,0.07173866378217936,0.020473463708162307,-0.05922418255473021
1772614955695978200,6.930978271484375,0.050582478506863114,0.026220482927560806,-0.04360220029861666
1772614955706046200,6.941046142578125,0.021179858411848544,0.02833995929956436,-0.05623157204343006
1772614955716113200,6.951113037109375,-0.0123980015411973,0.011153262177109718,-0.047361803993885405
1772614955726181000,6.96118115234375,-0.046782793962955475,-0.016599837145209313,-0.06580688541329
1772614955736248000,6.971248046875,-0.0791264359459281,-0.019973697492480277,-0.11582918645385652
1772614955746316300,6.98131640625,-0.10395166512280701,-0.010725976675748825,-0.11307435305407271
1772614955756383200,6.99138330078125,-0.13235095339417458,0.00004968436062335968,-0.11364422536389901
1772614955766451200,7.001451171875,-0.12564239566624164,0.024519524228572846,-0.0948565501850564
1772614955776518100,7.01151806640625,-0.10361118112206459,0.03582651566267013,-0.052834024859894996
1772614955786586000,7.021586181640625,-0.06414192504286766,0.0538444029122591,-0.025029199916915965
1772614955796654300,7.031654296875,-0.025043548102676866,0.06917115138173104,-0.013705440011108294
1772614955806721300,7.04172119140625,0.01579904215633869,0.060146717926859855,-0.015689608698803932
1772614955816789200,7.051789306640625,0.0408975353166461,0.061140989661216734,-0.0083728696443839
1772614955826856200,7.061856201171875,0.05656126065552234,0.06280804609060286,0.012568266374454833
1772614955836924200,7.071924072265625,0.05065028304606676,0.032332243806123734,-0.006278550546523183
1772614955846991000,7.0819912109375,0.02905395278781652,0.017220599392056463,-0.038697193994466215
1772614955857059300,7.092059326171875,-0.0001999064862728119,0.014915829581022262,-0.08007359886923804
1772614955867127300,7.102127197265625,-0.035220658724009986,0.022444471520185468,-0.0531496484140167
1772614955877194200,7.1121943359375,-0.03219371211826801,0.03532733396887779,-0.029216322008986023
1772614955887262200,7.12226220703125,-0.013087445110082625,0.030682138511538504,-0.05233031312145758
1772614955897329200,7.1323291015625,0.0029015666604042052,0.01643207936286926,-0.07325280837190802
1772614955907397000,7.142397216796875,0.004917582657933235,0.023469138392806052,-0.04436965470688883
1772614955917464000,7.152464111328125,-0.0037187282621860504,0.021838322320580483,-0.033703399728587824
1772614955927532300,7.1625322265625,-0.02826689406335354,0.00365033920109272,-0.08977580372150987
1772614955937600300,7.172600341796875,-0.07032412080913782,-0.02531388947665691,-0.10186771672191097
1772614955947667200,7.182667236328125,-0.07997223912030459,-0.009928104296326637,-0.09707158675286919
1772614955957735200,7.192735107421875,-0.06744944215565919,-0.004341244074702263,-0.05522622179263271
1772614955967802000,7.202802001953125,-0.05297171173095703,0.0068003276646137235,-0.019021506767603568
1772614955977870300,7.212870361328125,-0.04495031783878803,0.026651275560259816,0.008040555250365287
1772614955987937300,7.222937255859375,-0.05169540818482637,0.040997780820727345,0.020503776648035273
1772614955998005200,7.233005126953125,-0.025842589525878427,0.03985620957016945,0.03816403696583584
1772614956008072200,7.243072265625,-0.03150485307127237,0.030811902371048926,0.020672488845023325
1772614956018140200,7.25314013671875,-0.04528086496740579,0.03333937502205372,-0.024804985539871267
1772614956028208000,7.2632080078125,-0.032009295462071895,0.017165654334425927,-0.09430060593588277
1772614956038275300,7.273275390625,-0.0266390006005764,-0.018216624692082403,-0.13294957687444983
1772614956048343300,7.28334326171875,-0.010801379999518393,-0.003895253872871399,-0.09635530997598543
1772614956058410200,7.29341015625,-0.007635901705920696,0.005429623833298683,-0.07764595159720629
1772614956068478200,7.303478271484375,-0.007778525047004222,0.0173889416962862,-0.010038460202468558
1772614956078545200,7.313545166015625,-0.003911620485782623,0.026494623693823813,0.06483752435790374
1772614956088613000,7.323613037109375,0.001056231054663658,0.03091244013607502,0.08047559466571547
1772614956098681000,7.33368115234375,0.0023740356549620625,0.04787877250611782,0.0711121476479806
1772614956108748300,7.343748291015625,0.006971592578291892,0.03879296425282955,0.05698629026771523
1772614956118816300,7.353816162109375,-0.00959814168959856,0.054389761835336684,0.007265173263964243
1772614956128883200,7.36388330078125,-0.016983575765788555,0.030026304951310156,-0.09531071456018834
1772614956138951200,7.373951171875,0.011090718334913253,-0.011042203018069267,-0.2335220113551244
1772614956149018000,7.38401806640625,0.054551966659724706,-0.029250059881806373,-0.230341737351194
1772614956159086300,7.39408642578125,0.11276216356605291,-0.005147299760580063,-0.08159131908896379
1772614956169154000,7.404154052734375,0.11945201659351587,0.02727554493844509,0.03295055836755782
1772614956179221200,7.41422119140625,0.10383096135258674,0.03034545390307903,0.10158964869920163
1772614956189289200,7.424289306640625,0.07602963897436857,0.014629413855075836,0.08754232731470837
1772614956199356200,7.434356201171875,0.000052022448182106015,-0.007373743638396262,0.010082500273594633
1772614956209424100,7.444424072265625,-0.0807560829743743,-0.020547697988152504,-0.0863654838213697
1772614956219491300,7.4544912109375,-0.15026362670361995,-0.02276946569085121,-0.16537322529107332
1772614956229559300,7.464559326171875,-0.19352672210782765,0.003516483688354492,-0.15941886519761755
1772614956239626200,7.474626220703125,-0.1820072569668293,0.04460603444576263,-0.09192706347126513
1772614956249694200,7.484694091796875,-0.15335165584683416,0.07870061174929141,-0.031199563681497237
1772614956259762200,7.49476220703125,-0.09658172087669371,0.08834697649478912,0.022586565138306466
1772614956269829000,7.5048291015625,-0.05602057790756225,0.11068681859672069,0.04865651084638666
1772614956279897000,7.51489697265625,-0.02850684029906988,0.12288871304392814,0.06006587124299258
1772614956289964300,7.52496435546875,0.0012447393640875816,0.11521978585124015,0.056765898115839805
1772614956300032300,7.5350322265625,0.028654139815270898,0.09962941800951958,0.003757649200200103
1772614956310099200,7.54509912109375,0.046592824348807335,0.058142392367124554,-0.10189504312025383
1772614956320167200,7.555167236328125,0.06480798773616551,0.004241290831565857,-0.14957012801412492
1772614956330235100,7.565235107421875,0.06847030963599682,-0.04022036670744419,-0.15379516183063388
1772614956340302300,7.57530224609375,0.050138826392591,-0.06674772362709044,-0.11670885536521673
1772614956350370000,7.5853701171875,0.011225742891430855,-0.07076455805301665,-0.06896674225027673
1772614956360437200,7.595437255859375,-0.02165098305493593,-0.0674865592956543,-0.023754869132163
1772614956370505200,7.605505126953125,-0.05276537550389766,-0.06779284876585007,-0.013337017690669745
1772614956380572200,7.615572265625,-0.0648112026065588,-0.02667290287017822,0.009786439936468378
1772614956390640000,7.62564013671875,-0.06517331391721963,0.0011205284625291825,0.010423198903468437
1772614956400708000,7.6357080078125,-0.06465250491350889,0.030517887860536573,0.0007707149444380775
1772614956410775300,7.645775390625,-0.02682663212716579,0.04224456601142883,0.03443913469118997
1772614956420843000,7.655843017578125,0.020582769301533698,0.04462999984323978,0.008963081489340401
1772614956430910200,7.66591015625,0.060922670735418794,0.03606558511555195,0.0006013131942832843
1772614956440978200,7.675978271484375,0.06751286278069019,0.017911504265666008,-0.031025106730312106
1772614956451045000,7.686045166015625,0.06724924340844154,-0.014555179575085639,-0.08945455414419994
1772614956461113000,7.696113037109375,0.04654109416157007,-0.025317981129884717,-0.10450460456414147
1772614956471181000,7.70618115234375,0.02735474765449762,-0.030380525216460227,-0.0980276088360697
1772614956481248300,7.716248291015625,0.0021218144595623015,-0.043186815297603605,-0.131779254453443
1772614956491316000,7.72631591796875,-0.02560819624811411,-0.028411270970106123,-0.10439047666518017
1772614956501383200,7.736383056640625,-0.06983107659518718,0.0031938276052474973,-0.06891953297453
1772614956511451100,7.746451171875,-0.11376841799914836,0.045099955442547794,-0.009459737865906209
1772614956521518300,7.756518310546875,-0.13435001825690268,0.08346914132535457,0.01642585055148229
1772614956531586000,7.7665859375,-0.1209489771530032,0.10494096842110157,0.03785993945272639
1772614956541653200,7.7766533203125,-0.09631868602633475,0.07816051352322101,-0.008526521269557998
1772614956551721000,7.786720947265625,-0.02636398305147886,0.017283727756142616,-0.11849744668188504
1772614956561788700,7.79678857421875,0.03434153780192137,-0.014607786545157432,-0.11779308867165818
1772614956571856000,7.80685595703125,0.08259674240499734,-0.007357961547374725,-0.06581767623536289
1772614956581923800,7.816923828125,0.08506488608419895,-0.016965747848153113,-0.06788698418955318
1772614956591991000,7.826990966796875,0.06973287691771984,0.007011924588680267,-0.036431523217959325
1772614956602059000,7.83705908203125,0.05764964041411876,0.04222703035473823,-0.04104319086503237
1772614956612126000,7.8471259765625,0.031542846994102,0.0638303748756647,-0.05803405488813296
1772614956622194000,7.85719384765625,0.022106617867946623,0.10020692563652991,-0.06499324464257807
1772614956632261600,7.86726171875,0.043970074629783626,0.09542495205700396,-0.06862794788312167
1772614956642328800,7.877328857421875,0.0446639021128416,0.07411737561225891,-0.09016406325357966
1772614956652396800,7.887396728515625,0.05199497565329075,0.08260404892861843,-0.04507442827564664
1772614956662464000,7.897464111328125,0.06498714369535445,0.06828326263129711,0.03327295872233808
1772614956672532000,7.907531982421875,0.03539659981280565,0.024534137275815007,0.021799670810624956
1772614956682599000,7.917598876953125,-0.0028007366344332692,-0.01073532902598381,-0.07467054338245652
1772614956692667000,7.9276669921875,-0.03830956465005875,-0.05011749134361743,-0.1262690579309128
1772614956702734800,7.93773486328125,-0.05200286669880151,-0.06733107647299766,-0.09730288389124907
1772614956712802000,7.947802001953125,-0.05099047478586435,-0.052905076235532755,-0.09655500639970414
1772614956722869800,7.957869873046875,-0.05638239695727825,-0.055441901236772534,-0.0773803411972709
1772614956732937000,7.96793701171875,-0.04033259491026401,-0.03644786243140697,-0.0776637703816872
1772614956743004700,7.978004638671875,-0.018827157805860043,-0.008235913425683975,-0.04226997444732115
1772614956753071900,7.98807177734375,-0.016901158179342745,0.009732873985171317,-0.003548760256450623
1772614956763139800,7.998139892578125,-0.021619126611948012,0.047587680605053896,0.0382885127288755
1772614956773207800,8.008207763671875,-0.009326046749949454,0.044350598379969595,0.03137085142806172
1772614956783275000,8.01827490234375,-0.024660978525876998,0.05599076729118824,-0.016678683668235317
1772614956793342700,8.0283427734375,-0.03227028448581695,0.06054243924617767,-0.04609832796328701
1772614956803410000,8.038409912109374,-0.01595803211033344,0.04314414519965648,-0.042572099199052894
1772614956813477600,8.0484775390625,0.021609482000768183,0.03361936100721359,-0.02580844979425892
1772614956823544800,8.058544921875,0.049159459966421126,0.02529927642941475,-0.020216785533353685
1772614956833612800,8.06861279296875,0.0702685912296176,0.017954758885502815,-0.029272673572413623
1772614956843680800,8.0786806640625,0.056200318388640876,0.00734334850013256,-0.051974270791979506
1772614956853748000,8.088748046875,0.015533961479365825,0.012663082218170165,-0.05992037095823325
1772614956863815700,8.098815673828126,-0.020916239039599896,0.01670972726047039,-0.050556631679553536
1772614956873883000,8.1088828125,-0.05041442846357822,0.020896657556295394,-0.045649954008124764
1772614956883950800,8.118950927734375,-0.05345452681183815,0.0327782340079546,-0.05256334099262021
1772614956894018000,8.12901806640625,-0.037703123189508914,0.01823825200200081,0.001337979738647118
1772614956904085800,8.139085693359375,0.009239829771220684,0.014980126988887786,0.09295577633134089
1772614956914153000,8.149153076171874,0.0038859015226364135,0.003398410266637802,0.10445013443054631
1772614956924221000,8.159220947265625,-0.023561785112321376,-0.00969488006234169,0.021787249720469117
1772614956934288600,8.16928857421875,-0.06303922449797392,-0.02199088253378868,-0.08697379757859744
1772614956944355800,8.17935595703125,-0.1119783197119832,-0.012681786918640137,-0.13117653931993992
1772614956954423800,8.189423828125,-0.12194324888736009,0.010744681376218795,-0.1421508556004148
1772614956964491000,8.199490966796875,-0.10658493623584508,0.04246726885139942,-0.08972980002216063
1772614956974558700,8.209558837890626,-0.054231064142286775,0.05747603741288185,-0.06382416433058678
1772614956984626000,8.2196259765625,0.003588379880785942,0.06825695914626122,-0.015002868543658404
1772614956994693600,8.229693603515624,0.07232756958603859,0.06568973900675773,0.024685373181616885
1772614957004761900,8.239761962890626,0.09398469012081623,0.06578910772800445,0.025831282680574802
1772614957014828800,8.249828857421875,0.12431056254059075,0.056502808466553686,-0.005576055699819699
1772614957024896800,8.259896728515624,0.13034692009538412,0.018514146333932877,-0.018827650996204464
1772614957034964000,8.2699638671875,0.10798661972731351,-0.006592237871885299,-0.06088191859992221
1772614957045031700,8.28003173828125,0.07501666253954171,-0.026898528319597242,-0.1322255003836006
1772614957055099000,8.290098876953126,0.025489830565452575,-0.024292145213484762,-0.13286574364905246
1772614957065166800,8.300166748046875,0.0176090141877532,-0.016125205370783807,-0.10907264313204214
1772614957075234800,8.31023486328125,0.009249766643345356,-0.022687048104405402,-0.10324384564701466
1772614957085301800,8.3203017578125,-0.013896423405408859,-0.018738602739572525,-0.07305147254695184
1772614957095369700,8.33036962890625,-0.017321721678972245,-0.007875263419747352,-0.001581652301410213
1772614957105437000,8.34043701171875,-0.044236908872425554,0.0011737199544906616,0.015566868235124274
1772614957115504600,8.350504638671875,-0.052173547090589995,-0.003114332628250122,-0.014033557720622047
1772614957125571800,8.36057177734375,-0.053283261898159975,0.01652326477766037,-0.06833847255040891
1772614957135639800,8.370639892578126,-0.03989741836339235,0.03436813354790211,-0.05271718898061663
1772614957145707800,8.380707763671875,-0.016489070247113703,0.056541386911273,-0.016678263543127105
1772614957155774700,8.390774658203124,0.02419599136263132,0.06259177299141884,0.031394561097212136
1772614957165842700,8.4008427734375,0.043077509704232214,0.04514730171561241,0.017167663628421724
1772614957175909600,8.41090966796875,0.01798106237053871,0.011518003836274146,-0.04404744158177636
1772614957185977900,8.420977783203124,-0.007883446726202965,0.006320435193181037,-0.04497949826749973
1772614957196044800,8.431044921875,-0.05312719455361366,0.0016080197185277937,-0.03434655190375634
1772614957206112800,8.44111279296875,-0.07556465181112289,0.008562076640129089,-0.050383521868661046
1772614957216180000,8.451179931640626,-0.07136924594789743,0.027462591943144796,-0.037662115325685586
1772614957226247700,8.46124755859375,-0.05924509291201829,0.020219196686148643,-0.011385289967851712
1772614957236315600,8.471315673828125,-0.0545087120398879,0.02634966226518154,-0.01980012189070694
1772614957246382800,8.4813828125,-0.049423663860559464,0.030375264519453046,0.0098034641365055
1772614957256450800,8.491450927734375,-0.05024813198596239,0.05353635987639427,0.04762124494793825
1772614957266517800,8.501517822265624,-0.0498749147593975,0.06264847161471844,0.02624070373168215
1772614957276585700,8.511585693359375,-0.03966068699806928,0.08322422665357589,0.018267478096485136
1772614957286653000,8.52165283203125,0.0003349310427904129,0.08677870426476002,0.01784293254148215
1772614957296720600,8.531720703125,0.03990764749646187,0.07984335204362869,0.029420384080568327
1772614957306788900,8.541788818359375,0.0741828420639038,0.04611410092115402,0.02144429063485004
1772614957316855800,8.551855712890625,0.07928980981409549,0.00734510206580162,0.0016833043112885206
1772614957326923800,8.561923828125,0.06204261467605829,-0.020648235753178597,-0.029285779649158936
1772614957336990700,8.57199072265625,0.009236614900827408,-0.010419102683663367,-0.02192729751197621
1772614957347058700,8.58205859375,-0.049420448990166184,0.007136427751183509,-0.003356388622662052
1772614957357125600,8.592125732421875,-0.07930500738322735,0.0257850141197443,0.022725398220261556
1772614957367193900,8.60219384765625,-0.06793225723654031,0.03255377760231495,0.008209363345475867
1772614957377261800,8.61226171875,-0.056273968146741384,0.004687865555286407,-0.012610603112261741
1772614957387328800,8.622328857421875,-0.046267245656251905,0.004655132329463958,-0.0261112412662711
1772614957397396700,8.632396728515625,-0.014696926133334636,-0.0028659108251333234,-0.049877234580647196
1772614957407463700,8.642463623046876,-0.006593991437554359,-0.011714403191208839,-0.024232670111209154
1772614957417531600,8.65253173828125,-0.012058978845179081,-0.004393851044774055,-0.026325660335086286
1772614957427598800,8.662598876953124,-0.015267711758613585,0.014746902754902839,-0.033939642470143735
1772614957437666800,8.672666748046876,-0.023187691102921962,0.030125089150667188,0.027966952135553582
1772614957447734800,8.68273486328125,-0.03251782950609922,0.04729541966021061,0.05671747413054108
1772614957457801700,8.6928017578125,-0.03417524132430553,0.046026422637701035,0.04163435255805962
1772614957467869700,8.70286962890625,-0.035657004314661025,0.05145955360233784,0.024822032572794705
1772614957477936600,8.7129365234375,-0.0022205986589193343,0.05074117619991302,-0.004614718120684847
1772614957488004900,8.7230048828125,0.024217034150660035,0.031955227187275885,-0.046540317843435326
1772614957498071800,8.73307177734375,0.06562953325212001,0.010588614031672477,-0.07972168929218314
1772614957508139800,8.743139892578125,0.06861790141314268,0.02637713479399681,-0.06241153018684126
1772614957518207700,8.753207763671876,0.04583002328276634,0.03686228845119476,0.018550130962766705
1772614957528274700,8.763274658203125,0.013050620231032371,0.04398118054568767,0.0516343530468177
1772614957538343000,8.773343017578124,-0.0024541151538491246,0.04768938741385936,0.02949152222117409
1772614957548409900,8.783409912109375,-0.023063187940418717,0.023947861820459364,-0.005107205212209373
1772614957558478000,8.79347802734375,-0.01771481264978647,-0.015342530560493468,-0.08805560146593489
1772614957568545000,8.803544921875,-0.005775368531048298,-0.04409808492362499,-0.12662247447846456
1772614957578613000,8.813613037109375,-0.03075812635719776,-0.053526423004269595,-0.11247827772391028
1772614957588681000,8.823680908203125,-0.06446984182298184,-0.040077158844470974,-0.07082118361108004
1772614957598748000,8.833747802734376,-0.07202478724718094,0.0005628945797681808,-0.03351589149958454
1772614957608815900,8.84381591796875,-0.07136252394616603,0.028331191471219062,0.04813400764251127
1772614957618882800,8.8538828125,-0.04846563248336315,0.04421440477967262,0.11659380501764825
1772614957628951000,8.863950927734376,-0.0005588029265403748,0.05118950448930263,0.12531200380125082
1772614957639018000,8.87401806640625,0.03578530686944723,0.03048398559093475,0.06647207589033059
1772614957649086000,8.8840859375,0.05759440309554338,-0.017889292433857916,-0.04088499549548141
1772614957659154000,8.89415380859375,0.0688651541724801,-0.07604688237011432,-0.2254409414312802
1772614957669220900,8.904220947265625,0.04488134425580501,-0.08703530937433242,-0.3046128787530586
1772614957679289000,8.9142890625,0.007980477359890938,-0.06314940687417983,-0.21036489805355668
1772614957689356000,8.92435595703125,0.005474924279749393,-0.01752104364335537,-0.09857986329081468
1772614957699424000,8.934424072265625,0.0002829085946083069,0.03729308108389377,-0.030977796989865598
1772614957709491000,8.944490966796875,-0.013206395314633846,0.07741817072331905,0.03865183874908835
1772614957719559000,8.954558837890625,-0.001505143865942955,0.10827917293310164,0.07604715636475011
1772614957729625900,8.9646259765625,0.019241876086592672,0.10894552788734435,0.07958892975798808
1772614957739694000,8.974694091796875,0.04038461735844612,0.06273498085439205,-0.0029737825132440773
1772614957749762000,8.984761962890625,0.04831307227015495,-0.005052607214450836,-0.14817823526430873
1772614957759829000,8.9948291015625,0.046799160575866694,-0.041266076368093485,-0.22858459148555993
1772614957769897000,9.00489697265625,0.022766250820457933,-0.04490004895627498,-0.16891988492198287
1772614957779964000,9.0149638671875,-0.004941548055410385,-0.004703063124418258,-0.04134017365076579
1772614957790032000,9.025031982421876,-0.02988718874156475,0.049479193440079686,0.0428374356043525
1772614957800098800,9.035098876953125,-0.04265022420287132,0.1060416231393814,0.06953454133402556
1772614957810167000,9.0451669921875,-0.03428220883011818,0.14362345803678034,0.13427990302960388
1772614957820235000,9.055235107421876,-0.04461918618828058,0.1913964320808649,0.13409814412137494
1772614957830302000,9.065302001953125,0.037803660954535,0.16162965484857558,0.11265518692708573
1772614957840370000,9.075369873046874,0.2860088987112045,0.11871756483912467,-0.047050559787359086
1772614957850436900,9.085436767578125,0.331945012716949,-0.052931379720568654,-0.18668072867058216
1772614957860505000,9.095505126953125,0.33240736953169103,-0.17476327718794346,-0.3439112717773765
1772614957870572000,9.105572021484376,0.23547405873835087,-0.21028701051175594,-0.27696890236102045
1772614957880640000,9.115639892578125,0.014114450070261955,-0.13425240310132502,-0.09500080836080015
1772614957890708000,9.1257080078125,-0.17549042241871357,-0.007816226708889007,-0.009269923515385017
1772614957900775000,9.13577490234375,-0.3450710362717509,0.033279169267415996,0.007387461636494844
1772614957910843000,9.1458427734375,-0.4681690081521868,0.04183247807919979,-0.000915717472275719
1772614957920910000,9.15591015625,-0.5205711033016442,0.07894611094295978,0.0020816742454189806
1772614957930978000,9.16597802734375,-0.49707098524868487,0.10153437484800815,0.0010902977210469544
