time,seconds_elapsed,z,y,x
1772614948829904100,0.064904052734375,0.01336110569536686,0.008639289997518063,0.007661353796720505
1772614948839971000,0.07497119140625,0.029354089871048927,0.0006043273024260998,0.004280143417418003
1772614948850039000,0.0850390625,0.029773803427815437,-0.004256473854184151,0.0007117737550288439
1772614948860106000,0.09510595703125,0.01735326647758484,0.0010556515771895647,-0.007043285295367241
1772614948870174000,0.105174072265625,0.012957186438143253,0.00240534171462059,-0.00836554542183876
1772614948880241000,0.115240966796875,0.006320550572127104,0.0007178925443440676,-0.017279449850320816
1772614948890309000,0.12530908203125,-0.008616853505373001,0.0007240178529173136,-0.028095878660678864
1772614948900377000,0.135377197265625,-0.011026601307094097,0.004852689802646637,-0.030916348099708557
1772614948910444000,0.145444091796875,-0.005372709594666958,-0.0014206522610038519,-0.03580963611602783
1772614948920512000,0.155511962890625,-0.0014841527445241809,-0.00645017996430397,-0.023045958951115608
1772614948930579000,0.165578857421875,0.0014698256272822618,-0.005035774782299995,0.00010543339885771275
1772614948940647200,0.175647216796875,0.01110661868005991,-0.004245643503963947,0.023475829511880875
1772614948950714000,0.185714111328125,0.021470841020345688,-0.009673165157437325,0.042061496526002884
1772614948960782000,0.195781982421875,0.030206890776753426,-0.016003254801034927,0.05028267949819565
1772614948970849000,0.20584912109375,0.026302164420485497,-0.013624785467982292,0.0468466691672802
1772614948980917000,0.2159169921875,0.020906560122966766,-0.012968776747584343,0.035685792565345764
1772614948990985000,0.22598486328125,0.011258726008236408,-0.01631424017250538,0.014975186437368393
1772614949001052000,0.236052001953125,0.0007733069360256195,-0.00895974226295948,-0.007950219325721264
1772614949011120000,0.2461201171875,-0.006841735914349556,0.007405383512377739,-0.030980968847870827
1772614949021187000,0.25618701171875,-0.007117144763469696,0.02227388508617878,-0.05002401024103165
1772614949031255000,0.266255126953125,0.0018843396101146936,0.02185283973813057,-0.05093640834093094
1772614949041322000,0.276322021484375,-0.0034207820426672697,0.013146777637302876,-0.03427186235785484
1772614949051390000,0.286389892578125,-0.010515443980693817,0.004179647658020258,-0.009330028668045998
1772614949061457000,0.296456787109375,-0.00600437680259347,0.0013459071051329374,0.010142719373106956
1772614949071525000,0.306525146484375,-0.0008540897979401052,-0.008157849311828613,0.026418093591928482
1772614949081593000,0.316593017578125,0.0019171019084751606,-0.0120709128677845,0.03116624243557453
1772614949091660000,0.326659912109375,0.008527866564691067,-0.00867245253175497,0.03458414226770401
1772614949101728000,0.33672802734375,0.01455599069595337,-0.009099078364670277,0.033013634383678436
1772614949111795000,0.346794921875,0.01593896932899952,-0.0026217380072921515,0.029513176530599594
1772614949121863200,0.35686328125,0.009067886509001255,0.006988268345594406,0.022074401378631592
1772614949131930000,0.36693017578125,0.00963833648711443,0.008548347279429436,0.019979292526841164
1772614949141998000,0.376998046875,0.006676520220935345,0.0037390447687357664,0.016011592000722885
1772614949152065000,0.38706494140625,0.0034658131189644337,-0.00429491326212883,0.011128687299787998
1772614949162133000,0.397133056640625,0.0015821534907445312,-0.005513435695320368,-0.00037329597398638725
1772614949172201000,0.407200927734375,-0.0016101778019219637,-0.014099733904004097,0.001323404023423791
1772614949182268000,0.417267822265625,-0.000049403985030949116,-0.01476730965077877,0.004211683291941881
1772614949192336100,0.427336181640625,0.009093760512769222,-0.019843295216560364,0.01020459458231926
1772614949202403000,0.437403076171875,0.0193959791213274,-0.011229125782847404,0.005088890437036753
1772614949212471000,0.447470947265625,0.023861832916736603,0.0048539708368480206,-0.012846700847148895
1772614949222538000,0.4575380859375,0.02134360373020172,0.0007901417557150126,-0.02523423358798027
1772614949232606000,0.46760595703125,0.02013399638235569,-0.011791163124144077,-0.025881648063659668
1772614949242673000,0.4776728515625,0.015276619233191013,-0.016487041488289833,-0.01767122745513916
1772614949252741000,0.4877412109375,0.006794983986765146,-0.01587850973010063,-0.004595107398927212
1772614949262809000,0.49780908203125,-0.0042379023507237434,-0.00798847246915102,0.017950840294361115
1772614949272876000,0.5078759765625,-0.007742622401565313,-0.006132248789072037,0.03138542175292969
1772614949282944000,0.517944091796875,-0.01001019962131977,-0.003423626534640789,0.028772516176104546
1772614949293011000,0.528010986328125,-0.007620546035468578,0.004396479576826096,0.025103745982050896
1772614949303079000,0.538078857421875,-0.0010309024946764112,0.004637661390006542,0.016910193488001823
1772614949313146000,0.54814599609375,0.010473953559994698,-0.0029984205029904842,0.006766480393707752
1772614949323214000,0.558214111328125,0.01183997467160225,-0.011468644253909588,0.0016496137250214815
1772614949333281000,0.568281005859375,0.014130293391644955,-0.012558143585920334,-0.003278565825894475
1772614949343349000,0.578348876953125,0.005492469295859337,-0.0028248329181224108,-0.0063130054622888565
1772614949353417000,0.5884169921875,0.006530037149786949,0.0037941874470561743,-0.009963666088879108
1772614949363484000,0.59848388671875,0.007648482918739319,-0.0020844312384724617,-0.011414161883294582
1772614949373552000,0.60855224609375,0.015742894262075424,-0.004081801977008581,-0.012788886204361916
1772614949383619000,0.618619140625,0.016009967774152756,-0.005904664285480976,-0.01577678881585598
1772614949393687000,0.62868701171875,0.018600957468152046,-0.008260229602456093,-0.013979687355458736
1772614949403754000,0.63875390625,0.013930879533290863,-0.0073102302849292755,-0.011183465830981731
1772614949413822000,0.648822021484375,0.007377373054623604,-0.009672719985246658,-0.0024136763531714678
1772614949423889000,0.658888916015625,0.00041449686978012323,-0.010944019071757793,0.005048264749348164
1772614949433957000,0.66895703125,-0.007385902106761932,-0.0057295504957437515,0.014901694841682911
1772614949444025000,0.679025146484375,-0.005484855268150568,-0.003984956536442041,0.020049991086125374
1772614949454092000,0.689092041015625,-0.0031412735115736723,-0.0029465900734066963,0.02039220556616783
1772614949464160000,0.699159912109375,-0.003546175779774785,0.0027932568918913603,0.011844400316476822
1772614949474227000,0.70922705078125,-0.00447189062833786,0.009822404012084007,0.0028706127777695656
1772614949484295000,0.719294921875,-0.007404256146401167,0.0097873006016016,-0.0009287503780797124
1772614949494362000,0.729362060546875,-0.007269766181707382,-0.002827560296282172,0.001047581434249878
1772614949504430000,0.73943017578125,-0.005922634620219469,-0.00612622918561101,0.009291049093008041
1772614949514497000,0.7494970703125,-0.0006104271160438657,-0.004227927885949612,0.006176748313009739
1772614949524565000,0.75956494140625,0.0004683337174355984,-0.0003463299944996834,0.0074575962498784065
1772614949534632700,0.7696328125,0.0035687859635800123,-0.011992067098617554,0.010148987174034119
1772614949544699600,0.77969970703125,0.002444278448820114,-0.01284883264452219,0.005754328332841396
1772614949554767600,0.789767578125,0.002328697592020035,-0.010972103103995323,-0.000860963948071003
1772614949564834800,0.799834716796875,-0.005905039142817259,-0.0017400402575731277,-0.016543956473469734
1772614949574902800,0.80990283203125,-0.01434885710477829,0.0074806222692132,-0.022389328107237816
1772614949584969700,0.8199697265625,-0.016465283930301666,0.005660781636834145,-0.02486260235309601
1772614949595037700,0.83003759765625,-0.011688105762004852,0.001455384073778987,-0.017445698380470276
1772614949605105700,0.840105712890625,-0.002877557650208473,0.005822804756462574,-0.0010025466326624155
1772614949615172600,0.850172607421875,0.006939386483281851,0.007430554833263159,0.00869322381913662
1772614949625240800,0.86024072265625,0.010197663679718971,-0.0011874984484165907,0.016852224245667458
1772614949635307800,0.870307861328125,0.0058085075579583645,-0.005697028711438179,0.02295059710741043
1772614949645375700,0.880375732421875,0.0014396331971511245,-0.001451633172109723,0.022249823436141014
1772614949655442700,0.890442626953125,0.0004686446627601981,-0.0010465660598129034,0.015207093209028244
1772614949665510700,0.9005107421875,-0.004666567780077457,0.0036473325453698635,0.0033651618286967278
1772614949675577600,0.91057763671875,-0.007900443859398365,0.010469019412994385,-0.01019352301955223
1772614949685645800,0.920645751953125,-0.010304171591997147,0.009804079309105873,-0.02228410542011261
1772614949695712800,0.930712646484375,-0.009714814834296703,0.010093564167618752,-0.02668258361518383
1772614949705780700,0.94078076171875,-0.012578369118273258,0.008902980014681816,-0.02373230643570423
1772614949715848700,0.9508486328125,-0.007886677980422974,0.007382048759609461,-0.01380004733800888
1772614949725915600,0.96091552734375,-0.004334778990596533,0.0027985323686152697,-0.0000816697720438242
1772614949735983600,0.970983642578125,-0.005084991455078125,-0.0017765117809176445,0.012203758582472801
1772614949746050800,0.98105078125,-0.015605497173964977,0.0020162714645266533,0.013767530210316181
1772614949756118800,0.991118896484375,-0.01583079993724823,0.006203026976436377,0.007324810139834881
1772614949766185700,1.001185791015625,-0.01213841512799263,0.003434711368754506,-0.003620114643126726
1772614949776253700,1.011253662109375,-0.002696176990866661,0.002538291271775961,-0.016239503398537636
1772614949786321700,1.02132177734375,0.001797561882995069,-0.0003107348456978798,-0.01651967689394951
1772614949796388600,1.031388671875,-0.00306590273976326,-0.0050402432680130005,-0.008213544264435768
1772614949806456800,1.041456787109375,-0.008703364990651608,-0.007829472422599792,-0.00038951390888541937
1772614949816523800,1.051523681640625,-0.014396138489246368,0.0005789259448647499,0.0074226027354598045
1772614949826591700,1.061591796875,-0.016173874959349632,0.002477251458913088,0.009367496706545353
1772614949836658700,1.07165869140625,-0.014505138620734215,-0.005105033982545137,0.015844836831092834
1772614949846726700,1.0817265625,-0.004774752072989941,-0.010973967611789703,0.009102720767259598
1772614949856793600,1.091793701171875,0.006776176393032074,-0.01206160243600607,0.001289804931730032
1772614949866861800,1.10186181640625,0.016382094472646713,-0.015803266316652298,-0.005717957857996225
1772614949876929800,1.1119296875,0.013902158476412296,-0.014445321634411812,-0.013746056705713272
1772614949886996700,1.121996826171875,0.0018953598337247968,-0.011713046580553055,-0.02109583094716072
1772614949897064700,1.132064697265625,-0.013526473194360733,-0.0028670900501310825,-0.025874340906739235
1772614949907131600,1.142131591796875,-0.023139456287026405,0.002763706259429455,-0.023868024349212646
1772614949917199600,1.15219970703125,-0.022527461871504784,0.0063121020793914795,-0.019581932574510574
1772614949927266800,1.162266845703125,-0.01588703878223896,0.006006043404340744,-0.002990107983350754
1772614949937334800,1.172334716796875,-0.007151338271796703,0.0061594415456056595,0.010399999096989632
1772614949947401700,1.182401611328125,0.00509246252477169,0.006869073025882244,0.024491511285305023
1772614949957469700,1.1924697265625,0.01851186528801918,0.0005928014870733023,0.024579398334026337
1772614949967537700,1.20253759765625,0.028637735173106194,-0.0073323557153344154,0.024446172639727592
1772614949977604600,1.2126044921875,0.02568082883954048,-0.004790901206433773,0.021812573075294495
1772614949987672800,1.2226728515625,0.011952034197747707,-0.005494921002537012,0.010813060216605663
1772614949997739800,1.23273974609375,-0.0035563509445637465,-0.0038807792589068413,-0.0026252497918903828
1772614950007807700,1.242807861328125,-0.015447328798472881,-0.004500038921833038,-0.018414754420518875
1772614950017874700,1.252874755859375,-0.01998429000377655,0.0019844919443130493,-0.022995926439762115
1772614950027942700,1.262942626953125,-0.015300774946808815,0.008506549522280693,-0.02036338299512863
1772614950038009600,1.273009521484375,-0.001882971148006618,0.005022602621465921,-0.011912905611097813
1772614950048077800,1.283077880859375,0.014212395995855331,0.0004930621944367886,-0.005639245267957449
1772614950058145800,1.293145751953125,0.03159910812973976,-0.004355488810688257,-0.0007472847355529666
1772614950068212700,1.303212646484375,0.03977315500378609,-0.01078171469271183,0.0006251663435250521
1772614950078280700,1.31328076171875,0.04347574710845947,-0.021108120679855347,0.003442524466663599
1772614950088347600,1.32334765625,0.03805233910679817,-0.02057839184999466,0.0027790446765720844
1772614950098415600,1.33341552734375,0.02551843784749508,-0.015674445778131485,0.009662517346441746
1772614950108482600,1.343482666015625,0.0074558560736477375,-0.008396243676543236,0.015009780414402485
1772614950118550800,1.35355078125,-0.004019171930849552,-0.000015009427443146706,0.018098779022693634
1772614950128617700,1.36361767578125,-0.007641194853931665,0.004501559771597385,0.012464357540011406
1772614950138685700,1.373685791015625,-0.0057343714870512486,0.0009797955863177776,0.008691989816725254
1772614950148753700,1.383753662109375,-0.006921053864061832,0.002830780576914549,0.008381047286093235
1772614950158820600,1.393820556640625,0.001198125653900206,0.004728549160063267,0.007194608449935913
1772614950168888800,1.403888916015625,0.011368838138878345,-0.00024004653096199036,0.009853367693722248
1772614950178955800,1.413955810546875,0.02147313766181469,-0.005929357372224331,0.010516229085624218
1772614950189023700,1.424023681640625,0.02343408390879631,-0.006146125495433807,0.010421110317111015
1772614950199090700,1.434090576171875,0.017996441572904587,-0.014089535921812057,0.009926827624440193
1772614950209158700,1.44415869140625,0.0014324244111776352,-0.013463251292705536,0.005821260157972574
1772614950219225600,1.4542255859375,-0.014409389346837997,-0.0076961759477853775,-0.003588753519579768
1772614950229293800,1.4642939453125,-0.017472663894295692,0.00226012896746397,-0.008794885128736496
1772614950239361800,1.47436181640625,-0.015448127873241901,0.0038857224863022566,-0.009277982637286186
1772614950249428700,1.4844287109375,-0.007810818962752819,0.005529503338038921,0.0009305265266448259
1772614950259496700,1.49449658203125,-0.005082410294562578,0.008050717413425446,0.0051652188412845135
1772614950269563600,1.504563720703125,0.0026691285893321037,0.005355059169232845,0.012402850203216076
1772614950279631600,1.514631591796875,0.010252480395138264,-0.0038642720319330692,0.014382644556462765
1772614950289698600,1.524698486328125,0.015458021312952042,-0.013948999345302582,0.01717507094144821
1772614950299766800,1.534766845703125,0.015794113278388977,-0.018618319183588028,0.01396889053285122
1772614950309833700,1.544833740234375,0.006423387676477432,-0.018270520493388176,0.0026264535263180733
1772614950319901700,1.554901611328125,-0.0021333491895347834,-0.01275884173810482,-0.015134167857468128
1772614950329969700,1.5649697265625,-0.00463755801320076,-0.008588258177042007,-0.018078666180372238
1772614950340036600,1.57503662109375,-0.0011434906627982855,-0.005701923742890358,-0.017633650451898575
1772614950350104800,1.585104736328125,-0.004384376108646393,0.0017570992931723595,-0.014012950472533703
1772614950360171800,1.595171875,-0.002087932312861085,0.007548942230641842,-0.012198805809020996
1772614950370239700,1.60523974609375,-0.0006879065185785294,0.002918094862252474,-0.005952297709882259
1772614950380306700,1.615306640625,-0.0014596906257793307,0.0037215705960989,-0.006678542122244835
1772614950390374700,1.625374755859375,0.009003407321870327,0.0013646718580275774,-0.004202794283628464
1772614950400441600,1.635441650390625,0.015872232615947723,-0.006902845576405525,-0.008884099312126637
1772614950410509800,1.645509765625,0.0011665737256407738,-0.007593108341097832,-0.007579844910651445
1772614950420577800,1.655577880859375,-0.01056145504117012,-0.0024947524070739746,-0.0106576606631279
1772614950430644700,1.665644775390625,-0.005471926182508469,-0.0005915837828069925,-0.01396807562559843
1772614950440712700,1.675712646484375,0.001746305380947888,0.0010710277128964663,-0.015497795306146145
1772614950450779600,1.685779541015625,-0.00005421938840299845,0.0022880183532834053,-0.014943485148251057
1772614950460847600,1.69584765625,0.005827638320624828,0.0018480641301721334,-0.010339412838220596
1772614950470914600,1.70591455078125,0.006060153711587191,0.0010505346581339836,-0.005855598486959934
1772614950480982800,1.715982666015625,0.008342216722667217,-0.006969841197133064,-0.003480058629065752
1772614950491049700,1.7260498046875,0.001764022745192051,-0.00730062834918499,0.0005176193080842495
1772614950501117700,1.73611767578125,-0.007050774060189724,-0.0014701697509735823,0.0027879641856998205
1772614950511185700,1.746185546875,-0.008494781330227852,0.004822829272598028,-0.005645902827382088
1772614950521252600,1.756252685546875,-0.005377017892897129,0.0024560783058404922,-0.005364140495657921
1772614950531320800,1.76632080078125,-0.003401730675250292,0.0003935466520488262,-0.006914249621331692
1772614950541388000,1.776387939453125,0.0010920872446149588,-0.005325858015567064,-0.008023189380764961
1772614950551456000,1.7864560546875,-0.0003887123893946409,-0.010900754481554031,-0.009860842488706112
1772614950561523000,1.79652294921875,-0.00042173557449132204,-0.011937788687646389,-0.012766883708536625
1772614950571591000,1.8065908203125,-0.0007033548899926245,-0.00940261036157608,-0.01758185401558876
1772614950581659100,1.8166591796875,0.0033489111810922623,-0.011554445140063763,-0.011307445354759693
1772614950591726000,1.82672607421875,0.004227489698678255,-0.015736550092697144,-0.01525285467505455
1772614950601794000,1.8367939453125,-0.001525470637716353,-0.005808551330119371,-0.00938750896602869
1772614950611861000,1.846861083984375,-0.008211973123252392,0.006056441925466061,-0.008366907015442848
1772614950621929000,1.856928955078125,-0.010590442456305027,0.008687911555171013,-0.003912503365427256
1772614950631996000,1.866995849609375,-0.010449971072375774,0.0056323520839214325,-0.002024614717811346
1772614950642064100,1.877064208984375,-0.008877906948328018,-0.00011288560926914215,0.002482519019395113
1772614950652131000,1.887131103515625,-0.008609685115516186,0.0047322534956038,0.003749819938093424
1772614950662199000,1.897198974609375,-0.0019770823419094086,0.0019452555570751429,0.00846521370112896
1772614950672266000,1.907265869140625,0.009997903369367123,-0.005749314092099667,0.009403249248862267
1772614950682334000,1.917333984375,0.018337860703468323,-0.006993809714913368,0.010712992399930954
1772614950692402200,1.927402099609375,0.021697701886296272,-0.002669081324711442,0.010937894694507122
1772614950702469000,1.93746923828125,0.017867276445031166,-0.00025732233189046383,0.0074454257264733315
1772614950712537000,1.947537109375,0.0039384737610816956,0.009597165510058403,0.006983190309256315
1772614950722604000,1.95760400390625,-0.0018837288953363895,0.013286175206303596,0.002762079704552889
1772614950732672000,1.967672119140625,-0.008371680974960327,0.011618820950388908,0.0020202919840812683
1772614950742739000,1.977739013671875,-0.0014999262057244778,0.00474014226347208,-0.008959388360381126
1772614950752807000,1.987806884765625,0.0044033643789589405,0.0010479462798684835,-0.014184743165969849
1772614950762875100,1.997875244140625,0.013516967184841633,-0.002274879952892661,-0.020058078691363335
1772614950772942000,2.007942138671875,0.01818831078708172,-0.007171680219471455,-0.02732875756919384
1772614950783010000,2.018010009765625,0.018399765715003014,-0.012320902198553085,-0.02721157856285572
1772614950793077000,2.028076904296875,0.018226396292448044,-0.009324988350272179,-0.021055884659290314
1772614950803145000,2.03814501953125,0.01718137226998806,-0.006509495433419943,-0.01383552048355341
1772614950813212000,2.0482119140625,0.01752362959086895,0.003530140034854412,-0.005764642730355263
1772614950823280000,2.058280029296875,0.013830357231199741,0.004245198797434568,0.0021864911541342735
1772614950833347000,2.06834716796875,0.004759364295750856,0.004396999254822731,0.0073258597403764725
1772614950843415000,2.0784150390625,-0.0022519994527101517,0.008164293132722378,0.00483105331659317
1772614950853482000,2.08848193359375,-0.0019351886585354805,0.00733987707644701,-0.0013046569656580687
1772614950863550000,2.098550048828125,-0.0001370222307741642,0.004865800496190786,0.0005805946420878172
1772614950873618200,2.1086181640625,0.005969994235783815,-0.0018871703650802374,-0.002859366126358509
1772614950883685000,2.11868505859375,0.019910044968128204,-0.005683505907654762,-0.005400021560490131
1772614950893753000,2.128753173828125,0.027053093537688255,-0.008180586621165276,-0.005547898821532726
1772614950903820000,2.138820068359375,0.025730567052960396,-0.007316657807677984,-0.01104173343628645
1772614950913888000,2.148887939453125,0.013621236197650433,-0.005717558786273003,-0.015829280018806458
1772614950923955000,2.158954833984375,0.0037065534852445126,-0.0015081663150340319,-0.018748637288808823
1772614950934023000,2.16902294921875,0.000689769396558404,0.00046434602700173855,-0.028544843196868896
1772614950944091100,2.179091064453125,0.006482411175966263,0.0009708793368190527,-0.029561638832092285
1772614950954158000,2.189157958984375,0.010472395457327366,0.004804302006959915,-0.023567618802189827
1772614950964226000,2.19922607421875,0.01097786333411932,0.006394475698471069,-0.017902011051774025
1772614950974293000,2.20929296875,0.011921546421945095,0.005840546451508999,-0.003425561124458909
1772614950984361000,2.21936083984375,0.013855267316102982,0.002744089113548398,0.008158923126757145
1772614950994428000,2.229427978515625,0.011643572710454464,0.004751860164105892,0.013811971060931683
1772614951004496100,2.23949609375,0.007630721665918827,0.01268754806369543,0.00918952189385891
1772614951014563000,2.24956298828125,0.014834264293313026,0.017180249094963074,0.0027847164310514927
1772614951024631000,2.259631103515625,0.017788775265216827,0.005567003041505814,-0.002586612943559885
1772614951034699000,2.269698974609375,0.01981351524591446,0.00043001817539334297,-0.005773573182523251
1772614951044766000,2.279765869140625,0.020291287451982498,-0.0003343089483678341,-0.011532125994563103
1772614951054834200,2.289834228515625,0.025463677942752838,-0.0043709855526685715,-0.022160867229104042
1772614951064901000,2.299901123046875,0.019848402589559555,-0.008489031344652176,-0.02334330976009369
1772614951074969000,2.309968994140625,0.01148474495857954,0.0013207222800701857,-0.02853381074965
1772614951085036000,2.3200361328125,0.008634096942842007,0.008445210754871368,-0.022761410102248192
1772614951095104000,2.33010400390625,0.010500134900212288,0.009286598302423954,-0.01647898554801941
1772614951105171000,2.3401708984375,0.006401795893907547,0.01215402316302061,-0.004098482429981232
1772614951115239000,2.350239013671875,0.006370872724801302,0.009513411670923233,-0.004813990090042353
1772614951125307100,2.36030712890625,0.007904852740466595,0.004819057881832123,-0.005531978327780962
1772614951135374000,2.3703740234375,0.011715558357536793,-0.005360716953873634,-0.010871532373130322
1772614951145442000,2.380442138671875,0.01931062899529934,-0.011255358345806599,-0.018636776134371758
1772614951155509000,2.390509033203125,0.019844800233840942,-0.009952163323760033,-0.02440986968576908
1772614951165577000,2.400576904296875,0.014812223613262177,-0.014888599514961243,-0.024722790345549583
1772614951175644000,2.410643798828125,0.012296151369810104,-0.011672730557620525,-0.02308300882577896
1772614951185712000,2.420712158203125,0.010031665675342083,0.0017197736306115985,-0.022128000855445862
1772614951195779000,2.430779052734375,0.0075938464142382145,0.008489333093166351,-0.01611614227294922
1772614951205847000,2.440846923828125,0.00678291404619813,0.011039575561881065,-0.009453712962567806
1772614951215915000,2.4509150390625,0.00964389182627201,0.01255115307867527,-0.008849267847836018
1772614951225982000,2.46098193359375,0.015540661290287971,0.005085513927042484,-0.005235624499619007
1772614951236050000,2.4710498046875,0.01820240542292595,-0.0029537298250943422,-0.01177754532545805
1772614951246117000,2.4811171875,0.01502099260687828,-0.006733288057148457,-0.014436445198953152
1772614951256185000,2.49118505859375,0.011398418806493282,-0.010596584528684616,-0.017320409417152405
1772614951266252000,2.501251953125,0.004402827471494675,-0.00875926949083805,-0.020742837339639664
1772614951276320000,2.511320068359375,-0.004179471172392368,0.003630679799243808,-0.021028002724051476
1772614951286387000,2.521386962890625,-0.0023653260432183743,0.008482692763209343,-0.016557352617383003
1772614951296455000,2.531454833984375,0.0027016415260732174,0.010956428945064545,-0.002721856813877821
1772614951306523100,2.541523193359375,0.010862898081541061,0.009477575309574604,0.011537773534655571
1772614951316590000,2.551590087890625,0.012135867960751057,0.004002028610557318,0.017027229070663452
1772614951326658000,2.561657958984375,0.010372855700552464,0.00015056529082357883,0.01852818951010704
1772614951336725000,2.57172509765625,0.0008001443929970264,-0.0035961486864835024,0.01134815625846386
1772614951346793000,2.58179296875,-0.0021652854047715664,-0.008037768304347992,0.001157569931820035
1772614951356860000,2.59185986328125,0.0006885579787194729,-0.014955328777432442,-0.01398196816444397
1772614951366928100,2.60192822265625,0.0016329148784279823,-0.01566985622048378,-0.03130023926496506
1772614951376995000,2.6119951171875,0.0010646563023328781,-0.003886275924742222,-0.04157029837369919
1772614951387063000,2.62206298828125,-0.0024571078829467297,0.0030797545332461596,-0.044677674770355225
1772614951397131000,2.632131103515625,-0.00783587247133255,0.007846755906939507,-0.032281544059515
1772614951407198000,2.642197998046875,-0.011509969830513,0.007534900214523077,-0.02818773128092289
1772614951417266000,2.652265869140625,-0.010470394045114517,0.003259043674916029,-0.020645366981625557
1772614951427333000,2.6623330078125,-0.009163049049675465,0.005345630459487438,-0.0165006872266531
1772614951437401000,2.672401123046875,-0.008203737437725067,0.010709287598729134,-0.007244703359901905
1772614951447468000,2.682468017578125,-0.0020853905007243156,0.018674802035093307,0.0005991051439195871
1772614951457536000,2.692535888671875,-0.00040839402936398983,0.016212569549679756,0.0041081467643380165
1772614951467603000,2.70260302734375,0.0010393003467470407,0.013684429228305817,0.0036554087419062853
1772614951477671000,2.7126708984375,0.003087372053414583,0.016234470531344414,-0.0024801227264106274
1772614951487739100,2.7227392578125,0.003354487009346485,0.006277177482843399,-0.010963888838887215
1772614951497806000,2.73280615234375,-0.001769315917044878,0.005967088975012302,-0.023035086691379547
1772614951507874000,2.7428740234375,-0.004325151443481445,0.007707997225224972,-0.035176169127225876
1772614951517941000,2.75294091796875,-0.002071031369268894,0.014348143711686134,-0.040597449988126755
1772614951528009000,2.763009033203125,-0.0020446658600121737,0.01830000802874565,-0.03419574350118637
1772614951538076200,2.773076171875,0.0045774755999445915,0.01937980204820633,-0.016328811645507812
1772614951548144000,2.78314404296875,0.006833705119788647,0.01817179284989834,0.0034534151200205088
1772614951558211000,2.793211181640625,0.0022192413453012705,0.01925743743777275,0.025089941918849945
1772614951568279000,2.803279052734375,-0.0023720483295619488,0.020239345729351044,0.02962583862245083
1772614951578347300,2.81334716796875,-0.003926106728613377,0.022711900994181633,0.02796090953052044
1772614951588414200,2.823414306640625,-0.0018917183624580503,0.016753878444433212,0.016552994027733803
1772614951598482200,2.833482177734375,0.0030488353222608566,0.01566532999277115,0.0034113326109945774
1772614951608549000,2.843549072265625,-0.002457783091813326,0.0128746023401618,-0.010772930458188057
1772614951618617000,2.8536171875,-0.010119329206645489,0.014521565288305283,-0.009484102949500084
1772614951628684000,2.86368408203125,-0.009653808549046516,0.017193248495459557,-0.0034989144187420607
1772614951638752000,2.873751953125,-0.014204761944711208,0.022205203771591187,0.0008377507328987122
1772614951648820200,2.8838203125,-0.0012080026790499687,0.023325596004724503,0.00009526149369776249
1772614951658887200,2.89388720703125,0.00404123030602932,0.02094830572605133,-0.008608454838395119
1772614951668955100,2.903955078125,0.000002014334313571453,0.017133327201008797,-0.013693229295313358
1772614951679022000,2.91402197265625,-0.001158835832029581,0.007794507779181004,-0.01952596753835678
1772614951689090000,2.924090087890625,-0.005281142890453339,0.005416304804384708,-0.023418977856636047
1772614951699157000,2.934156982421875,-0.009905396029353142,0.010876474902033806,-0.02641887217760086
1772614951709225200,2.94422509765625,-0.01200370118021965,0.012364915572106838,-0.021103203296661377
1772614951719292200,2.954292236328125,-0.010897197760641575,0.006124136503785849,-0.01005731150507927
1772614951729360100,2.964360107421875,-0.0035588571336120367,0.008058923296630383,0.0015743097756057978
1772614951739428000,2.974427978515625,0.013657946139574051,0.009086370468139648,0.012149456888437271
1772614951749495000,2.9844951171875,0.01828252524137497,0.0035813504364341497,0.014504756778478622
1772614951759563300,2.994563232421875,0.020439399406313896,0.004111765418201685,0.0027324017137289047
1772614951769630200,3.004630126953125,0.012071747332811356,0.011312952265143394,-0.006441655568778515
1772614951779698200,3.0146982421875,-0.002478289417922497,0.012143298052251339,-0.017448941245675087
1772614951789765000,3.02476513671875,-0.00992928072810173,0.013463693670928478,-0.025753211230039597
1772614951799833000,3.0348330078125,-0.0032138321548700333,0.013225694186985493,-0.01747625693678856
1772614951809900000,3.044900146484375,-0.0012212550500407815,0.009274628944694996,-0.011067360639572144
1772614951819968000,3.054968017578125,-0.0026255811098963022,0.0077360705472528934,-0.0013922646176069975
1772614951830036200,3.0650361328125,-0.005935091525316238,0.004400727339088917,0.006905612535774708
1772614951840103200,3.075103271484375,-0.0019061558414250612,0.00016489275731146336,0.010550333186984062
1772614951850171100,3.085171142578125,-0.0004579288652166724,-0.0013123627286404371,0.010465644299983978
1772614951860238000,3.095238037109375,-0.004673960618674755,0.002266888041049242,0.006090658716857433
1772614951870306000,3.10530615234375,-0.005993024446070194,0.007888021878898144,-0.006904768757522106
1772614951880373000,3.115373046875,-0.0068777077831327915,0.00933701079338789,-0.011776168830692768
1772614951890441200,3.125441162109375,-0.008396774530410767,0.008963901549577713,-0.013548769056797028
1772614951900509200,3.13550927734375,-0.01270656380802393,0.0048718140460550785,-0.006511306390166283
1772614951910576000,3.145576171875,-0.016848845407366753,0.004688055720180273,0.003982879687100649
1772614951920644000,3.15564404296875,-0.018528977409005165,0.005923651158809662,0.012268136255443096
1772614951930711000,3.1657109375,-0.011376791633665562,-0.000386442756280303,0.016393903642892838
1772614951940779300,3.175779296875,-0.009192241355776787,-0.00117931654676795,0.01575191505253315
1772614951950846200,3.18584619140625,-0.009192241355776787,0.001511275302618742,0.006409012246876955
1772614951960914200,3.1959140625,-0.009494193829596043,-0.004755107685923576,0.0014116114471107721
1772614951970981000,3.205981201171875,-0.008792450651526451,-0.005285343155264854,-0.0060130152851343155
1772614951981049000,3.216049072265625,-0.005279627162963152,-0.003601525444537401,-0.007828369736671448
1772614951991117000,3.226116943359375,-0.007220272906124592,-0.003327486105263233,0.0006026648916304111
1772614952001184000,3.23618408203125,-0.002553574275225401,-0.004594567231833935,0.0024366863071918488
1772614952011252200,3.246252197265625,-0.0008459554519504309,-0.0027284908574074507,0.002553066238760948
1772614952021319200,3.256319091796875,-0.004562621936202049,-0.00046501983888447285,0.0005228414665907621
1772614952031387100,3.26638720703125,-0.010850878432393074,-0.008182860910892487,-0.007039736956357956
1772614952041454000,3.2764541015625,-0.019868547096848488,-0.012913686223328114,-0.017693225294351578
1772614952051522000,3.28652197265625,-0.024612169712781906,-0.008621469140052795,-0.02408028393983841
1772614952061589000,3.296589111328125,-0.01833397150039673,-0.00597027875483036,-0.02707665227353573
1772614952071657200,3.3066572265625,-0.0076048956252634525,-0.005674667656421661,-0.013846867717802525
1772614952081725200,3.31672509765625,-0.000705134414602071,-0.001526086824014783,0.0018817279487848282
1772614952091792100,3.326792236328125,0.005936789326369762,-0.004013479687273502,0.02384481579065323
1772614952101860000,3.336860107421875,0.010806378908455372,-0.008791989646852016,0.03744771331548691
1772614952111927000,3.346927001953125,0.007111776154488325,-0.016587860882282257,0.03698991611599922
1772614952121995300,3.356995361328125,-0.0021039871498942375,-0.008418691344559193,0.022295041009783745
1772614952132062200,3.367062255859375,-0.010214644484221935,-0.00719816517084837,0.009455142542719841
1772614952142130200,3.377130126953125,-0.014526532031595707,-0.007116214372217655,0.0023424813989549875
1772614952152197000,3.387197021484375,-0.012085478752851486,-0.010776729322969913,-0.009166102856397629
1772614952162265000,3.39726513671875,-0.002939916681498289,-0.0078043751418590546,-0.01759660616517067
1772614952172333000,3.4073330078125,0.005096438340842724,-0.01216982863843441,-0.01669645681977272
1772614952182400000,3.41739990234375,0.0067134881392121315,-0.019708525389432907,-0.010090336203575134
1772614952192468200,3.42746826171875,0.0049970801919698715,-0.02153172716498375,-0.0027112490497529507
1772614952202535200,3.43753515625,0.0004898670595139265,-0.01925363391637802,0.0007564444094896317
1772614952212603100,3.44760302734375,0.0027924361638724804,-0.018087169155478477,0.007833528332412243
1772614952222670000,3.457670166015625,0.00034052226692438126,-0.01777728833258152,0.012614592909812927
1772614952232738000,3.467738037109375,-0.0024225073866546154,-0.013068819418549538,0.008430766873061657
1772614952242805000,3.477804931640625,0.0012145321816205978,-0.007578905671834946,0.0025056619197130203
1772614952252873200,3.487873291015625,0.004294744227081537,-0.012048755772411823,-0.006655612029135227
1772614952262941200,3.497941162109375,0.005477248225361109,-0.020605212077498436,-0.008048756048083305
1772614952273008000,3.508008056640625,-0.004163661040365696,-0.017241107299923897,-0.014622770249843597
1772614952283076000,3.518076171875,-0.005214991047978401,-0.021366652101278305,-0.011065719649195671
1772614952293143000,3.52814306640625,-0.003820826532319188,-0.017498143017292023,-0.004381983540952206
1772614952303211000,3.5382109375,-0.006929026450961828,-0.014463149011135101,0.0017218035645782948
1772614952313278200,3.5482783203125,-0.006028878036886454,-0.013945164158940315,0.011695608496665955
1772614952323346200,3.55834619140625,-0.0001674421364441514,-0.016883470118045807,0.0179552361369133
1772614952333414100,3.5684140625,-0.0009125946671701968,-0.013467435725033283,0.02059922367334366
1772614952343481000,3.578481201171875,-0.004166871774941683,-0.011601701378822327,0.021579716354608536
1772614952353549000,3.588549072265625,-0.0056489212438464165,-0.010990239679813385,0.023870833218097687
1772614952363616000,3.598615966796875,-0.012468523345887661,-0.013695632107555866,0.022410526871681213
1772614952373684200,3.608684326171875,-0.020703816786408424,-0.0097163375467062,0.024830807000398636
1772614952383751200,3.618751220703125,-0.01929578371345997,-0.010816403664648533,0.02400321513414383
1772614952393819100,3.628819091796875,-0.020042000338435173,-0.007634991779923439,0.025608303025364876
1772614952403886000,3.638885986328125,-0.01585887186229229,-0.00985561404377222,0.02767324261367321
1772614952413954000,3.6489541015625,-0.012768274173140526,-0.005726915784180164,0.026727819815278053
1772614952424022300,3.659022216796875,-0.009007398039102554,-0.006298602558672428,0.022602612152695656
1772614952434089200,3.669089111328125,-0.0009097901056520641,-0.012422009371221066,0.016042714938521385
1772614952444157200,3.6791572265625,0.0023602242581546307,-0.01260429061949253,0.009349720552563667
1772614952454224100,3.68922412109375,-0.0007159932283684611,-0.009569086134433746,0.0090599674731493
1772614952464292000,3.6992919921875,-0.008696259930729866,0.0024469082709401846,0.014463067054748535
1772614952474359000,3.709359130859375,-0.009891485795378685,0.0028298706747591496,0.018492963165044785
1772614952484427000,3.719427001953125,-0.013151153922080994,0.004685223568230867,0.024937115609645844
1772614952494494200,3.729494140625,-0.009185174480080605,0.0007357557769864798,0.027095075696706772
1772614952504562200,3.739562255859375,-0.005944187752902508,0.005468870513141155,0.020931780338287354
1772614952514630100,3.749630126953125,-0.0014588916674256325,0.00044082244858145714,0.00791744515299797
1772614952524697000,3.759697021484375,0.004380128346383572,-0.008475902490317822,-0.005677156150341034
1772614952534765000,3.76976513671875,0.011456945911049843,-0.012067175470292568,-0.013701526448130608
1772614952544832000,3.77983203125,0.008849323727190495,-0.00501236692070961,-0.016962409019470215
1772614952554900000,3.78989990234375,0.001759722363203764,0.002866328228265047,-0.01590912789106369
1772614952564967000,3.799966796875,-0.008272896520793438,0.0017254805425181985,-0.01016878243535757
1772614952575035100,3.81003515625,-0.02366090752184391,0.0011939136311411858,-0.007072858512401581
1772614952585102000,3.82010205078125,-0.03166718780994415,0.005494321696460247,-0.00502274464815855
1772614952595170000,3.830170166015625,-0.03140033781528473,0.003128369338810444,-0.0052895937114953995
1772614952605238000,3.840238037109375,-0.018925806507468224,0.0026040575467050076,-0.00417720340192318
1772614952615305000,3.850304931640625,-0.0009334911592304707,0.0008775300811976194,-0.0010384016204625368
1772614952625373200,3.860373291015625,0.006394834723323584,-0.004191341809928417,0.006585348397493362
1772614952635440000,3.870440185546875,0.01577555201947689,-0.00024906406179070473,0.012899703346192837
1772614952645508000,3.880508056640625,0.021631143987178802,-0.0023749819956719875,0.017209492623806
1772614952655575000,3.890574951171875,0.014591610059142113,-0.0023456872440874577,0.017462491989135742
1772614952665643000,3.90064306640625,0.004546885844320059,-0.0030816395301371813,0.006554244086146355
1772614952675711000,3.9107109375,-0.009090363048017025,0.0036063569132238626,0.0005576042458415031
1772614952685778000,3.92077783203125,-0.017296507954597473,0.007780356332659721,-0.00898139551281929
1772614952695846100,3.93084619140625,-0.016002744436264038,0.005716140381991863,-0.006733421236276627
1772614952705913000,3.9409130859375,-0.008751405403017998,0.007450780365616083,-0.002079346450045705
1772614952715981000,3.95098095703125,-0.002959029981866479,0.002645638771355152,0.00386083428747952
1772614952726048000,3.961048095703125,0.005078471265733242,-0.0013610082678496838,0.010240377858281136
1772614952736116000,3.971115966796875,0.011196019127964973,-0.0027620969340205193,0.011645462363958359
1772614952746183000,3.981182861328125,0.014299528673291206,-0.004195665940642357,0.015384306199848652
1772614952756251100,3.991251220703125,0.01659783534705639,-0.00499701127409935,0.015718534588813782
1772614952766319000,4.001319091796875,0.013906685635447502,0.0018144868081435561,0.01769089512526989
1772614952776386000,4.011385986328125,0.005454611033201218,0.009095569141209126,0.017351076006889343
1772614952786454000,4.0214541015625,0.003914895001798868,0.0069722384214401245,0.013262365013360977
1772614952796521000,4.03152099609375,0.00013347272761166096,0.001880540745332837,0.009113693609833717
1772614952806589200,4.041589111328125,-0.0032277218997478485,-0.00009042746387422085,-0.0013677636161446571
1772614952816656100,4.05165625,0.002980639226734638,-0.00038843508809804916,-0.003925196826457977
1772614952826724000,4.06172412109375,0.011125607416033745,-0.0012655884493142366,-0.0021829232573509216
1772614952836792000,4.0717919921875,0.015463631600141525,0.00007797614671289921,-0.0002545283641666174
1772614952846859000,4.08185888671875,0.01949385367333889,-0.004796270281076431,0.0022539226338267326
1772614952856927000,4.091927001953125,0.019632073119282722,-0.003540856298059225,0.0009910515509545803
1772614952866994000,4.101993896484375,0.013751895166933537,0.0019368347711861134,-0.0019253052305430174
1772614952877062100,4.112062255859375,0.007867640815675259,0.00018500746227800846,-0.0028038821183145046
1772614952887129000,4.122129150390625,-0.0010522077791392803,0.003833652939647436,-0.004778323229402304
1772614952897197000,4.132197021484375,-0.0044717066921293736,0.008650512434542179,-0.00617168890312314
1772614952907264000,4.142263916015625,-0.005166095681488514,0.014697564765810966,-0.010276873596012592
1772614952917332000,4.15233203125,0.004663365427404642,0.013012848794460297,-0.010006562806665897
1772614952927400200,4.162400146484375,0.0030542025342583656,0.006634067744016647,-0.002364362822845578
1772614952937467100,4.172467041015625,0.00506648700684309,0.009588845074176788,0.002750504296272993
1772614952947535000,4.18253515625,0.014597877860069275,0.008319711312651634,0.004522818606346846
1772614952957602000,4.19260205078125,0.015631983056664467,0.0017614106182008982,0.010909611359238625
1772614952967670000,4.202669921875,0.008528288453817368,-0.000618303194642067,0.009570425376296043
1772614952977737000,4.212737060546875,0.0022578765638172626,0.009541656821966171,0.00046374578960239887
1772614952987805200,4.22280517578125,0.001376190222799778,0.010007670149207115,0.00012565520592033863
1772614952997872000,4.2328720703125,-0.0021996363066136837,0.018362538889050484,-0.0026373742148280144
1772614953007940000,4.242940185546875,-0.004674125928431749,0.017057083547115326,0.002271010773256421
1772614953018008000,4.253008056640625,-0.004960415884852409,0.005081380717456341,0.004912600852549076
1772614953028075000,4.263074951171875,-0.0035655773244798183,0.0023545613512396812,0.0025905524380505085
1772614953038143000,4.27314306640625,-0.0010579447261989117,0.009030839428305626,-0.01510748453438282
1772614953048210000,4.2832099609375,-0.00008017313666641712,0.00787770003080368,-0.01802360825240612
1772614953058278100,4.293278076171875,0.0038370704278349876,0.000048272544518113136,-0.01857035607099533
1772614953068345000,4.303344970703125,0.006338739767670631,-0.002225456526502967,-0.011844196356832981
1772614953078413000,4.3134130859375,0.0032550657633692026,0.0030689076520502567,-0.0001497231423854828
1772614953088481000,4.32348095703125,-0.0038470523431897163,0.013816626742482185,0.010747399181127548
1772614953098548000,4.3335478515625,-0.01292283833026886,0.016826264560222626,0.019192548468708992
1772614953108616200,4.3436162109375,-0.011393774300813675,0.01319077704101801,0.02113315276801586
1772614953118683100,4.35368310546875,-0.0011179677676409483,0.013203294016420841,0.025837628170847893
1772614953128751000,4.363751220703125,0.010721278376877308,0.010408896952867508,0.020785288885235786
1772614953138818000,4.373818115234375,0.013539702631533146,0.010163885541260242,0.02045505680143833
1772614953148886000,4.383885986328125,0.010668800212442875,0.01388794556260109,0.01312471367418766
1772614953158953000,4.393952880859375,0.008413102477788925,0.015398223884403706,0.00932864286005497
1772614953169021000,4.40402099609375,0.004402827471494675,0.01002347283065319,0.003928953316062689
1772614953179089200,4.414089111328125,-0.005488153081387281,0.00672514783218503,-0.0003920256858691573
1772614953189156000,4.424156005859375,-0.01760389655828476,0.009400077164173126,-0.016528483480215073
1772614953199224000,4.43422412109375,-0.020285967737436295,0.01182781532406807,-0.029609663411974907
1772614953209291000,4.444291015625,-0.01167895644903183,0.010221648961305618,-0.04144230857491493
1772614953219359000,4.45435888671875,-0.0026729442179203033,0.014391359873116016,-0.04250970482826233
1772614953229426000,4.464426025390625,0.0035907882265746593,0.019256602972745895,-0.03282203897833824
1772614953239494100,4.474494140625,0.004965245723724365,0.013512163423001766,-0.018403418362140656
1772614953249561000,4.48456103515625,0.0001532435417175293,0.004736120346933603,0.002938105957582593
1772614953259629000,4.494629150390625,-0.0032175194937735796,0.004484717734158039,0.01554550975561142
1772614953269697000,4.504697021484375,-0.0009059966541826725,0.0051443190313875675,0.013921655714511871
1772614953279764000,4.514763916015625,0.008194291032850742,0.0025115180760622025,0.003224537242203951
1772614953289832200,4.524832275390625,0.015298007056117058,-0.00036442955024540424,-0.0021326777059584856
1772614953299899100,4.534899169921875,0.011747746728360653,0.0038825133815407753,-0.009106963872909546
1772614953309967000,4.544967041015625,0.011643490754067898,0.005714902188628912,-0.006538180634379387
1772614953320034000,4.555033935546875,0.0069118523970246315,0.007389497943222523,-0.006382918916642666
1772614953330102000,4.56510205078125,0.0016782708698883653,0.013127804733812809,-0.006297611631453037
1772614953340170000,4.575169921875,-0.006910423282533884,0.010237742215394974,-0.004715694114565849
1772614953350237000,4.58523681640625,-0.007016026880592108,0.004977086093276739,-0.007836412638425827
1772614953360305200,4.59530517578125,-0.004434092435985804,-0.0003380510024726391,-0.01272491179406643
1772614953370372000,4.6053720703125,-0.00837411917746067,0.0072306799702346325,-0.02250625751912594
1772614953380440000,4.615440185546875,-0.0066699618473649025,0.008561728522181511,-0.023792564868927002
1772614953390507000,4.625507080078125,-0.008819235488772392,0.002886077854782343,-0.017135651782155037
1772614953400575000,4.635574951171875,-0.007658630143851042,0.002836010418832302,-0.006856381893157959
1772614953410642000,4.645641845703125,-0.007204827386885881,0.008114395663142204,0.0029094296041876078
1772614953420710100,4.655710205078125,-0.002692118752747774,0.003354954533278942,0.013061411678791046
1772614953430778000,4.665778076171875,-0.006465021520853043,-0.000052273739129304886,0.010031402111053467
1772614953440845000,4.675844970703125,-0.010439257137477398,0.005807213485240936,0.01188496220856905
1772614953450913000,4.6859130859375,-0.007023588754236698,0.009451273828744888,0.005095444153994322
1772614953460980000,4.69597998046875,-0.00842307973653078,0.00756522361189127,-0.0025861775502562523
1772614953471048200,4.706048095703125,-0.016591547057032585,0.005476809106767178,-0.002407266292721033
1772614953481115100,4.716115234375,-0.022355958819389343,0.005435263738036156,-0.006852614693343639
1772614953491183000,4.72618310546875,-0.016973158344626427,0.0072925155982375145,-0.005928178317844868
1772614953501250000,4.73625,-0.003053081687539816,0.002962748520076275,-0.006128448061645031
1772614953511318000,4.746318115234375,0.004318858962506056,0.003274247283115983,0.0014532685745507479
1772614953521386000,4.756385986328125,0.005694648250937462,0.0038979595992714167,0.005583831574767828
1772614953531453000,4.766452880859375,0.01469254307448864,0.0015538353472948074,0.009275469928979874
1772614953541521200,4.776521240234375,0.01039606612175703,-0.0034473149571567774,0.011028628796339035
1772614953551588000,4.786588134765625,-0.0017416600603610277,0.005340130068361759,0.009876622818410397
1772614953561656000,4.796656005859375,-0.005756908096373081,0.009130074642598629,0.0009537015575915575
1772614953571723000,4.806722900390625,-0.011246440932154655,0.005068005993962288,-0.0072207022458314896
1772614953581791200,4.816791259765625,-0.014969807118177414,0.0038245758041739464,-0.01595587097108364
1772614953591859200,4.826859130859375,-0.013378112576901913,0.011784112080931664,-0.019442692399024963
1772614953601926100,4.836926025390625,-0.00702647352591157,0.014179359190165997,-0.01574302837252617
1772614953611994000,4.846994140625,0.0024721985682845116,0.0015669495332986116,-0.013402021490037441
1772614953622061000,4.85706103515625,0.005911671090871096,0.00029848585836589336,-0.0032399320043623447
1772614953632129300,4.86712939453125,0.01062002219259739,-0.0001070159487426281,0.004012272693216801
1772614953642196200,4.8771962890625,0.007626096718013287,0.0028605442494153976,0.01044886652380228
1772614953652264200,4.88726416015625,0.0014751313719898462,-0.0006514994893223047,0.014814753085374832
1772614953662331100,4.8973310546875,-0.003527350490912795,-0.0030438171233981848,0.018623607233166695
1772614953672399000,4.907399169921875,-0.0011143004521727562,-0.0067087868228554726,0.014322764240205288
1772614953682467000,4.917467041015625,-0.0029175267554819584,-0.0024517241399735212,0.00895036943256855
1772614953692534300,4.9275341796875,-0.006011833902448416,-0.0007140480447560549,0.006602578796446323
1772614953702602200,4.937602294921875,-0.005768687464296818,0.0005749219562858343,0.004224109463393688
1772614953712669200,4.947669189453125,-0.009589381515979767,0.0032925268169492483,0.0011974528897553682
1772614953722737200,4.957737060546875,-0.008450879715383053,0.00493223499506712,-0.0018958087312057614
1772614953732804000,4.96780419921875,0.002148258965462446,-0.0017741925548762083,-0.0016660647233948112
1772614953742872000,4.9778720703125,0.0044428384862840176,-0.012068907730281353,-0.005849624518305063
1772614953752940300,4.987940185546875,0.005034733098000288,-0.003485283115878701,-0.010587956756353378
1772614953763007200,4.99800732421875,-0.0009025183971971273,0.0035084441769868135,-0.011441233567893505
1772614953773075200,5.0080751953125,0.00033099844586104155,0.005049091298133135,-0.005868927575647831
1772614953783142100,5.01814208984375,-0.00113693589810282,0.005744708701968193,0.007204263471066952
1772614953793210000,5.028210205078125,-0.001048295758664608,0.014191527850925922,0.019115420058369637
1772614953803277000,5.038277099609375,-0.00027384853456169367,0.012154742144048214,0.026932597160339355
1772614953813345300,5.04834521484375,-0.00040798913687467575,0.0058731017634272575,0.027288800105452538
1772614953823412200,5.058412109375,0.006318889558315277,-0.0008322051726281643,0.017163993790745735
1772614953833480200,5.068480224609375,0.020306117832660675,-0.007177791558206081,0.0036307109985500574
1772614953843548200,5.078548095703125,0.023127472028136253,-0.01294167060405016,-0.014464669860899448
1772614953853615000,5.088614990234375,0.017670059576630592,-0.015141579322516918,-0.026303241029381752
1772614953863683000,5.09868310546875,0.016366442665457726,-0.015380197204649448,-0.029990388080477715
1772614953873750300,5.108750244140625,0.014586487784981728,-0.01288276445120573,-0.023129628971219063
1772614953883818200,5.118818359375,0.007468923460692167,-0.0066333916038274765,-0.010932083241641521
1772614953893885200,5.12888525390625,-0.0015804769936949015,0.001683214446529746,0.0011425402481108904
1772614953903953200,5.138953125,-0.0028137867338955402,0.005588473752140999,0.0036762715317308903
1772614953914020000,5.14902001953125,-0.0022061357740312815,0.002111349953338504,0.003870077896863222
1772614953924088000,5.159088134765625,0.0006242718081921339,-0.006172944791615009,0.006890102289617062
1772614953934156300,5.16915625,0.002588578499853611,-0.0067628854885697365,0.004078434780240059
1772614953944223200,5.17922314453125,0.01043451763689518,-0.003608637722209096,-0.00040766014717519283
1772614953954291200,5.189291259765625,0.010680798441171646,-0.010143373161554337,-0.004007742274552584
1772614953964358100,5.199358154296875,0.003491861280053854,-0.008346005342900753,0.0001670289784669876
1772614953974426000,5.209426025390625,-0.0012803387362509966,-0.004254835657775402,-0.003917732276022434
1772614953984493000,5.2194931640625,-0.002924574539065361,0.002593482844531536,-0.002120098564773798
1772614953994561300,5.229561279296875,-0.0020733193960040808,0.0017972452333196998,-0.0013547257985919714
1772614954004629200,5.239629150390625,-0.0017042052932083607,-0.001682973699644208,0.0020005907863378525
1772614954014696200,5.2496962890625,-0.005007309373468161,-0.0006586175877600908,0.0062829479575157166
1772614954024764200,5.25976416015625,-0.013135276734828949,0.004334542900323868,0.00553752901032567
1772614954034831000,5.2698310546875,-0.01428238209336996,-0.0007482010405510664,0.013154364190995693
1772614954044899000,5.279899169921875,-0.019925354048609734,0.0025961967185139656,0.023261593654751778
1772614954054966300,5.28996630859375,-0.01579378731548786,-0.002078197430819273,0.023428885266184807
1772614954065034200,5.3000341796875,-0.009035483002662659,-0.0013572797179222107,0.0260318573564291
1772614954075101200,5.31010107421875,0.001563733210787177,-0.004544753115624189,0.01732264645397663
1772614954085169200,5.320169189453125,0.0025922460481524467,-0.008480105549097061,0.013430703431367874
1772614954095237000,5.330237060546875,0.0035628476180136204,-0.009963780641555786,0.004094282165169716
1772614954105303000,5.340302978515625,0.007032147143036127,-0.010315051302313805,-0.004768718034029007
1772614954115370000,5.350369873046875,0.006902653258293867,-0.0019394040573388338,-0.007720915600657463
1772614954125438000,5.36043798828125,0.003262645099312067,-0.0022342160809785128,-0.009301767684519291
1772614954135506200,5.370506103515625,-0.007277101743966341,-0.0017241847235709429,-0.011445397511124611
1772614954145573000,5.380572998046875,-0.01628497801721096,-0.0034315374214202166,-0.010758567601442337
1772614954155641000,5.39064111328125,-0.018421754240989685,-0.00449961656704545,-0.008107366040349007
1772614954165708000,5.4007080078125,-0.018790869042277336,-0.004288161173462868,-0.011564414948225021
1772614954175776000,5.41077587890625,-0.011943081393837929,0.0021687960252165794,-0.004814036190509796
1772614954185843000,5.420843017578125,-0.004062787629663944,0.0029778643511235714,0.0016103072557598352
1772614954195911200,5.4309111328125,-0.00022873864509165287,0.0007877589669078588,0.013069967739284039
1772614954205978000,5.44097802734375,0.004761492367833853,-0.0025824715849012136,0.01875901222229004
1772614954216046000,5.451046142578125,0.007986602373421192,-0.0006720768287777901,0.018366975709795952
1772614954226114000,5.461114013671875,0.010203683748841286,-0.0032217875123023987,0.016025790944695473
1772614954236181000,5.471180908203125,0.010390248149633408,-0.013977669179439545,0.007196775171905756
1772614954246249200,5.481249267578125,0.004718247335404158,-0.014568358659744263,0.0036387923173606396
1772614954256316200,5.491316162109375,0.003910756204277277,-0.005733142141252756,0.0019579543732106686
1772614954266384100,5.501384033203125,0.004962171893566847,-0.0021069818176329136,-0.0007456868188455701
1772614954276451000,5.511451171875,0.0023391228169202805,-0.0022336686961352825,-0.004761125892400742
1772614954286519000,5.52151904296875,-0.003057240741327405,0.0005107186734676361,0.0011332486756145954
1772614954296587000,5.5315869140625,-0.0027525750920176506,-0.005632661283016205,0.009137112647294998
1772614954306654000,5.541654052734375,-0.003345927456393838,-0.009044170379638672,0.011892952024936676
1772614954316722200,5.55172216796875,-0.008473822847008705,-0.008845822885632515,0.012241477146744728
1772614954326789000,5.5617890625,-0.002007134957239032,-0.012915398925542831,0.011392993852496147
1772614954336857000,5.571857177734375,-0.0001311821397393942,-0.010870536789298058,0.00926098320633173
1772614954346924000,5.581924072265625,-0.0020334781147539616,-0.010372525081038475,0.0063698552548885345
1772614954356992000,5.591991943359375,-0.004454805050045252,-0.005792723968625069,0.0017487916629761457
1772614954367059000,5.602058837890625,-0.007553659379482269,0.0009394809603691101,-0.00014498212840408087
1772614954377127200,5.612127197265625,-0.007404339499771595,-0.001223230268806219,-0.0031907097436487675
1772614954387195100,5.622195068359375,-0.011148211546242237,-0.002527646254748106,-0.008700257167220116
1772614954397262000,5.632261962890625,-0.01488298736512661,-0.0019504891242831945,-0.0102638965472579
1772614954407330000,5.642330078125,-0.01145549863576889,-0.0027699435595422983,-0.007563451305031776
1772614954417397000,5.65239697265625,-0.008935367688536644,-0.007738443091511726,-0.006017208099365234
1772614954427465200,5.66246533203125,-0.008316981606185436,-0.0033080081921070814,0.0003315017092972994
1772614954437532200,5.6725322265625,0.006705888081341982,-0.007182463072240353,0.007624719757586718
1772614954447600000,5.68260009765625,0.01497606746852398,-0.0185011625289917,0.010051392018795013
1772614954457667000,5.6926669921875,0.005092871841043234,-0.016589656472206116,0.0033014973159879446
1772614954467735000,5.702735107421875,-0.007160332519561052,-0.00773517694324255,-0.0035516151692718267
1772614954477803000,5.712802978515625,-0.007128434721380472,-0.0066274600103497505,-0.008849328383803368
1772614954487870000,5.722869873046875,-0.0038817753084003925,-0.005831707268953323,-0.012737544253468513
1772614954497938200,5.732938232421875,-0.0005797637859359384,-0.005543992854654789,-0.009845585562288761
1772614954508005000,5.743005126953125,0.0026652980595827103,-0.004216406494379044,-0.012970272451639175
1772614954518073000,5.753072998046875,0.012933218851685524,-0.008096445351839066,-0.01078602485358715
1772614954528140000,5.76314013671875,0.011698310263454914,-0.01444488950073719,-0.004650900140404701
1772614954538208000,5.7732080078125,0.00582936080172658,-0.015525692142546177,-0.006996244192123413
1772614954548276500,5.7832763671875,0.009435547515749931,-0.011921104043722153,-0.008855663239955902
1772614954558343400,5.793343505859375,0.01594437286257744,-0.014959778636693954,-0.001639735884964466
1772614954568411400,5.803411376953125,0.0160229355096817,-0.019703667610883713,0.000034327153116464615
1772614954578478300,5.813478271484375,0.011587726883590221,-0.007879002019762993,0.0038682648446410894
1772614954588546300,5.82354638671875,0.005045139696449041,-0.003851769957691431,0.004487450234591961
1772614954598613500,5.833613525390625,-0.010922107845544815,0.003121041227132082,0.007047346327453852
1772614954608681500,5.843681396484375,-0.017764834687113762,0.007358130533248186,-0.0010428045643493533
1772614954618748400,5.85374853515625,-0.013281485065817833,0.006500225514173508,-0.016538478434085846
1772614954628816400,5.86381640625,0.004931607749313116,-0.004457350820302963,-0.023648586124181747
1772614954638884400,5.87388427734375,0.015425547957420349,-0.015937209129333496,-0.025269335135817528
1772614954648951300,5.883951416015625,0.012342140078544617,-0.0120202312245965,-0.025376394391059875
1772614954659019500,5.89401953125,0.009132541716098785,-0.005561092868447304,-0.019982460886240005
1772614954669086500,5.90408642578125,0.0031412276439368725,-0.008309475146234035,-0.008312754333019257
1772614954679154400,5.914154541015625,-0.008248437196016312,-0.00932560209184885,-0.0032211646903306246
1772614954689221400,5.924221435546875,-0.02123081497848034,-0.002964907791465521,-0.003737817984074354
1772614954699289300,5.934289306640625,-0.01613055355846882,0.006307736970484257,-0.005724366754293442
1772614954709357600,5.944357666015625,-0.004279221408069134,0.0010996588971465826,-0.005287341773509979
1772614954719424500,5.954424560546875,-0.0011911637848243117,-0.00211515836417675,0.002724487567320466
1772614954729492500,5.964492431640625,-0.004544882569462061,-0.00024109170772135258,0.00011751917190849781
1772614954739559400,5.974559326171875,-0.006544875912368298,0.006885843817144632,-0.0022221652325242758
1772614954749627400,5.98462744140625,-0.007984846830368042,0.007662421558052301,-0.0063913436606526375
1772614954759694300,5.9946943359375,-0.012040410190820694,0.00024317903444170952,0.0006649116985499859
1772614954769762300,6.00476220703125,-0.020695151761174202,-0.008461096324026585,0.0070969779044389725
1772614954779830500,6.01483056640625,-0.022317364811897278,-0.003861508332192898,0.006601758301258087
1772614954789897500,6.0248974609375,-0.016349220648407936,0.0006376358214765787,0.009214319288730621
1772614954799965400,6.03496533203125,-0.011807937175035477,-0.001488495385274291,0.010711570270359516
1772614954810032400,6.045032470703125,-0.012481451034545898,-0.005382834933698177,0.017415810376405716
1772614954820100400,6.055100341796875,-0.013087321072816849,-0.00009646080434322357,0.01494599599391222
1772614954830167300,6.065167236328125,-0.012999435886740685,0.00272196251899004,0.016378242522478104
1772614954840235500,6.075235595703125,-0.009714795276522636,-0.0014448838774114847,0.012149021029472351
1772614954850302500,6.085302490234375,-0.0102460952475667,-0.006822339259088039,0.013276869431138039
1772614954860370400,6.095370361328125,-0.007050220388919115,-0.009336262010037899,0.007549546658992767
1772614954870438400,6.1054384765625,-0.005386809818446636,-0.007430503144860268,-0.0030692750588059425
1772614954880505300,6.11550537109375,-0.002559639047831297,-0.009154951199889183,-0.01211034320294857
1772614954890573600,6.125573486328125,-0.004357539117336273,-0.01190279982984066,-0.01674637384712696
1772614954900640500,6.135640625,-0.00020751531701534986,-0.01656443439424038,-0.02124520018696785
1772614954910708500,6.14570849609375,0.00776066305115819,-0.017574837431311607,-0.019710952416062355
1772614954920775400,6.155775390625,0.008012045174837112,-0.01732085645198822,-0.010957527905702591
1772614954930843400,6.165843505859375,0.003944065887480974,-0.024619784206151962,0.002061069244518876
1772614954940911400,6.175911376953125,-0.0013020540354773402,-0.024526789784431458,0.009200108237564564
1772614954950978300,6.185978271484375,-0.006978049408644438,-0.01773146539926529,0.00427272729575634
1772614954961046500,6.196046630859375,-0.011854296550154686,-0.01081245206296444,-0.0007539228536188602
1772614954971113500,6.206113525390625,-0.010079566389322281,-0.0054387254640460014,-0.010375657118856907
1772614954981181400,6.216181396484375,-0.011046314612030983,0.0005487727466970682,-0.011034641414880753
1772614954991248400,6.226248291015625,-0.008538948372006416,-0.0021862934809178114,-0.002254731487482786
1772614955001316400,6.23631640625,-0.0038180649280548096,-0.0030400236137211323,0.006764671765267849
1772614955011384600,6.246384521484375,-0.00035302620381116867,0.0015781638212502003,0.006212598644196987
1772614955021451500,6.256451416015625,0.004928966518491507,0.005131448153406382,0.00869535468518734
1772614955031519500,6.26651953125,0.005346283782273531,0.0005414900369942188,0.00821358896791935
1772614955041586400,6.27658642578125,0.00885989423841238,-0.007417281158268452,0.00836697593331337
1772614955051654400,6.286654296875,0.013596326112747192,-0.007664688862860203,0.00502737145870924
1772614955061721300,6.296721435546875,0.013337568379938602,0.0007030058186501265,0.00189628591760993
1772614955071789600,6.30678955078125,0.013372988440096378,0.0007868953980505466,0.0017586005851626396
1772614955081856500,6.3168564453125,0.008477224968373775,-0.0043158382177352905,0.0020409447606652975
1772614955091924500,6.326924560546875,0.006604490336030722,-0.0017653289251029491,0.0036500270944088697
1772614955101992400,6.336992431640625,0.006920148618519306,0.005740907974541187,0.002138101030141115
1772614955112059400,6.347059326171875,0.00643332302570343,0.0037834844551980495,-0.00008084485307335854
1772614955122127400,6.35712744140625,0.005272963084280491,-0.001451045274734497,0.000781103502959013
1772614955132194300,6.3671943359375,0.0061704483814537525,-0.007031432818621397,0.007767640054225922
1772614955142262500,6.377262451171875,0.006162295117974281,-0.00816415436565876,0.004998407326638699
1772614955152329500,6.38732958984375,0.003769179107621312,-0.013717909343540668,-0.000014460645616054535
1772614955162397400,6.3973974609375,0.0030522961169481277,-0.012170952744781971,-0.012394062243402004
1772614955172465400,6.40746533203125,0.007095774170011282,-0.008884611539542675,-0.01992468163371086
1772614955182532400,6.417532470703125,0.007419572677463293,-0.008703833445906639,-0.017667556181550026
1772614955192600600,6.4276005859375,0.010414564982056618,-0.00573334377259016,-0.015659799799323082
1772614955202667500,6.43766748046875,0.005231254734098911,0.0005726120434701443,-0.0103935981169343
1772614955212735500,6.447735595703125,0.0015528963413089514,0.003052547574043274,-0.009359226562082767
1772614955222802400,6.457802490234375,0.0006546538788825274,0.0007191584445536137,-0.012709183618426323
1772614955232870400,6.467870361328125,-0.003998953849077225,-0.001987944822758436,-0.015862634405493736
1772614955242938400,6.4779384765625,-0.00455918163061142,-0.0057528140023350716,-0.024889424443244934
1772614955253005300,6.48800537109375,-0.0043836794793605804,-0.007812502793967724,-0.02949403040111065
1772614955263073500,6.498073486328125,0.003563582431524992,-0.004715217277407646,-0.015408395789563656
1772614955273140500,6.508140380859375,0.008873658254742622,-0.00045868661254644394,-0.006990676745772362
1772614955283208400,6.51820849609375,0.016029082238674164,0.007849892601370811,0.008470740169286728
1772614955293275400,6.528275390625,0.01076933741569519,0.011129310354590416,0.02303823083639145
1772614955303343400,6.53834326171875,0.006125850602984428,0.006452798843383789,0.03051612339913845
1772614955313410300,6.548410400390625,0.0026533547788858414,0.0032234499230980873,0.030256198719143867
1772614955323478500,6.558478515625,-0.004244765266776085,0.004115608986467123,0.025795668363571167
1772614955333546500,6.56854638671875,-0.006858923938125372,0.009234737604856491,0.009244387969374657
1772614955343613400,6.578613525390625,-0.003573913825675845,0.012295364402234554,-0.001035880297422409
1772614955353681400,6.588681396484375,-0.003427972551435232,0.014987021684646606,-0.007894052192568779
1772614955363748400,6.598748291015625,-0.008711664006114006,0.02111838012933731,-0.009613070636987686
1772614955373816600,6.608816650390625,-0.013780192472040653,0.022100554779171944,-0.008938492275774479
1772614955383883500,6.618883544921875,-0.019760482013225555,0.02086903154850006,-0.0035291581880301237
1772614955393951500,6.628951416015625,-0.013200851157307625,0.014137092046439648,0.0027969148941338062
1772614955404019500,6.63901953125,-0.0002632365794852376,0.001463287859223783,-0.003821955993771553
1772614955414086400,6.64908642578125,0.015852883458137512,-0.009674318134784698,-0.002349227899685502
1772614955424154400,6.659154296875,0.018020592629909515,-0.012956318445503712,-0.00043327268213033676
1772614955434221300,6.66922119140625,0.008970372378826141,-0.005248864181339741,0.001622421434149146
1772614955444289500,6.67928955078125,-0.006570933386683464,0.0020906063728034496,-0.004225491546094418
1772614955454356500,6.6893564453125,-0.016154851764440536,0.015137165784835815,-0.008011708036065102
1772614955464424400,6.699424560546875,-0.02366185188293457,0.01350307185202837,-0.011288199573755264
1772614955474492400,6.709492431640625,-0.026750851422548294,0.01145856361836195,-0.011956652626395226
1772614955484559400,6.719559326171875,-0.021340269595384598,0.011667809449136257,-0.011657125316560268
1772614955494627600,6.729627685546875,-0.009372024796903133,0.0017019942170009017,-0.008756676688790321
1772614955504694500,6.739694580078125,0.007559245452284813,-0.006370753515511751,0.00018172315321862698
1772614955514762500,6.749762451171875,0.015754858031868935,-0.012504279613494873,0.0009604315273463726
1772614955524829400,6.759829345703125,0.016864661127328873,-0.013031692244112492,0.0054093897342681885
1772614955534897400,6.7698974609375,0.015301916748285294,-0.011411691084504128,0.009901076555252075
1772614955544964000,6.779964111328125,0.003796793520450592,-0.005860354285687208,0.00562844006344676
1772614955555032000,6.790031982421875,-0.007372769992798567,0.004201866686344147,-0.0003815155941992998
1772614955565100300,6.800100341796875,-0.016374457627534866,0.006747987121343613,-0.006005827337503433
1772614955575167200,6.810167236328125,-0.02049756422638893,0.0012895718682557344,-0.016590828076004982
1772614955585235200,6.820235107421875,-0.022173840552568436,0.0029077501967549324,-0.019694343209266663
1772614955595302100,6.83030224609375,-0.015127649530768394,0.0076897223480045795,-0.01920352317392826
1772614955605370000,6.8403701171875,-0.006388526409864426,0.004557406529784203,-0.0036575598642230034
1772614955615437000,6.85043701171875,-0.00040706677827984095,-0.003693066304549575,0.01709672063589096
1772614955625505300,6.86050537109375,0.004361853934824467,-0.003199460916221142,0.029145997017621994
1772614955635573200,6.8705732421875,0.0037828830536454916,0.0018749261507764459,0.030172646045684814
1772614955645640200,6.88064013671875,0.0030835168436169624,0.002484171185642481,0.02526698261499405
1772614955655708200,6.890708251953125,-0.003254273906350136,0.0022777761332690716,0.02124534361064434
1772614955665775000,6.900775146484375,-0.007397312670946121,0.0007190783508121967,0.007508396171033382
1772614955675843300,6.91084326171875,-0.0092269042506814,0.002074361080303788,-0.00471870880573988
1772614955685910300,6.92091015625,-0.006025723181664944,0.0014830096624791622,-0.013685018755495548
1772614955695978200,6.930978271484375,-0.0063703362829983234,0.0004547631833702326,-0.020860105752944946
1772614955706046200,6.941046142578125,-0.0025209616869688034,-0.0010132428724318743,-0.020961472764611244
1772614955716113200,6.951113037109375,-0.0016980449436232448,-0.0007748899515718222,-0.021520204842090607
1772614955726181000,6.96118115234375,-0.0061173150315880775,0.00034139910712838173,-0.016364041715860367
1772614955736248000,6.971248046875,-0.008699782192707062,0.0045734285376966,-0.009224905632436275
1772614955746316300,6.98131640625,-0.012753891758620739,0.0014342020731419325,-0.0013211931800469756
1772614955756383200,6.99138330078125,-0.016896171495318413,0.007812472991645336,0.011398330330848694
1772614955766451200,7.001451171875,-0.014676673337817192,0.006720519624650478,0.015109363943338394
1772614955776518100,7.01151806640625,-0.011484875343739986,0.006009721662849188,0.022221868857741356
1772614955786586000,7.021586181640625,-0.00731631089001894,0.010201701894402504,0.016854196786880493
1772614955796654300,7.031654296875,-0.005011345259845257,0.00933138094842434,0.013338558375835419
1772614955806721300,7.04172119140625,-0.0029016712214797735,0.004355164244771004,0.007244374603033066
1772614955816789200,7.051789306640625,0.00815364345908165,0.0030004139989614487,0.0026512211188673973
1772614955826856200,7.061856201171875,0.009779155254364014,-0.0007827070076018572,0.0011882747057825327
1772614955836924200,7.071924072265625,0.009589271619915962,-0.004695689305663109,-0.003737241495400667
1772614955846991000,7.0819912109375,0.0068143391981720924,-0.004514493979513645,-0.0027898834086954594
1772614955857059300,7.092059326171875,0.003339713206514716,0.0018280904041603208,0.00027168658562004566
1772614955867127300,7.102127197265625,0.004294210113584995,-0.0028085089288651943,0.006755203474313021
1772614955877194200,7.1121943359375,0.004269708879292011,-0.005788320209830999,0.005127746146172285
1772614955887262200,7.12226220703125,0.0019220917019993067,-0.0035268140491098166,0.002405559876933694
1772614955897329200,7.1323291015625,0.0029633878730237484,-0.00021730363368988037,-0.004524784162640572
1772614955907397000,7.142397216796875,0.0034246062859892845,-0.004094384144991636,-0.005502866115421057
1772614955917464000,7.152464111328125,0.004068558569997549,-0.0069562168791890144,-0.006701821461319923
1772614955927532300,7.1625322265625,-0.0014980216510593891,-0.006898743100464344,-0.00288008782081306
1772614955937600300,7.172600341796875,-0.006189180072396994,0.003685458330437541,-0.0017218790017068386
1772614955947667200,7.182667236328125,-0.010159458965063095,0.003964652307331562,0.0027179026510566473
1772614955957735200,7.192735107421875,-0.0060853553004562855,0.004277307540178299,0.006557115353643894
1772614955967802000,7.202802001953125,-0.0025611761957406998,-0.002475462621077895,0.011251392774283886
1772614955977870300,7.212870361328125,0.002386711072176695,-0.004040336236357689,0.014964905567467213
1772614955987937300,7.222937255859375,0.008248861879110336,-0.0016903628129512072,0.016384635120630264
1772614955998005200,7.233005126953125,0.011942317709326744,-0.002550398465245962,0.012074770405888557
1772614956008072200,7.243072265625,0.016083041206002235,-0.0006098239682614803,0.016326075419783592
1772614956018140200,7.25314013671875,0.008984651416540146,-0.0010630940087139606,0.017003050073981285
1772614956028208000,7.2632080078125,-0.004090486094355583,0.0017074133502319455,0.01840466819703579
1772614956038275300,7.273275390625,-0.005460682790726423,0.004851807840168476,0.012131858617067337
1772614956048343300,7.28334326171875,-0.007863262668251991,0.00858345814049244,0.009970077313482761
1772614956058410200,7.29341015625,-0.010509113781154156,0.00518739502876997,0.009391904808580875
1772614956068478200,7.303478271484375,-0.004969287663698196,0.004976372234523296,0.01726999506354332
1772614956078545200,7.313545166015625,0.0034012943506240845,0.002515078755095601,0.015579421073198318
1772614956088613000,7.323613037109375,0.017563125118613243,0.003304570447653532,0.010387830436229706
1772614956098681000,7.33368115234375,0.02459786646068096,-0.0016390555538237095,0.013797208666801453
1772614956108748300,7.343748291015625,0.031536053866147995,-0.00022038421593606472,0.021940138190984726
1772614956118816300,7.353816162109375,0.023540178313851357,-0.00516214594244957,0.026208119466900826
1772614956128883200,7.36388330078125,-0.0013023768551647663,0.00041292584501206875,0.03104725107550621
1772614956138951200,7.373951171875,-0.015038428828120232,0.007984292693436146,0.02171234041452408
1772614956149018000,7.38401806640625,-0.02443072572350502,0.0013296760153025389,0.005454177036881447
1772614956159086300,7.39408642578125,-0.017464429140090942,0.0016559133073315024,-0.013095272704958916
1772614956169154000,7.404154052734375,-0.008526736870408058,-0.0046549709513783455,-0.025188647210597992
1772614956179221200,7.41422119140625,0.005703863687813282,-0.009565041400492191,-0.035911064594984055
1772614956189289200,7.424289306640625,0.00927276536822319,-0.013569492846727371,-0.042562372982501984
1772614956199356200,7.434356201171875,0.008001638576388359,-0.012091705575585365,-0.03652312606573105
1772614956209424100,7.444424072265625,-0.003658353816717863,-0.008509578183293343,-0.01799701154232025
1772614956219491300,7.4544912109375,-0.01399914175271988,-0.004065295215696096,-0.0022785032633692026
1772614956229559300,7.464559326171875,-0.019158974289894104,0.003840348217636347,0.01570945605635643
1772614956239626200,7.474626220703125,-0.014827877283096313,0.011156318709254265,0.024048078805208206
1772614956249694200,7.484694091796875,-0.010798599570989609,0.011571258306503296,0.026586338877677917
1772614956259762200,7.49476220703125,-0.004511674866080284,0.006408720277249813,0.03116617724299431
1772614956269829000,7.5048291015625,0.004326188936829567,0.005759110674262047,0.027789698913693428
1772614956279897000,7.51489697265625,0.010271696373820305,0.0021044546738266945,0.024231715127825737
1772614956289964300,7.52496435546875,0.017219679430127144,-0.0015600398182868958,0.019645705819129944
1772614956300032300,7.5350322265625,0.013717355206608772,-0.000469741877168417,0.016235260292887688
1772614956310099200,7.54509912109375,0.005200647749006748,-0.002199508948251605,0.008324481546878815
1772614956320167200,7.555167236328125,-0.005917250644415617,0.003093523671850562,-0.004263215698301792
1772614956330235100,7.565235107421875,-0.010625841096043587,0.012546386569738388,-0.014967168681323528
1772614956340302300,7.57530224609375,-0.012082323431968689,0.014856678433716297,-0.015927238389849663
1772614956350370000,7.5853701171875,-0.009899759665131569,0.011075608432292938,-0.015207132324576378
1772614956360437200,7.595437255859375,-0.008772443979978561,0.009323514997959137,-0.006996607407927513
1772614956370505200,7.605505126953125,-0.0027202079072594643,0.008922283537685871,0.005768041126430035
1772614956380572200,7.615572265625,-0.00301129138097167,0.004098233766853809,0.01362117100507021
1772614956390640000,7.62564013671875,-0.0010937333572655916,0.0029523761477321386,0.02839353121817112
1772614956400708000,7.6357080078125,-0.0012540556490421295,0.00028495420701801777,0.030038831755518913
1772614956410775300,7.645775390625,-0.0025602951645851135,0.0012906142510473728,0.027233626693487167
1772614956420843000,7.655843017578125,-0.005056209396570921,0.0036224781069904566,0.016502153128385544
1772614956430910200,7.66591015625,-0.001966451294720173,0.002165678422898054,0.004072478041052818
1772614956440978200,7.675978271484375,-0.012279275804758072,0.005426985211670399,-0.0034504192881286144
1772614956451045000,7.686045166015625,-0.016448086127638817,0.0005294971633702517,-0.004804247058928013
1772614956461113000,7.696113037109375,-0.02109077386558056,-0.003710521385073662,-0.013533556833863258
1772614956471181000,7.70618115234375,-0.024325469508767128,0.001271101413294673,-0.01667221076786518
1772614956481248300,7.716248291015625,-0.028391851112246513,0.0011616453994065523,-0.02087947353720665
1772614956491316000,7.72631591796875,-0.030259914696216583,0.006461451295763254,-0.02052178420126438
1772614956501383200,7.736383056640625,-0.024783656001091003,0.005175677128136158,-0.007753525860607624
1772614956511451100,7.746451171875,-0.018445128574967384,0.0022674906067550182,0.008738945238292217
1772614956521518300,7.756518310546875,-0.014845866709947586,0.00021925335749983788,0.028446869924664497
1772614956531586000,7.7665859375,-0.006403540261089802,0.004437112715095282,0.04138508811593056
1772614956541653200,7.7766533203125,-0.011440643109381199,0.009659837931394577,0.038964275270700455
1772614956551721000,7.786720947265625,-0.018979011103510857,0.00877023208886385,0.029034169390797615
1772614956561788700,7.79678857421875,-0.014777075499296188,0.006844500079751015,0.014946846291422844
1772614956571856000,7.80685595703125,-0.013301191851496696,0.003339196788147092,0.004113470204174519
1772614956581923800,7.816923828125,-0.010684637352824211,-0.0010614106431603432,-0.0039002476260066032
1772614956591991000,7.826990966796875,-0.006757108028978109,0.0008675968274474144,-0.002805614611133933
1772614956602059000,7.83705908203125,-0.007378955837339163,-0.005529848858714104,0.0021513269748538733
1772614956612126000,7.8471259765625,-0.008429880253970623,-0.009474306367337704,0.00614083930850029
1772614956622194000,7.85719384765625,-0.009611524641513824,-0.011483129113912582,0.008295869454741478
1772614956632261600,7.86726171875,-0.014828084036707878,-0.014881027862429619,0.006537688430398703
1772614956642328800,7.877328857421875,-0.010708173736929893,-0.01549248956143856,-0.0016379501903429627
1772614956652396800,7.887396728515625,0.002757443580776453,-0.013067956082522869,-0.0023341397754848003
1772614956662464000,7.897464111328125,0.011202061548829079,-0.02032320387661457,-0.00839922297745943
1772614956672532000,7.907531982421875,0.011610063724219799,-0.017941247671842575,-0.006603866815567017
1772614956682599000,7.917598876953125,0.00234785582870245,-0.007899266667664051,-0.0025010008830577135
1772614956692667000,7.9276669921875,-0.004091549664735794,-0.007230297662317753,0.0027719782665371895
1772614956702734800,7.93773486328125,-0.0071690985932946205,-0.009748582728207111,0.009127877652645111
1772614956712802000,7.947802001953125,-0.011863349936902523,-0.01142202690243721,0.0049712033942341805
1772614956722869800,7.957869873046875,-0.01782670058310032,-0.005834182724356651,0.007157924585044384
1772614956732937000,7.96793701171875,-0.0194411501288414,-0.0058897715061903,0.004200119525194168
1772614956743004700,7.978004638671875,-0.01439233124256134,-0.006213878281414509,0.004313836805522442
1772614956753071900,7.98807177734375,-0.006450803950428963,-0.004243757575750351,0.0060037593357264996
1772614956763139800,7.998139892578125,-0.00028531975112855434,-0.008261934854090214,0.00594463711604476
1772614956773207800,8.008207763671875,-0.0020879507064819336,-0.009531982243061066,0.008838912472128868
1772614956783275000,8.01827490234375,-0.005651260260492563,-0.001905487384647131,0.012210207991302013
1772614956793342700,8.0283427734375,-0.00828715693205595,-0.0005645437631756067,0.01587604358792305
1772614956803410000,8.038409912109374,-0.005256745498627424,-0.010472302325069904,0.01340649463236332
1772614956813477600,8.0484775390625,-0.006244060583412647,-0.009859465062618256,0.0049287136644124985
1772614956823544800,8.058544921875,-0.0057535069063305855,-0.013129294849932194,-0.01101083867251873
1772614956833612800,8.06861279296875,-0.009498648345470428,-0.010349205695092678,-0.02244916372001171
1772614956843680800,8.0786806640625,-0.009608636610209942,-0.010503668338060379,-0.02081478200852871
1772614956853748000,8.088748046875,-0.011461270973086357,-0.006909701973199844,-0.017239052802324295
1772614956863815700,8.098815673828126,-0.01701662503182888,-0.00763461459428072,-0.012122854590415955
1772614956873883000,8.1088828125,-0.018533214926719666,0.0016190048772841692,-0.005024985410273075
1772614956883950800,8.118950927734375,-0.020094094797968864,-0.002138715237379074,-0.00017856457270681858
1772614956894018000,8.12901806640625,-0.010933355428278446,-0.010775592178106308,-0.0020767319947481155
1772614956904085800,8.139085693359375,-0.00094889773754403,-0.018935518339276314,-0.007632618770003319
1772614956914153000,8.149153076171874,0.00200905604287982,-0.023183345794677734,-0.008551529608666897
1772614956924221000,8.159220947265625,-0.0026655904948711395,-0.024436097592115402,-0.009160861372947693
1772614956934288600,8.16928857421875,-0.012654227204620838,-0.020579207688570023,-0.0025542848743498325
1772614956944355800,8.17935595703125,-0.01768014393746853,-0.00942322425544262,0.008600898087024689
1772614956954423800,8.189423828125,-0.017323853448033333,-0.0019464497454464436,0.024329891428351402
1772614956964491000,8.199490966796875,-0.016871383413672447,0.0008474723435938358,0.03467041254043579
1772614956974558700,8.209558837890626,-0.012789392843842506,-0.004453614819794893,0.03802214562892914
1772614956984626000,8.2196259765625,-0.0016150360461324453,-0.007595346309244633,0.04122672602534294
1772614956994693600,8.229693603515624,0.003516568336635828,-0.013692704029381275,0.03628293052315712
1772614957004761900,8.239761962890626,0.006162685342133045,-0.016897551715373993,0.023736514151096344
1772614957014828800,8.249828857421875,0.010023817420005798,-0.022986114025115967,0.01181687880307436
1772614957024896800,8.259896728515624,0.00942913256585598,-0.023331260308623314,0.00495497789233923
1772614957034964000,8.2699638671875,0.002970762550830841,-0.023781850934028625,-0.0022329397033900023
1772614957045031700,8.28003173828125,-0.007463502697646618,-0.019851291552186012,-0.0018864624435082078
1772614957055099000,8.290098876953126,-0.013531919568777084,-0.016228152438998222,-0.0015169857069849968
1772614957065166800,8.300166748046875,-0.01399051584303379,-0.019269483163952827,-0.0002402663230895996
1772614957075234800,8.31023486328125,-0.020313724875450134,-0.017468426376581192,0.0011985637247562408
1772614957085301800,8.3203017578125,-0.012747418135404587,-0.019946763291954994,0.003999676555395126
1772614957095369700,8.33036962890625,-0.008301064372062683,-0.026435013860464096,0.011062821373343468
1772614957105437000,8.34043701171875,-0.003396321088075638,-0.029670756310224533,0.016591276973485947
1772614957115504600,8.350504638671875,-0.007634825073182583,-0.0294029638171196,0.022404225543141365
1772614957125571800,8.36057177734375,-0.013736126944422722,-0.031059451401233673,0.025421585887670517
1772614957135639800,8.370639892578126,-0.012813547626137733,-0.02824314497411251,0.023302461951971054
1772614957145707800,8.380707763671875,-0.006246191915124655,-0.027788808569312096,0.01301840040832758
1772614957155774700,8.390774658203124,-0.0051536401733756065,-0.030722785741090775,0.001877238741144538
1772614957165842700,8.4008427734375,-0.005875889677554369,-0.023395895957946777,-0.007606278173625469
1772614957175909600,8.41090966796875,-0.007084573619067669,-0.01707005873322487,-0.009934242814779282
1772614957185977900,8.420977783203124,-0.010221777483820915,-0.01923733949661255,-0.007180800661444664
1772614957196044800,8.431044921875,-0.011121477000415325,-0.015051628462970257,0.001407093834131956
1772614957206112800,8.44111279296875,-0.014376658946275711,-0.013533093966543674,0.007047669030725956
1772614957216180000,8.451179931640626,-0.013362035155296326,-0.019669868052005768,0.010307741351425648
1772614957226247700,8.46124755859375,-0.012612354941666126,-0.01884428784251213,0.012508844025433064
1772614957236315600,8.471315673828125,-0.011658430099487305,-0.017925869673490524,0.009016655385494232
1772614957246382800,8.4813828125,-0.007058352697640657,-0.020166654139757156,0.010522140190005302
1772614957256450800,8.491450927734375,-0.005300647113472223,-0.018504999577999115,0.012746664695441723
1772614957266517800,8.501517822265624,-0.0028577293269336224,-0.015609878115355968,0.020728956907987595
1772614957276585700,8.511585693359375,-0.002885692287236452,-0.010992222465574741,0.0254595298320055
1772614957286653000,8.52165283203125,-0.003085429547354579,-0.011999163776636124,0.02064107172191143
1772614957296720600,8.531720703125,0.0028101536445319653,-0.011958712711930275,0.012730246409773827
1772614957306788900,8.541788818359375,0.0064331176690757275,-0.009309133514761925,-0.003665771335363388
1772614957316855800,8.551855712890625,0.0014097611419856548,-0.010720263235270977,-0.009801885113120079
1772614957326923800,8.561923828125,0.003384228562936187,-0.007424602285027504,-0.00962292030453682
1772614957336990700,8.57199072265625,0.002926656510680914,-0.007090158760547638,-0.003558272961527109
1772614957347058700,8.58205859375,0.005636955611407757,-0.009451583959162235,0.004029072821140289
1772614957357125600,8.592125732421875,0.004962564911693335,-0.008209706284105778,0.014618721790611744
1772614957367193900,8.60219384765625,0.0043985070660710335,-0.002381112426519394,0.014824050478637218
1772614957377261800,8.61226171875,0.0023797056637704372,0.0034980515483766794,0.01559486798942089
1772614957387328800,8.622328857421875,-0.0015926654450595379,-0.003726039081811905,0.01644068770110607
1772614957397396700,8.632396728515625,-0.001872544176876545,-0.0058029526844620705,0.015497781336307526
1772614957407463700,8.642463623046876,-0.0038781706243753433,-0.0041997297666966915,0.007605237886309624
1772614957417531600,8.65253173828125,-0.005119961686432362,-0.00022757472470402718,0.004329719115048647
1772614957427598800,8.662598876953124,-0.002494617598131299,0.002590049523860216,0.004085507243871689
1772614957437666800,8.672666748046876,-0.0020796351600438356,0.0006645990069955587,0.00920804962515831
1772614957447734800,8.68273486328125,0.005692534148693085,0.0013996314955875278,0.013252859935164452
1772614957457801700,8.6928017578125,0.00812461506575346,-0.0011350647546350956,0.016958186402916908
1772614957467869700,8.70286962890625,0.008265496231615543,-0.0015052440576255322,0.020065030083060265
1772614957477936600,8.7129365234375,0.004571917001157999,-0.003462984226644039,0.01631459966301918
1772614957488004900,8.7230048828125,-0.004383761435747147,-0.005663021467626095,0.0009316473733633757
1772614957498071800,8.73307177734375,-0.00990377739071846,-0.00549028255045414,-0.01311526820063591
1772614957508139800,8.743139892578125,-0.0051151467487216,-0.002482775365933776,-0.01607377454638481
1772614957518207700,8.753207763671876,0.0017241169698536396,-0.002226845594123006,-0.015239938162267208
1772614957528274700,8.763274658203125,0.006831793114542961,0.0010006395168602467,-0.014508634805679321
1772614957538343000,8.773343017578124,0.012616505846381187,0.0017368734115734696,-0.008354312740266323
1772614957548409900,8.783409912109375,0.0029367152601480484,0.0026585934683680534,-0.008280277252197266
1772614957558478000,8.79347802734375,-0.004672426730394363,-0.003194062039256096,-0.007633427157998085
1772614957568545000,8.803544921875,-0.009091942571103573,-0.0006350302137434483,-0.01222977600991726
1772614957578613000,8.813613037109375,-0.011847986839711666,0.007981108501553535,-0.011367224156856537
1772614957588681000,8.823680908203125,-0.012064501643180847,0.009705771692097187,-0.001159061212092638
1772614957598748000,8.833747802734376,-0.009829966351389885,0.000722123309969902,0.008335331454873085
1772614957608815900,8.84381591796875,-0.0009786844020709395,-0.005170919932425022,0.021823711693286896
1772614957618882800,8.8538828125,0.014689041301608086,-0.005526883527636528,0.021441351622343063
1772614957628951000,8.863950927734376,0.01898578368127346,-0.0027532014064490795,0.017490020021796227
1772614957639018000,8.87401806640625,0.017263518646359444,-0.010995951481163502,0.007576935924589634
1772614957649086000,8.8840859375,0.0014544612495228648,-0.018142543733119965,0.0014444750268012285
1772614957659154000,8.89415380859375,-0.01927984319627285,-0.012969207018613815,-0.007649759761989117
1772614957669220900,8.904220947265625,-0.028654703870415688,-0.005827408749610186,-0.00660020811483264
1772614957679289000,8.9142890625,-0.02726375125348568,-0.004397641867399216,-0.00690952455624938
1772614957689356000,8.92435595703125,-0.026089031249284744,-0.006092477589845657,-0.002656722441315651
1772614957699424000,8.934424072265625,-0.01718846522271633,-0.005654715001583099,0.007139911875128746
1772614957709491000,8.944490966796875,-0.005592263303697109,-0.009982618503272533,0.01732596941292286
1772614957719559000,8.954558837890625,0.004710774403065443,-0.016367120668292046,0.02039833553135395
1772614957729625900,8.9646259765625,0.0069305188953876495,-0.024169649928808212,0.015470156446099281
1772614957739694000,8.974694091796875,-0.002419515745714307,-0.023134632036089897,0.006204650737345219
1772614957749762000,8.984761962890625,-0.016978750005364418,-0.019574785605072975,-0.0052354903891682625
1772614957759829000,8.9948291015625,-0.029749877750873566,-0.01710628718137741,-0.01445193774998188
1772614957769897000,9.00489697265625,-0.025247538462281227,-0.013113409280776978,-0.017076216638088226
1772614957779964000,9.0149638671875,-0.019649570807814598,-0.009459261782467365,-0.0199163518846035
1772614957790032000,9.025031982421876,-0.010021178051829338,-0.013650810346007347,-0.012168152257800102
1772614957800098800,9.035098876953125,0.003238410223275423,-0.02344389632344246,0.0006792270578444004
1772614957810167000,9.0451669921875,0.012308871373534203,-0.04066869243979454,0.054128337651491165
1772614957820235000,9.055235107421876,0.024490149691700935,-0.09383706748485565,0.10057301819324493
1772614957830302000,9.065302001953125,0.029079308733344078,-0.0788503959774971,0.062046393752098083
1772614957840370000,9.075369873046874,0.027544651180505753,0.0006364700384438038,-0.005394522566348314
1772614957850436900,9.085436767578125,0.005391944665461779,0.005477031692862511,-0.06531138718128204
1772614957860505000,9.095505126953125,-0.020386673510074615,-0.022459346801042557,-0.09606356173753738
1772614957870572000,9.105572021484376,-0.024241600185632706,-0.03407605364918709,-0.10889013856649399
1772614957880640000,9.115639892578125,-0.016895802691578865,-0.020297657698392868,-0.1049199029803276
1772614957890708000,9.1257080078125,-0.006828521843999624,-0.008573358878493309,-0.08746128529310226
1772614957900775000,9.13577490234375,-0.0103567810729146,-0.00497948843985796,-0.05124454200267792
1772614957910843000,9.1458427734375,-0.0072818947955966,-0.012646730057895184,0.00047084782272577286
1772614957920910000,9.15591015625,-0.0014891307801008224,-0.014446876011788845,0.057144489139318466
1772614957930978000,9.16597802734375,0.0030542220920324326,-0.006171634420752525,0.08634152263402939
