time,seconds_elapsed,z,y,x
1772614439251420000,0.088419921875,-0.029264672929048538,0.08652385272085666,0.03274016701988876
1772614439261486800,0.09848681640625,0.01974748752117157,0.07712766334414482,-0.050225481762737036
1772614439271552500,0.108552490234375,0.013431143981218337,0.07794599398970603,-0.047721536117792125
1772614439281619500,0.118619384765625,-0.0923871917963028,0.08603168528974056,-0.11463073391690849
1772614439291686700,0.128686767578125,-0.14543255328536034,0.135513216817379,-0.19418204421140253
1772614439301753900,0.13875390625,-0.10377543177306651,0.12917407692372798,-0.13967742382474244
1772614439311820800,0.14882080078125,-0.06574409954249859,0.12204407891333102,-0.06702807493843138
1772614439321887700,0.1588876953125,-0.14368775544464588,0.12425240261256694,-0.05480119218043983
1772614439331954700,0.16895458984375,-0.307308291849494,0.11984861469566821,-0.20465959908403455
1772614439342021600,0.179021728515625,-0.4442699539095163,0.12618190937042237,-0.23204174620211124
1772614439352088600,0.189088623046875,-0.5536427672982216,0.14540391171276568,-0.10719744211100041
1772614439362155800,0.19915576171875,-0.5983753507331013,0.1741945373892784,0.0219721047680825
1772614439372222700,0.20922265625,-0.7633090155631304,0.16484686332941054,0.05287395044490695
1772614439382289700,0.21928955078125,-0.9168044637948274,0.18548691577613352,-0.007335092128440737
1772614439392355600,0.22935546875,-0.9785945650145411,0.31225100894868374,0.0744927117306739
1772614439402422800,0.2394228515625,-0.8239657288387418,0.465664039593935,0.27654008248969913
1772614439412489700,0.24948974609375,-0.6120490712985396,0.47498014947175976,0.3897767316997051
1772614439422556700,0.259556640625,-0.3959776321664452,0.42701779033541676,0.3553378710031509
1772614439432623600,0.26962353515625,-0.10882190150767564,0.40140404112935063,0.26791728863827885
1772614439442690600,0.279690673828125,0.10089490790069103,0.23022388312518596,0.18754940126389263
1772614439452757500,0.289757568359375,0.23586919553577898,0.026781623941659925,0.07916998282670974
1772614439462824700,0.29982470703125,0.2992500730782747,-0.07157295182645321,-0.12125395144894718
1772614439472891600,0.3098916015625,0.38631051689386364,-0.10991291161477565,-0.24294600205421446
1772614439482958600,0.31995849609375,0.49252749660015105,-0.09217442582845688,-0.20154694695621728
1772614439493025800,0.33002587890625,0.6185401868835091,-0.04282791885733604,-0.08445398764424025
1772614439503091500,0.340091552734375,0.6845446909278631,0.049318449920415876,0.028302988290041683
1772614439513158700,0.35015869140625,0.6524570695325732,0.12760054399669168,0.11336451337337493
1772614439523225600,0.3602255859375,0.452786145581305,0.12337737334370612,0.14792707351483403
1772614439533292800,0.370292724609375,0.2386342763349414,0.17701602455079554,0.22841215752810237
1772614439543359700,0.38035986328125,0.1418687233239412,0.20326222644150255,0.4117421144660562
1772614439553426700,0.3904267578125,0.10108283168822527,0.14337152910232542,0.5564288908854127
1772614439563493600,0.40049365234375,0.046507484152913094,0.051149172478914255,0.5664455502480268
1772614439573560800,0.410560791015625,-0.0696036975800991,-0.03723755150437355,0.36877464100755747
1772614439583627800,0.420627685546875,-0.15292963104248045,-0.13373802383840083,0.09237338246665894
1772614439593694700,0.43069482421875,-0.2145622036129236,-0.19624211854636667,-0.08175349651388823
1772614439603761700,0.44076171875,-0.11564940944015979,-0.19228548987507818,-0.08299757829084992
1772614439613828600,0.45082861328125,0.11273732138574123,-0.21696984927654264,-0.018197919991612434
1772614439623894800,0.460894775390625,0.3169014651030302,-0.25546470736563204,0.04024330919161439
1772614439633961700,0.470961669921875,0.3380664182066917,-0.28662966095805165,-0.0593275104984641
1772614439644028700,0.481028564453125,0.2677747383624315,-0.27821722192168236,-0.2231971993587911
1772614439654095600,0.491095703125,0.2562675481811166,-0.2607663209050894,-0.23183358334414658
1772614439664162600,0.50116259765625,0.26240590480566023,-0.2481511694818735,-0.21357560372836887
1772614439674229500,0.5112294921875,0.25858430069088933,-0.17536065855920313,-0.23694318144284188
1772614439684296700,0.521296630859375,0.20414339319020508,-0.12913491395711899,-0.26267142387405035
1772614439694363600,0.53136376953125,0.009465162959694861,-0.12386428007781505,-0.32113420730195935
1772614439704430600,0.5414306640625,-0.10698913312256336,-0.07468319280147552,-0.30356194492802024
1772614439714497500,0.55149755859375,-0.10412380681931972,-0.04496376184225082,-0.13300291449688373
1772614439724564500,0.561564453125,-0.022281682173907757,0.023252280771732328,0.09712401105985045
1772614439734630700,0.571630615234375,0.008930325430631637,0.08901333144903183,0.21383001688085496
1772614439744697600,0.581697509765625,-0.09744681327342987,0.09232815508544444,0.11383403058126568
1772614439754764500,0.5917646484375,-0.28652298571318385,0.1102028344720602,-0.14154745548032224
1772614439764831700,0.601831787109375,-0.32429595926851035,0.10691899049580096,-0.2050054899122566
1772614439774898700,0.611898681640625,-0.243235924911499,0.09051496818363666,-0.05552168847471475
1772614439784965600,0.621965576171875,-0.12161211723685264,0.1046644895672798,0.1432457838308066
1772614439795032800,0.63203271484375,0.0249789584338665,0.13194821781218052,0.29131014692448076
1772614439805099800,0.642099853515625,0.09734276837706565,0.13620412169098853,0.331926308016479
1772614439815166700,0.652166748046875,0.08814122478961944,0.14894436079859733,0.26676015449240803
1772614439825233700,0.662233642578125,0.08330839780569076,0.1661474245339632,0.22051292871087788
1772614439835300600,0.672300537109375,0.1217144085675478,0.11031272458732128,0.19426848038583994
1772614439845367600,0.682367431640625,0.15414543657302857,0.06292611951231956,0.17369477117359639
1772614439855433700,0.692433837890625,0.1026607485294342,0.044019758990406985,0.07841514587141572
1772614439865500700,0.702500732421875,-0.009473930788040161,-0.025006430962681767,-0.0817106802854687
1772614439875567600,0.712567626953125,-0.08982903174608946,-0.06696691933572292,-0.177328451500833
1772614439885634600,0.722634521484375,-0.1616892760813236,-0.08354571369290352,-0.2016185508877039
1772614439895701800,0.73270166015625,-0.19403613293468952,-0.08444880001246928,-0.1456390356428921
1772614439905768700,0.742768798828125,-0.22367753022164105,-0.06646773764193058,-0.10118329638801514
1772614439915835600,0.752835693359375,-0.1930363082423806,-0.0462806896597147,-0.08012925631292164
1772614439925902600,0.762902587890625,-0.22859745096713302,-0.04900339262187481,-0.013970365424454212
1772614439935969500,0.772969482421875,-0.25055764610171316,-0.048048283854126926,0.06030541561990976
1772614439946036500,0.783036376953125,-0.1776853021144867,-0.03154372377693653,0.12942688264101743
1772614439956103700,0.793103759765625,-0.12585165450274943,0.005239654219150543,0.18429755986109375
1772614439966170600,0.803170654296875,-0.054206221961975096,0.05443593906462192,0.22880291041135786
1772614439976236500,0.813236572265625,-0.014666823256015777,0.08205752096176147,0.23737770040258763
1772614439986303500,0.823303466796875,-0.15745675307810306,0.08631050223112106,0.04240720922723412
1772614439996370400,0.833370361328125,-0.29098259547054767,0.08508242174088955,-0.1702796289678663
1772614440006438000,0.84343798828125,-0.3341021907508373,-0.007575988212227821,-0.21244564985036848
1772614440016504800,0.8535048828125,-0.30541210283935066,-0.004589665877819061,-0.17958792086541653
1772614440026571800,0.86357177734375,-0.1837760202050209,0.037646716827154154,-0.06059767656475305
1772614440036638700,0.873638671875,-0.057415247136354444,0.05920914481580257,0.06499181987047195
1772614440046705700,0.88370556640625,-0.017381342911720273,0.08680676131546497,0.08424209845922886
1772614440056772600,0.893772705078125,-0.01641220561861992,0.15846037716269493,0.07019450308009982
1772614440066839800,0.90383984375,-0.01374737032353878,0.15888181744515895,0.08926153405644
1772614440076906800,0.91390673828125,0.03977671459317207,0.11964110942482947,0.06548449875824153
1772614440086972700,0.92397265625,0.04767126723527908,0.1349596745878458,-0.0221294142216444
1772614440097039600,0.93403955078125,-0.046077276042103765,0.16930910343527794,-0.08831818879172205
1772614440107106600,0.9441064453125,-0.08557663499861955,0.10542086089253425,-0.05661079888567328
1772614440117173800,0.954173828125,-0.11932488308250903,0.0953103857666254,-0.02454480480030179
1772614440127240700,0.96424072265625,-0.13867314215302468,0.14093991804122924,-0.002025879804417491
1772614440137307600,0.9743076171875,-0.09412439085245132,0.13879180009663103,0.03631466450579464
1772614440147374600,0.98437451171875,-0.014519523739814758,0.07817921822369098,0.04412146579921245
1772614440157441500,0.994441650390625,0.08278262036591767,0.03491466151475906,0.036334830510988826
1772614440167508500,1.004508544921875,0.15895634398609398,-0.028868951609730718,-0.060468497227132316
1772614440177575700,1.01457568359375,-0.020083003085851668,-0.086465400531888,-0.3242894564624876
1772614440187642600,1.024642578125,-0.17599807967990636,-0.0809802471190691,-0.4872225951250642
1772614440197709600,1.03470947265625,-0.12219400877803563,-0.11695055516660213,-0.3713927876166999
1772614440207775500,1.044775390625,-0.04443827666342258,-0.1049701945155859,-0.17887991872653364
1772614440217842700,1.0548427734375,0.03627718203961849,-0.0022907412856817246,-0.039674057936295866
1772614440227909600,1.06490966796875,0.12071955231130123,0.02972469165623188,0.06899447964057326
1772614440237976600,1.0749765625,0.18033260175287721,0.06636544631123542,0.15504077797755597
1772614440248043500,1.08504345703125,0.24035481651723384,0.13149404430389403,0.2481261811710894
1772614440258110500,1.0951103515625,0.23380524874329567,0.15076982266008854,0.28946693021059033
1772614440268177400,1.105177490234375,0.1372726277053356,0.10286883832216262,0.21709924780987203
1772614440278244600,1.11524462890625,-0.010159867225587368,0.09643617492616176,0.09280629399120807
1772614440288311800,1.125311767578125,-0.08247574637383222,0.13587152873575686,0.038815541410818694
1772614440298378800,1.135378662109375,-0.11217442680597305,0.10762450841665268,0.03634615562260151
1772614440308445700,1.14544580078125,-0.1800441402003169,0.029881343522667882,-0.11871332705542445
1772614440318512600,1.1555126953125,-0.21062194155454633,0.018878887993097303,-0.2815080801606178
1772614440328578800,1.165578857421875,-0.12897417043745518,0.006357260072231292,-0.22700440962202845
1772614440338645800,1.175645751953125,0.03861176246702671,-0.05011982943117618,-0.058685778528824444
1772614440348712700,1.185712646484375,0.17980945466160772,-0.07628186016976833,0.08269808388762176
1772614440358779600,1.195779541015625,0.2542828041046858,-0.04233165977299213,0.13381240424886345
1772614440368846600,1.2058466796875,0.23259265808314084,0.0074549921810626975,0.13395809632986783
1772614440378913500,1.21591357421875,0.03709375911951065,-0.0059749827563762665,0.019947101746499538
1772614440388980700,1.225980712890625,-0.18274843072295188,-0.013362170398235321,-0.12560272124297917
1772614440399047700,1.236047607421875,-0.261934487901628,0.02580371882021427,-0.1510890446770936
1772614440409114600,1.246114501953125,-0.23347294804900884,0.08353285421133042,-0.01918123194053769
1772614440419181600,1.256181640625,-0.1528732246801257,0.11364157674908637,0.09806026899665593
1772614440429248500,1.26624853515625,-0.11094897666424512,0.08874737398922443,0.106264325979352
1772614440439314700,1.276314697265625,-0.0807312407940626,0.1141150394797325,0.10153422871753573
1772614440449381600,1.286381591796875,-0.03703998310565948,0.11277180817723273,0.11558094731383024
1772614440459448600,1.296448486328125,0.0024006314009428023,0.05912906531691551,0.11245784685723482
1772614440469515500,1.306515625,0.01126432133615017,-0.008618190741539002,0.04470554929748177
1772614440479582500,1.31658251953125,0.026219898405671117,-0.0033715222597122192,-0.03922346462458372
1772614440489649400,1.3266494140625,0.002103109759092331,-0.03345277226865291,-0.1029389078836888
1772614440499716600,1.336716552734375,-0.12814707196354866,-0.09016717765927314,-0.22179376230165362
1772614440509783600,1.346783447265625,-0.18490940814912318,-0.0958113210260868,-0.28070034397430715
1772614440519850800,1.356850830078125,-0.20987199997007847,-0.07120470303595065,-0.2035904354825616
1772614440529917700,1.366917724609375,-0.19627718985974787,-0.024224925196170807,-0.07870083094500005
1772614440539984600,1.376984619140625,-0.08472761695384978,0.034039632245898246,0.07085603572875261
1772614440550050800,1.38705078125,0.02470744801610708,0.07933364895582198,0.19865071405805645
1772614440560117800,1.39711767578125,0.059925184130668635,0.13149813595712184,0.2820665908262133
1772614440570184700,1.407184814453125,0.03234101163446903,0.13414192846417428,0.23687471931651233
1772614440580251600,1.417251708984375,-0.004504910203814506,0.12269056012332438,0.13091639054641127
1772614440590318600,1.427318603515625,-0.08819266271591186,0.10249123718142508,0.017574746591970322
1772614440600385800,1.4373857421875,-0.13560790936350822,0.09984101493358612,-0.07517338747121394
1772614440610452700,1.44745263671875,-0.09064414752125739,0.08533844232857227,-0.03512932717874646
1772614440620519700,1.457519775390625,0.026502807000279426,0.09893909765779972,0.06210384334400296
1772614440630586600,1.467586669921875,0.10631108773052692,0.08253273725807667,0.09460092232301831
1772614440640653600,1.477653564453125,0.02363864974081516,0.04222761487662792,0.007736147210001945
1772614440650720500,1.487720458984375,-0.0671639032125473,0.034790742874145505,-0.07241926645748317
1772614440660787500,1.497787353515625,-0.13309388071596623,0.05780103158354759,-0.04022138962075114
1772614440670853600,1.507853515625,-0.14631693490445613,0.08189677744209765,0.06258234757594763
1772614440680920600,1.517920654296875,-0.07853694562017917,0.10899813485741615,0.14474559393450617
1772614440690987500,1.527987548828125,-0.027220307619869707,0.10648001455664634,0.15406046170331536
1772614440701054500,1.538054443359375,-0.05222878440916538,0.08340484391748905,0.07998626764565706
1772614440711121700,1.54812158203125,-0.08092121040821075,0.07718845362067223,0.0033580782562494275
1772614440721188600,1.558188720703125,-0.08237666991353035,0.06876198605895043,0.014442951372265814
1772614440731255600,1.568255615234375,-0.05054769945442676,0.04511164588034153,0.03853964707888662
1772614440741322500,1.578322509765625,-0.07064239297807216,0.017538579300045966,0.024499139027670026
1772614440751389400,1.588389404296875,-0.0924608415544033,0.04457447026371956,0.006013122809678316
1772614440761456600,1.59845654296875,-0.06822364139854907,0.07405541629195213,0.037584611376374956
1772614440771523800,1.60852392578125,-0.0384989497423172,0.08434124798476696,0.05463657620325684
1772614440781589500,1.618589599609375,-0.041000118908286094,0.06811433580517769,-0.0208669930703938
1772614440791656700,1.62865673828125,-0.060201078462600706,0.052636196166276926,-0.11571714091412723
1772614440801723600,1.6387236328125,-0.07341068864762783,0.03025485301017761,-0.14632694484181702
1772614440811790600,1.64879052734375,-0.06837327900230884,0.009472761744260788,-0.13188698914423583
1772614440821857800,1.65885791015625,-0.0888315451413393,0.03955518079698086,-0.13222513505741953
1772614440831924700,1.6689248046875,-0.10860650519132614,0.06817103442847729,-0.12655709935836493
1772614440841991700,1.67899169921875,-0.13638883060812948,0.021710896548628806,-0.08924721327014266
1772614440852058600,1.68905859375,-0.13057868302464484,0.029316110855340957,-0.05136785673089325
1772614440862125600,1.69912548828125,-0.10795359424054622,0.07420563841760158,-0.01895231855548918
1772614440872192500,1.709192626953125,-0.11074994696080684,0.05125438641905784,0.005999459610506892
1772614440882259700,1.719259765625,-0.10106325020492077,0.0757996296107769,-0.028075097818300126
1772614440892326700,1.72932666015625,-0.05462123250365257,0.1345627842247486,-0.0032664544500410554
1772614440902392600,1.739392578125,0.04131868333816528,0.13721417551636694,0.04698847260288894
1772614440912459500,1.74945947265625,0.16017010369002818,0.13860416857004165,0.05880787053853273
1772614440922526700,1.759526611328125,0.23213351613879202,0.11265256571173667,0.0716734895914793
1772614440932593700,1.76959375,0.24815058495998382,0.053576107364892954,0.010470540609955788
1772614440942660600,1.77966064453125,0.2087462108105421,0.049590837121009826,-0.07562851082757115
1772614440952727600,1.7897275390625,0.127042325592041,0.04659340887069702,-0.13946421946547924
1772614440962794500,1.79979443359375,0.04716857841014862,0.03399871571362018,-0.19039046990871428
1772614440972861400,1.809861328125,0.042317046725749964,0.08655950855612754,-0.15062822223231195
1772614440982928600,1.8199287109375,0.0592991611868143,0.09788228208124637,-0.038164018699526785
1772614440992995800,1.829995849609375,0.0972580127030611,0.06989654304683209,0.09042560939975082
1772614441003062800,1.840062744140625,0.08360884205698967,0.07034720942378044,0.12473463317155838
1772614441013128400,1.85012841796875,0.07180617606043815,0.07329261522591114,0.1324902887996286
1772614441023195400,1.8601953125,0.04582067093253135,0.019945055919885633,0.12272446239292621
1772614441033262600,1.8702626953125,0.019731705430150032,-0.014632336464524269,0.07412183259166777
1772614441043329500,1.88032958984375,0.0019514263287186621,-0.02504384036362171,0.03942154447995126
1772614441053396500,1.890396484375,-0.040539515659213064,-0.05745090297162533,0.005725611105188727
1772614441063463400,1.90046337890625,-0.054586161190271376,-0.06378069051504134,-0.05274016799740493
1772614441073530400,1.9105302734375,-0.07771978401839733,-0.062221770635247226,-0.020496260061860082
1772614441083597300,1.920597412109375,-0.11357231090515851,-0.060792614614963526,-0.002665492882207036
1772614441093664500,1.93066455078125,-0.17298983777463436,-0.040562896534800524,-0.03815210906602442
1772614441103731500,1.9407314453125,-0.19811375763714312,-0.04825578912496566,0.01958601334914565
1772614441113798400,1.95079833984375,-0.17316402529776095,0.00722702864408493,0.08911204258315264
1772614441123864300,1.9608642578125,-0.15469138001799582,0.07487023980617523,0.18045469376258552
1772614441133931500,1.970931640625,-0.10911679280102252,0.1082809264987707,0.24337628323026
1772614441143998500,1.98099853515625,-0.09481588024795055,0.14201485379636286,0.25810060882717367
1772614441154065400,1.9910654296875,-0.12028817515671253,0.1465934137582779,0.2422002251882106
1772614441164132400,2.00113232421875,-0.11141162573993206,0.13609890775084496,0.17894246256873012
1772614441174199300,2.01119921875,-0.12559329582750797,0.12960136242508888,0.08710859380625188
1772614441184266200,2.021266357421875,-0.15444295821487902,0.0824397982776165,-0.019320713476464153
1772614441194333400,2.03133349609375,-0.17082506095618008,0.07763561286628246,-0.09716609663590789
1772614441204400400,2.041400390625,-0.15426087964624166,0.08615092775523663,-0.12438764636479317
1772614441214467600,2.051467529296875,-0.14046411722302435,0.1161760636627674,-0.08917794742621481
1772614441224534500,2.061534423828125,-0.08425999944210052,0.13510814314782618,0.00042136721722781654
1772614441234600200,2.07160009765625,0.015263327844440936,0.15724924780726432,0.09849909880533814
1772614441244667600,2.081667724609375,0.11134411346167325,0.22648411207497118,0.20342603870108722
1772614441254734600,2.091734619140625,0.21320289795845745,0.24084289229512212,0.29384141896776855
1772614441264801500,2.101801513671875,0.23278642708957195,0.2221563120037317,0.2898115789297968
1772614441274868500,2.111868408203125,0.19712737694829702,0.1828612434476614,0.19184461423978208
1772614441284935400,2.121935302734375,0.12809008107930422,0.132109545853734,0.07038622625991701
1772614441295002400,2.13200244140625,0.05360416441559791,0.0794768568187952,-0.042096901169046755
1772614441305069600,2.142069580078125,0.04876373864710331,0.0386643694370985,-0.10038191687725484
1772614441315136500,2.152136474609375,0.09656155487149953,-0.011993804654479027,-0.1280440499804914
1772614441325203500,2.162203369140625,0.1684326128616929,-0.07956804223358631,-0.15819105870202183
1772614441335270400,2.1722705078125,0.1691805086195469,-0.1356745448589325,-0.14755926311574877
1772614441345336300,2.18233642578125,0.14449234982579945,-0.12176993814706802,-0.12750504773296414
1772614441355403500,2.192403564453125,0.11296294683516026,-0.062417585468292236,-0.045338951830193396
1772614441365470500,2.202470458984375,0.047915012863278386,-0.03161211283802986,0.08367145896442234
1772614441375537400,2.212537353515625,-0.029013328516483305,-0.025348960790038108,0.1371685828089714
1772614441385604400,2.222604248046875,-0.1064338373273611,-0.03830956465005875,0.06337685895450412
1772614441395671300,2.23267138671875,-0.20233108307123182,-0.045377018818259236,-0.056583472487330436
1772614441405738200,2.24273828125,-0.28365853619277476,-0.02172726316154003,-0.12181604231111705
1772614441415805400,2.252805419921875,-0.2756786433547735,-0.017564298263192175,-0.12140271226987243
1772614441425872400,2.262872314453125,-0.19719488922655581,0.001717325311899185,-0.062185968669503926
1772614441435939300,2.272939208984375,-0.08674071034193039,-0.010519055926799773,0.05626446966603398
1772614441446006300,2.28300634765625,0.07508125220835209,-0.05756371569633484,0.07373166423030197
1772614441456073500,2.293073486328125,0.179475108140707,-0.059146600973606106,0.04567096026353538
1772614441466139400,2.303139404296875,0.24647008452713487,-0.1568576181411743,-0.10693937569670378
1772614441476206300,2.313206298828125,0.1826514000892639,-0.17642390387654303,-0.13199256841056048
1772614441486273500,2.3232734375,-0.045595045483112336,-0.0528682513564825,-0.0894675780225545
1772614441496340500,2.333340576171875,-0.03736673084199428,0.09928455009460449,-0.1669487309794873
1772614441506407400,2.343407470703125,-0.025536300055682658,0.12288988208770751,-0.011883695343509316
1772614441516474400,2.353474365234375,-0.04714227492511272,0.12980360699892043,0.15450725562274456
1772614441526541600,2.36354150390625,-0.03217325385212898,0.1363274558097124,0.1079824550088495
1772614441536608500,2.3736083984375,0.05266746808737516,0.0005640636235475539,-0.15924626684337853
1772614441546675500,2.383675537109375,-0.17247312042415142,-0.010514379751682281,-0.16244279786236585
1772614441556742400,2.393742431640625,-0.3914911344021558,0.10915887837707995,-0.17153423213884234
1772614441566809300,2.403809326171875,-0.40143034461438654,0.1527881767451763,-0.12904760099984705
1772614441576875500,2.41387548828125,-0.35336335605978964,0.1374123284369707,0.042907340769097205
1772614441586942500,2.4239423828125,-0.2919002948373556,0.19700199700295923,0.19859065443389118
1772614441597009400,2.434009521484375,-0.19729016629457471,0.2642944950312376,0.23827691426463424
1772614441607076400,2.444076416015625,-0.10831892042160034,0.24019933369457722,0.2383487373918295
1772614441617143300,2.454143310546875,-0.09288286635875702,0.16403087077140807,0.17892236962877212
1772614441627210500,2.46421044921875,-0.10704875435531139,0.13470073139071465,0.11165668654218315
1772614441637277400,2.47427734375,-0.06694879915714264,0.12804770324230194,0.05177088457383215
1772614441647344400,2.484344482421875,-0.011581424461305142,0.09180909964740276,0.022434169321879742
1772614441657411300,2.494411376953125,-0.03334960415512323,0.08752630776166916,0.06398673448115587
1772614441667478300,2.504478271484375,-0.025231471890211105,0.09662088384330272,0.06546966651529074
1772614441677545200,2.514545166015625,0.0010983166307210921,0.051290042254328726,0.04612177277095616
1772614441687612400,2.5246123046875,0.05211304907500743,-0.00027998598515987394,0.024979542955756186
1772614441697678300,2.53467822265625,0.10247545509040355,-0.005960954231023788,0.0468937069915235
1772614441707745300,2.544745361328125,0.11020049638450145,0.012920271849632263,0.10409092746302485
1772614441717812200,2.554812255859375,0.11160919413864612,0.03872632875740528,0.05954561022855341
1772614441727879400,2.56487939453125,0.09681494511067866,0.03801730370521545,-0.03240859697796404
1772614441737946600,2.574946533203125,0.0051198272317647935,0.0011474164694547653,-0.09835486802905798
1772614441748013600,2.585013671875,-0.05548018742054701,-0.05251286204755306,-0.14980338878072796
1772614441758080500,2.59508056640625,-0.05975567278265953,-0.0914110402405262,-0.18771138689257202
1772614441768147500,2.6051474609375,-0.12306231604516506,-0.10859364570975304,-0.1531695042129606
1772614441778214400,2.61521435546875,-0.1305284141421318,-0.11324176377654074,-0.14164689726680516
1772614441788281300,2.62528125,-0.059061260777711865,-0.11004793617129326,-0.12716617116741835
1772614441798348500,2.6353486328125,0.0020317980885505675,-0.12260814253687857,-0.053363925918936725
1772614441808414500,2.64541455078125,0.0514653988212347,-0.12686229285001754,-0.011215002301707864
1772614441818481400,2.6554814453125,0.07914221803694962,-0.0964303297072649,-0.0457899104680866
1772614441828548400,2.66554833984375,-0.017984277240931986,-0.0391261417299509,-0.11530395700335502
1772614441838615300,2.675615234375,-0.06020750820338726,-0.009293313524127007,-0.1802717384111136
1772614441848682500,2.6856826171875,-0.05062397956103086,0.013740940582752227,-0.14991327889598904
1772614441858749400,2.69574951171875,-0.013921557846665381,0.04122165270447731,-0.02075790667273104
1772614441868816400,2.70581640625,0.06633592795580626,0.08045125480890274,0.08394180033840239
1772614441878883300,2.71588330078125,0.17695932592749594,0.13134499122202395,0.21059541887380182
1772614441888950300,2.7259501953125,0.2751560807853937,0.1409025086402893,0.326999446073547
1772614441899017200,2.736017333984375,0.3186757812991738,0.13294891928732394,0.35318865708000957
1772614441909084400,2.74608447265625,0.22981004162728785,0.1351987440407276,0.28668153727576134
1772614441919150300,2.756150390625,0.03809855224788189,0.16641104390621184,0.08761515508890151
1772614441929217300,2.76621728515625,-0.1155401038467884,0.173331783080101,-0.12240450972355901
1772614441939284200,2.7762841796875,-0.14726853654086589,0.17913725448846815,-0.14018902660869062
1772614441949351400,2.786351318359375,-0.07160919218361378,0.19726678541898726,-0.025239582131430505
1772614441959418400,2.79641845703125,0.07984247526079416,0.22097733135223388,0.1401530054472387
1772614441969485600,2.806485595703125,0.23814999994933603,0.21087971570789812,0.2485853961806744
1772614441979552500,2.816552490234375,0.3396446273088455,0.12287468451857567,0.21759294961094855
1772614441989619500,2.826619384765625,0.2106479527786374,0.013760229805111884,0.014783581503480673
1772614441999686400,2.836686279296875,-0.06348141530752181,-0.042566637572646136,-0.3104011432982981
1772614442009753300,2.84675341796875,-0.24784312644600867,-0.034332477712631225,-0.4874287852216512
1772614442019820500,2.856820556640625,-0.3469493973642587,-0.08129822702705859,-0.4533377881146967
1772614442029887500,2.866887451171875,-0.3242512433439493,-0.07567688001394271,-0.3023394173957407
1772614442039953200,2.876953125,-0.2099649389505386,-0.038652094477415085,-0.09649082772284745
1772614442050020000,2.88702001953125,-0.08335428277403116,-0.01783259381055832,0.08853555786944925
1772614442060087300,2.89708740234375,0.03907791867405176,0.03637771980464458,0.21371881159134207
1772614442070154200,2.907154296875,0.10455635301768779,0.08708148660361767,0.26856749617531894
1772614442080221200,2.91722119140625,0.12867752557843923,0.099994159668684,0.247875129019469
1772614442090288000,2.9272880859375,0.203759362308681,0.0810322695672512,0.20389124506004153
1772614442100355000,2.93735498046875,0.26358810032755137,0.054334232255816454,0.20784400127381086
1772614442110422000,2.947422119140625,0.23274404925256967,0.016046879437565803,0.13654314438700677
1772614442120489500,2.957489501953125,0.1376391229301691,-0.014270517414808273,0.03283113323897123
1772614442130556400,2.967556396484375,0.004245967006683349,-0.008473813834786414,-0.03629595980532467
1772614442140623400,2.977623291015625,-0.14650748904049396,-0.004195113602280616,-0.12549933393374085
1772614442150689300,2.987689208984375,-0.2366071544215083,-0.023850831186771393,-0.14937997573688624
1772614442160756200,2.997756103515625,-0.260069570812583,-0.043699440994858736,-0.09095357879661023
1772614442170823400,3.007823486328125,-0.18953063820898533,-0.0369692559570074,-0.05804243912398815
1772614442180890400,3.017890380859375,-0.0700046795964241,0.008766074779629707,0.05341317188814282
1772614442190957300,3.027957275390625,0.07711597290635108,0.017031214299798012,0.1747553861424327
1772614442201024300,3.038024169921875,0.13673223721832037,-0.045126843449473375,0.1239781157158315
1772614442211091200,3.04809130859375,0.09607990883439779,-0.017951251754164694,0.06266768777184188
1772614442221158100,3.058158203125,0.03861731542497873,0.025280571728944778,0.07228088090009988
1772614442231225300,3.068225341796875,-0.014848609563708304,-0.003833294552564621,0.09418284304141998
1772614442241292300,3.078292236328125,-0.07487783859074115,0.012661328652501105,0.09723536247983575
1772614442251359200,3.088359130859375,-0.13686170881688595,0.02004851629436016,0.016492723508924244
1772614442261425200,3.098425048828125,-0.20123510452806948,0.013426467806100845,-0.12492094952389597
1772614442271492400,3.108492431640625,-0.24990824228227138,0.05004676419496536,-0.21202662072069942
1772614442281559300,3.118559326171875,-0.24184300924837587,0.07632628383338451,-0.1668367950376123
1772614442291626200,3.128626220703125,-0.11557634420394897,0.10196867461204528,-0.018373057362809777
1772614442301693200,3.138693115234375,0.00023556232154369353,0.10837445000112056,0.13247523736096917
1772614442311760100,3.148760009765625,0.08589373812377453,0.10194237112700938,0.18737514067552982
1772614442321827000,3.1588271484375,0.10779401976466178,0.08804711676537991,0.1393674810927361
1772614442331894300,3.168894287109375,0.0597872369647026,0.08002689191699028,0.03974485815018415
1772614442341961200,3.178961181640625,-0.008220131334662437,0.06926058323085307,-0.08236636771522463
1772614442352028200,3.189028076171875,-0.06091887134313583,0.06861410202085971,-0.1321136375069618
1772614442362095400,3.199095458984375,-0.038193244794011115,0.05119593423008918,-0.10046915676929057
1772614442372162300,3.209162353515625,0.027189035698771475,0.004857961425185203,-0.03387435868158936
1772614442382228200,3.219228271484375,0.12517886980772017,0.04528934053480625,-0.002427446342632174
1772614442392295400,3.22929541015625,0.17832886071503162,0.01293254680931568,0.04566971815451979
1772614442402362400,3.2393623046875,0.23108722195625303,-0.030154899767041204,0.0715614805843681
1772614442412429300,3.24942919921875,0.28736148236393927,0.0037631519258022306,0.05254581446908414
1772614442422496300,3.259496337890625,0.34701311025023457,0.008249941951036453,0.10029029307104646
1772614442432563200,3.269563232421875,0.22573533953428268,0.001679331389069557,0.048124198634549975
1772614442442630400,3.27963037109375,0.0793593679189682,0.09540040213763713,-0.10460114200748502
1772614442452697300,3.289697265625,-0.06324234585464,0.0524023874104023,-0.15718509652987123
1772614442462764300,3.299764404296875,-0.19251812958717346,0.017139935371279714,-0.10310454677417874
1772614442472831200,3.309831298828125,-0.18439912053942678,0.0936328079432249,-0.0051817865520715715
1772614442482897400,3.3198974609375,-0.10482757117450237,0.14295710308253765,0.16266791185513138
1772614442492964400,3.32996435546875,-0.06613280659914016,0.16746435235142706,0.366725891784206
1772614442503031300,3.34003125,-0.05481295568346977,0.20168869351446628,0.44646636797524986
1772614442513098200,3.35009814453125,-0.051691608792543406,0.22517419852018355,0.3372809669174254
1772614442523165200,3.360165283203125,-0.09992693965137005,0.18870120164752005,0.14993972851149737
1772614442533232000,3.370232177734375,-0.1328203244715929,0.12057868253588676,-0.03957257032319903
1772614442543299000,3.380299072265625,-0.12463000375330448,0.06522270601689815,-0.07445946704819797
1772614442553366300,3.3903662109375,-0.07201251228749751,0.05648235020041466,-0.021365663307532666
1772614442563433200,3.40043310546875,0.005168342548608779,0.011458382603526114,0.007429784674569964
1772614442573500200,3.410500244140625,0.03134323276877403,-0.0614256518214941,-0.07938698657825588
1772614442583567000,3.420567138671875,0.06258651229441166,-0.06948445511460304,-0.09445245376303792
1772614442593634000,3.430634033203125,0.03446165705025196,-0.08739011416137218,-0.09821918588541448
1772614442603700200,3.4407001953125,-0.0002262099713087082,-0.07107493917644024,-0.08332396070100366
1772614442613767200,3.45076708984375,-0.032682372418045995,-0.043400750309228894,-0.0735482704874128
1772614442623834000,3.460834228515625,-0.06674070936441422,-0.006396423038840294,-0.018504501722753048
1772614442633901300,3.4709013671875,-0.06250584827363491,0.030820670199394225,0.05819222285822034
1772614442643968300,3.48096826171875,-0.041644846552610394,0.04465279619693756,0.06336429173387587
1772614442654035500,3.491035400390625,-0.04438976134657859,0.0424070630967617,0.06405366223752498
1772614442664102400,3.501102294921875,-0.07013795058727264,0.014392097967863083,0.053973728380352255
1772614442674169300,3.51116943359375,-0.0951578255534172,0.01927636287808418,0.0010010668013244867
1772614442684236300,3.521236328125,-0.11974983049631117,0.018251111483573914,-0.10431582226008176
1772614442694303200,3.53130322265625,-0.09811492179334164,0.001115267765522003,-0.16463438962250948
1772614442704370200,3.5413701171875,-0.0605541296839714,-0.00909223799407482,-0.11844685813896358
1772614442714437000,3.55143701171875,0.01172784719467163,0.016969254979491234,-0.014012085674330592
1772614442724503300,3.56150341796875,0.08076455854177475,0.038081601113080975,0.06523205836713314
1772614442734570200,3.5715703125,0.15173545282185077,0.05581190359294414,0.12775807264596223
1772614442744637200,3.58163720703125,0.16525661317408083,0.040081835019588466,0.16659312247484923
1772614442754704100,3.5917041015625,0.1376180801421404,0.03801788822710514,0.18276516266204415
1772614442764771300,3.601771240234375,0.06471943266987801,0.049748073509335515,0.09654548051953316
1772614442774838300,3.61183837890625,0.006995557975769042,0.039293314990401264,-0.011075520765781402
1772614442784905200,3.6219052734375,-0.03239537217020988,0.04587386242449283,-0.032365634619072076
1772614442794972200,3.63197216796875,-0.07626841616630554,0.05002922853827476,-0.014762246454507112
1772614442805039000,3.6420390625,-0.0781219350785017,0.05019347918927669,-0.014760419823601842
1772614442815106000,3.65210595703125,-0.040164252606034276,0.07860708824694156,0.05472374303005635
1772614442825173200,3.66217333984375,-0.03448094627261162,0.06603636048734188,0.13351517486795783
1772614442835239200,3.6722392578125,-0.028527006304264066,0.023098551514744756,0.12007343642748891
1772614442845306000,3.68230615234375,-0.042855975908041,0.011932429856061934,0.05511471510902047
1772614442855373000,3.692373046875,-0.08736264163255691,0.0035503859579563138,-0.006853373026102781
1772614442865440300,3.702440185546875,-0.12181202372312545,-0.024210896670818327,-0.09470116782709956
1772614442875507500,3.712507568359375,-0.1393038412719965,-0.05513035106956959,-0.16440489171557127
1772614442885574400,3.722574462890625,-0.13190613223612307,-0.07618599857985973,-0.1727457998856902
1772614442895641300,3.732641357421875,-0.07419687058925628,-0.06543781007230282,-0.13754625701494513
1772614442905708300,3.742708251953125,-0.008231237250566481,-0.02606558462679386,-0.06015219781957566
1772614442915775200,3.752775146484375,0.06294540873467921,-0.015158406165242194,-0.011011150292679666
1772614442925842200,3.76284228515625,0.11675181772410868,0.007262099957466125,0.02159859528057277
1772614442935909400,3.772909423828125,0.136110013666749,0.02383037292063236,0.04453165403530002
1772614442945975300,3.782975341796875,0.09915244814753532,0.037814474609494206,0.015544775134325027
1772614442956042200,3.793042236328125,0.05959902091622352,0.08344868305921554,0.01318199152573943
1772614442966109200,3.803109130859375,0.032353871116042134,0.10997253284752369,0.03652531158179045
1772614442976176400,3.81317626953125,0.028926234754920004,0.13319383395910261,0.06992649979367851
1772614442986243300,3.823243408203125,0.05729600467085838,0.16855740828514099,0.1112107694055885
1772614442996310300,3.833310302734375,0.08466682667732238,0.1907774233996868,0.1060536789033562
1772614443006377200,3.843377197265625,0.09692366618216038,0.16314765819609164,0.09414097666107117
1772614443016444200,3.853444091796875,0.1063075805991888,0.10251754066646099,0.1464065128840506
1772614443026511000,3.863510986328125,0.10417290665805339,0.06321487332582473,0.1590610464695841
1772614443036578300,3.873578369140625,0.04883680388331413,0.0659001668870449,0.11031959271952509
1772614443046645200,3.883645263671875,-0.022942484170198438,0.019788988575339315,0.034560002858191725
1772614443056711200,3.893711181640625,-0.06817863321304321,-0.05570376704335212,-0.017925532791018484
1772614443066778000,3.903778076171875,-0.09603811551928519,-0.029187516039609906,-0.11594817319102585
1772614443076845000,3.913844970703125,-0.1466974586546421,-0.030126258194446563,-0.15264328838177024
1772614443086912300,3.923912353515625,-0.1453986510157585,-0.06422960332632065,-0.16512049263902007
1772614443096979200,3.933979248046875,-0.1198883621841669,-0.09991466469168662,-0.1592865257885307
1772614443107046100,3.944046142578125,-0.08458148648142814,-0.10542086089253425,-0.1033433239661157
1772614443117113000,3.954113037109375,-0.01624094070494175,-0.07903378922641277,-0.020093305284157394
1772614443127180000,3.964179931640625,0.030153730723261832,-0.04376315388083458,0.07730586945526301
1772614443137247000,3.9742470703125,0.0627583617299795,0.0037269115686416623,0.1312654962450266
1772614443147314200,3.984314208984375,0.06837386352419852,0.04057809410393238,0.13812668725140392
1772614443157381000,3.994381103515625,0.05260287841856479,0.05820785881876945,0.11501746821217239
1772614443167448000,4.004447998046875,0.02978080575764179,0.06379997973740101,0.0746945179130882
1772614443177514000,4.014513916015625,-0.035549452286958695,0.07751052518188953,0.06935008814521133
1772614443187581200,4.024581298828125,-0.11998363925218582,0.0902262143701315,0.0523733805116266
1772614443197648100,4.034648193359375,-0.13492752588391302,0.07757949876487255,0.009783873520046471
1772614443207715000,4.044715087890625,-0.12451719102859496,0.08267711416482924,0.018810645062476396
1772614443217782000,4.054781982421875,-0.1076104798913002,0.09388064522445201,0.03762129012495279
1772614443227849000,4.064848876953125,-0.07780453969240188,0.10116028083860873,0.05934307339377701
1772614443237916200,4.074916259765625,-0.028505378994345663,0.11436287676095962,0.0525306899651885
1772614443247983000,4.084983154296875,0.007435118436813354,0.08733926075696945,-0.03836619020812213
1772614443258050300,4.09505029296875,0.01341711545586586,0.05921440551280975,-0.06851736364811659
1772614443268117200,4.1051171875,0.027944237980246544,0.060057286077737804,-0.02570003925003111
1772614443278184200,4.11518408203125,0.06985328842699527,0.05932078849673271,0.033359467962011696
1772614443288250000,4.12525,0.10500935748219489,0.09683306528925895,0.13940196788422762
1772614443298317300,4.1353173828125,0.10982114167809486,0.10656535475254059,0.18725092977397143
1772614443308384300,4.14538427734375,0.02347323004603386,0.11731529682576655,0.12311039297059177
1772614443318451200,4.155451171875,-0.07274433369338512,0.13849427845478057,0.018094971073791384
1772614443328518100,4.16551806640625,-0.1417313606798649,0.10182897388041019,-0.05658515298776328
1772614443338585000,4.175585205078125,-0.13966624484360218,0.07654314145445823,-0.08333543194308876
1772614443348652000,4.185652099609375,-0.07946224377155303,0.07349953597486018,-0.041362668610364195
1772614443358719200,4.19571923828125,-0.036548984718322755,0.08059621623754501,0.024556933629512785
1772614443368786200,4.2057861328125,0.010944587862491606,0.07809913872480392,0.06027787002585828
1772614443378853000,4.21585302734375,0.018185645031929015,0.045154900500178334,0.07719481029622256
1772614443388920000,4.225920166015625,0.017449731972813604,0.04329904350042343,0.07285904611423612
1772614443398986000,4.235986083984375,-0.028353987824916837,0.03885959974825382,0.05382913227789104
1772614443409053200,4.24605322265625,-0.08068973973989486,0.03420855907201767,0.031994170958176256
1772614443419120000,4.2561201171875,-0.12136077282428741,0.03285188376605511,-0.028209976244345306
1772614443429187000,4.26618701171875,-0.11729542308151722,0.0646849458783865,-0.021240940949320792
1772614443439254000,4.27625390625,-0.09432721994817256,0.04638590359985828,0.01856945671774447
1772614443449321000,4.286321044921875,-0.0911059198141098,-0.06042845747768879,-0.02594210437759757
1772614443459388000,4.296387939453125,-0.09900222602188587,-0.08649930280148982,-0.08767762586586177
1772614443469455000,4.306455078125,-0.077964698690176,-0.05273381132185459,-0.055137511462718246
1772614443479522300,4.316522216796875,-0.05761573814451694,-0.048691842454671855,-0.04389364839270711
1772614443489589200,4.32658935546875,-0.10498130043148994,-0.07392915956377982,-0.07297368546985089
1772614443499656200,4.33665625,-0.1671709223628044,-0.0572515810072422,-0.15017090691886842
1772614443509723100,4.34672314453125,-0.16268997755646705,0.002205401089787483,-0.1696491490446031
1772614443519789300,4.356789306640625,-0.10309095664024352,0.0256236860781908,-0.058211000623926513
1772614443529856300,4.366856201171875,-0.026179566395282745,0.003822773158550262,0.047022740198671815
1772614443539923200,4.376923095703125,0.07835749740004538,0.06070844346284866,0.07187317688204348
1772614443549990100,4.386990234375,0.14451719200611113,0.10486439605355262,0.09237966607697308
1772614443560057000,4.39705712890625,0.13212415890097617,0.06624620384573936,0.05079699804037809
1772614443570124000,4.4071240234375,0.08293488831818104,0.0517792870759964,-0.023491861681267618
1772614443580191200,4.417191162109375,0.06332476344108581,0.08734042980074883,-0.04728767474517226
1772614443590258200,4.427258056640625,0.03952186304926872,0.06949146937727928,0.01284026541598141
1772614443600325000,4.4373251953125,0.0300941094905138,0.03359130395650863,0.024223902282863852
1772614443610392000,4.44739208984375,0.01634498560130596,0.02966623946726322,-0.02884169827662408
1772614443620459000,4.457458984375,-0.025613164684176442,0.04026420584917068,-0.11592669201157986
1772614443630525200,4.467525146484375,-0.08054127117991447,0.008791793742775916,-0.2056057938929647
1772614443640592100,4.477592041015625,-0.13577157549262045,0.017560791131854055,-0.23613033068999648
1772614443650659000,4.4876591796875,-0.15761808111965656,0.0497661936879158,-0.1424052413534373
1772614443660726000,4.49772607421875,-0.1303068803459406,0.0609071809053421,-0.021692557174339887
1772614443670793000,4.50779296875,-0.07591244233548641,0.03744739486277103,-0.018535992839559912
1772614443680860200,4.517860107421875,-0.016075521010160444,0.07361176417768,-0.01653122888840735
1772614443690927000,4.527927001953125,-0.02023965495228767,0.10024608860313891,-0.0013066256191581486
1772614443700994000,4.537994140625,-0.034308512315154076,0.13467851955890656,-0.043787192343547936
1772614443711061200,4.548061279296875,-0.022038813328742978,0.17469430360496044,-0.06306516265682875
1772614443721128200,4.558128173828125,0.002201309436559677,0.1925157914996147,-0.02180449311621487
1772614443731195100,4.568195068359375,0.028545711004734037,0.1827250498473644,-0.015782164086773992
1772614443741262000,4.578261962890625,0.012497078001499176,0.15645020638406276,-0.019438494637235997
1772614443751328300,4.588328369140625,0.013656184908747673,0.15120996764302252,-0.0032586364697664975
1772614443761395200,4.598395263671875,0.010450082343816756,0.12497078001499175,0.037004619531333445
1772614443771462100,4.608462158203125,0.013770751199126243,0.0944260041475296,0.03812785140760243
1772614443781529000,4.618529052734375,0.01842471448481083,0.07266133158504963,-0.01934891665764153
1772614443791596300,4.62859619140625,-0.02268938619196415,0.04919160867035389,-0.08362586625702678
1772614443801663200,4.638663330078125,-0.057413493570685384,0.048910453641414636,-0.11237879027165472
1772614443811730200,4.648730224609375,-0.0329132585644722,0.036522681233286856,-0.11159282752573489
1772614443821797000,4.658797119140625,-0.018082769179344177,0.02334463523030281,-0.055267275322228665
1772614443831864000,4.668864013671875,-0.022367899152636525,0.0314098682641983,0.007995674929022789
1772614443841931000,4.678930908203125,-0.005541852036118507,0.03559446047246456,0.03677051851451397
1772614443851998200,4.688998291015625,-0.010582476551830767,0.03612929800152778,0.04306823041923344
1772614443862064000,4.699064208984375,-0.01340571727901697,0.0400631303191185,0.034539325396344064
1772614443872131000,4.709131103515625,-0.004389174869656563,0.06633505117297173,0.049127311262488364
1772614443882198000,4.719197998046875,0.0304775558501482,0.07884440413415432,0.08240567681230604
1772614443892265000,4.729264892578125,0.03903086466193199,0.08115151203274726,0.09648132924214005
1772614443902332200,4.739332275390625,0.006349661287665367,0.08124562005698681,0.09352123732753097
1772614443912399000,4.749399169921875,-0.08368366085886955,0.032526889595389366,0.0381162340350449
1772614443922466000,4.759466064453125,-0.17205752536058425,0.001589315018057823,-0.0626016367983073
1772614443932533000,4.769532958984375,-0.21072715549468993,-0.0069517188340425485,-0.11619601047225296
1772614443942600000,4.779599853515625,-0.16879940034747123,-0.029449966368079183,-0.10281586602590978
1772614443952667100,4.789667236328125,-0.08276596149206161,-0.012606383594870567,-0.07226612172238528
1772614443962734300,4.799734375,-0.012248071676492691,0.007923194214701652,-0.01316138712912798
1772614443972800000,4.809800048828125,-0.006550736817717551,-0.05972586216628551,-0.014138050141558051
1772614443982867200,4.8198671875,-0.043212534260749814,-0.047726796814799306,-0.07442943723611534
1772614443992934100,4.82993408203125,-0.08276829957962036,0.024881927800178526,-0.0764295250121504
1772614444003001000,4.8400009765625,-0.06914660146236419,0.05191021997928619,0.02126994784809649
1772614444013068300,4.850068359375,-0.024721184280514716,0.07179740823209285,0.11160254520215093
1772614444023135200,4.86013525390625,0.03783376383185386,0.1153308450102806,0.13912263948619366
1772614444033202700,4.87020263671875,0.08678513400554656,0.14561492411494253,0.14229608189053833
1772614444043269600,4.88026953125,0.1169935175254941,0.12301496977210044,0.09254559722840786
1772614444053336600,4.890336669921875,0.042595571406185626,0.06825228297114372,-0.02162957494072616
1772614444063403500,4.900403564453125,-0.057470192193984984,0.0476227519184351,-0.1414204680997878
1772614444073470700,4.910470703125,-0.0939157165378332,0.03281505888700485,-0.18575031595267355
1772614444083536600,4.92053662109375,-0.10014204370677471,0.014325462472438811,-0.15292685456350444
1772614444093603600,4.930603515625,-0.044370472124218935,0.03348901262581348,-0.10892587333880364
1772614444103670500,4.94067041015625,0.0385293448805809,0.04389467130601406,-0.03643076516613364
1772614444113737500,4.950737548828125,0.1453209096044302,0.034110943916440005,0.01983092802092433
1772614444123804700,4.9608046875,0.23386311641037463,0.022921441382169724,0.05026815186068415
1772614444133871600,4.97087158203125,0.2091559606552124,0.006987959191203117,0.056882893825322384
1772614444143938600,4.9809384765625,0.08828969334959984,0.029338322687149046,-0.014106412894278764
1772614444154005500,4.991005615234375,-0.03715279583036899,0.025218612408638,-0.05872172662504017
1772614444164072400,5.001072509765625,-0.09832271932512521,0.01727788253724575,-0.060761269628629086
1772614444174139600,5.0111396484375,-0.08540829269438982,0.04685176754593849,-0.033525910570099945
1772614444184206800,5.021206787109375,-0.027387773141264914,0.07188508651554584,0.06824906810075045
1772614444194273800,5.031273681640625,0.04041325893104076,0.07315875971317291,0.12643318071775136
1772614444204339500,5.04133935546875,0.09064473204314707,0.05570727417469024,0.09887494638040661
1772614444214406700,5.05140673828125,0.06749883425533772,0.0341027606099844,0.04207680822908878
1772614444224473600,5.0614736328125,-0.015482815814018249,0.009916413858532905,-0.040809491707012056
1772614444234540800,5.071540771484375,-0.12282500015795231,-0.018247604352235793,-0.12080160457156598
1772614444244607700,5.081607666015625,-0.17554039904028176,-0.01372340492606163,-0.11104023514427244
1772614444254674700,5.0916748046875,-0.18665157564133406,-0.032487142106890673,-0.06540836478210986
1772614444264741600,5.10174169921875,-0.15960750137120486,-0.010074234768748283,-0.014195552482455968
1772614444274808600,5.11180859375,-0.10839987670332192,0.03785188401043415,0.051487975979223846
1772614444284875500,5.12187548828125,-0.03532119648903608,0.06775076318979263,0.09759805831238627
1772614444294942700,5.131942626953125,0.05991466273665428,0.08100538156032562,0.14543072665445506
1772614444305009700,5.142009765625,0.1257636839583516,0.12359072383344173,0.214968519391492
1772614444315075600,5.15207568359375,0.1735477639183402,0.1457341665804386,0.24512919131219385
1772614444325142500,5.162142578125,0.1267500646471977,0.13704524869024753,0.1804519903488457
1772614444335209700,5.172209716796875,0.026400515669584273,0.1394914727985859,0.059095820634439584
1772614444345276700,5.182276611328125,-0.09201105196028947,0.09516717790365219,-0.03965791051909327
1772614444355343600,5.192343505859375,-0.1858519496962428,0.004231938481330871,-0.1699320576392114
1772614444365410600,5.20241064453125,-0.2206587669223547,-0.005671031373739242,-0.21272906990163026
1772614444375477500,5.2124775390625,-0.17702420785725115,-0.008463876962661742,-0.19235592476278543
1772614444385544400,5.22254443359375,-0.08203530912995338,-0.011963409516215323,-0.1079615583512932
1772614444395611600,5.232611572265625,0.01940145056247711,-0.019203882163763047,0.007555968337506056
1772614444405678600,5.2426787109375,0.09740005152225494,-0.0021586393386125564,0.08451075933277606
1772614444415745800,5.252745849609375,0.13943594321906566,0.010730652850866317,0.10930566643662751
1772614444425811500,5.2628115234375,0.14742811101675032,0.005416179829835891,0.05533602970950305
1772614444435878400,5.27287841796875,0.1467366216212511,0.007054594686627388,0.041540801656246185
1772614444445945900,5.28294580078125,0.1307139998421073,-0.01032265657186508,0.058840238438174125
1772614444456012800,5.2930126953125,0.07211889527142047,-0.04209843553900718,0.06858845612294971
1772614444466079700,5.303079833984375,0.02251812127828598,-0.05598141494095325,0.05520115128345787
1772614444476146700,5.313146728515625,-0.06053717854917049,-0.07680208465158939,-0.028469869289547204
1772614444486213600,5.323213623046875,-0.20577362474054098,-0.09907412221431731,-0.16414587545320392
1772614444496280600,5.333280517578125,-0.316778715506196,-0.10025427190959453,-0.2364531329035759
1772614444506346800,5.3433466796875,-0.3937611251607537,-0.0893757350206375,-0.24832754896208642
1772614444516413700,5.35341357421875,-0.4028372888028621,-0.06341770242154599,-0.22311653533801434
1772614444526480600,5.363480712890625,-0.30690789435505866,-0.03631342239677906,-0.10094546904414892
1772614444536547600,5.373547607421875,-0.13527706997394562,-0.006064999127388,0.09031754591539502
1772614444546614500,5.383614501953125,0.06614946547299623,0.02397942600250244,0.28992044613175094
1772614444556681700,5.393681640625,0.19194822074472903,0.07968670017719268,0.3851355548303574
1772614444566748700,5.403748779296875,0.2574929983228445,0.18900339946448802,0.40597186050154266
1772614444576814600,5.413814697265625,0.2729749373540282,0.22455109818577765,0.38321569268368183
1772614444586881500,5.423881591796875,0.2281847785130143,0.2399690320700407,0.275144755673781
1772614444596948700,5.43394873046875,0.1589692034676671,0.1892009678632021,0.04049173099473118
1772614444607015700,5.444015625,-0.00015080664753913878,0.1088040735900402,-0.11837518114224076
1772614444617082600,5.45408251953125,-0.09202449596375227,0.11586100636422633,-0.24931327206380663
1772614444627149600,5.464149658203125,-0.13539806600511073,0.07208440847992896,-0.27707243580073115
1772614444637216500,5.474216552734375,-0.13363485572487116,0.014518354696035385,-0.2610395118232816
1772614444647283500,5.484283447265625,-0.10366612617969512,0.007973463097214698,-0.22934753868207333
1772614444657350700,5.4943505859375,-0.03898468743264675,0.07017945164144039,-0.160814319877699
1772614444667417600,5.50441748046875,0.04101736230403185,0.12311492301523684,-0.020263985675945877
1772614444677484500,5.514484619140625,0.14453765027225016,0.16868424953520297,0.14451573070138693
1772614444687550500,5.524550537109375,0.19385814601927995,0.2132382615327835,0.2356573063507676
1772614444697617400,5.534617431640625,0.13325345519185067,0.24075346044600007,0.2225166697487235
1772614444707684600,5.5446845703125,0.05388824205398559,0.22712182545661924,0.1148521946478635
1772614444717751800,5.554751708984375,-0.02068681419789791,0.18356033162772653,0.014326485385745763
1772614444727818800,5.56481884765625,-0.06328443143069744,0.12047756024897098,-0.03282733384668827
1772614444737885700,5.5748857421875,-0.09056172993481158,0.08379530453979969,-0.05443842328265309
1772614444747952600,5.58495263671875,-0.08617430863082408,0.05558978527486324,-0.07588029363155364
1772614444758019600,5.59501953125,-0.103671971398592,0.0043599487751722335,-0.09750051622204482
1772614444768086800,5.605086669921875,-0.09671265377998352,-0.025801380732655525,-0.12568535802513361
1772614444778153700,5.61515380859375,-0.08499123632609844,-0.021093641433119772,-0.1269585928313434
1772614444788220700,5.625220703125,-0.017638240282237528,-0.019794249272346496,-0.07714797547981142
1772614444798287600,5.63528759765625,0.05261486111730337,-0.020571078863739965,0.046446693876385683
1772614444808353500,5.645353515625,0.0943956090092659,-0.03447159392237663,0.12160057292953133
1772614444818420700,5.655420654296875,0.07595978860855102,-0.01809387509524822,0.1613731958694756
1772614444828487700,5.66548779296875,0.04490238704383373,-0.009909984117746353,0.1329237117808312
1772614444838554600,5.6755546875,0.023621114084124564,-0.00405249026119709,0.08087079539522528
1772614444848621600,5.68562158203125,-0.02596153973042965,-0.005368833556771278,0.05016374163813889
1772614444858688500,5.6956884765625,-0.08076046688854693,0.006961655706167221,0.08333711244352161
1772614444868755500,5.70575537109375,-0.1211784019947052,0.013491934257745742,0.1085454957190901
1772614444878822700,5.71582275390625,-0.12404723542928695,0.015635376027226446,0.07268522391729057
1772614444888889600,5.7258896484375,-0.08560498431026935,0.00009176993668079376,0.007076368127018213
1772614444898956500,5.73595654296875,-0.02561024207472801,-0.024919921723008154,-0.016874781629070638
1772614444909023500,5.7460234375,0.03251870628893375,-0.05580021315515041,-0.011884206800162792
1772614444919089700,5.756089599609375,0.0724491501390934,-0.08974398381114006,0.029695173300802707
1772614444929156600,5.766156494140625,0.06796645176708697,-0.07985328891575336,0.054475978814065455
1772614444939223600,5.7762236328125,0.04052373356819153,-0.060979661619663235,0.059384136056527495
1772614444949290500,5.78629052734375,-0.0029658640682697296,-0.035414427730441095,0.020552301098033784
1772614444959357700,5.796357666015625,-0.09875292743593454,0.02569265966117382,-0.05568104375489056
1772614444969424600,5.806424560546875,-0.1733101557701826,0.06611702450811863,-0.10193944851756095
1772614444979491600,5.81649169921875,-0.18989128821492193,0.09100421300530433,-0.07296177583634852
1772614444989558800,5.826558837890625,-0.17876316047906873,0.11218144106864929,-0.06949271148629486
1772614444999625700,5.836625732421875,-0.12907938437759875,0.14026479525864124,-0.04259082216583192
1772614445009692700,5.846692626953125,-0.05764730232656002,0.1677197884172201,0.014442074589431284
1772614445019759600,5.856759521484375,0.009867606280744075,0.15632979487478732,0.09008943624794483
1772614445029826600,5.86682666015625,0.07931026808023452,0.15948153690397737,0.12473645980246365
1772614445039892700,5.876892822265625,0.1310907242000103,0.12008768414855002,0.12412205423116683
1772614445049959700,5.886959716796875,0.2239209835886955,0.13125848198235035,0.06540266569368541
1772614445060026600,5.897026611328125,0.24606968703269957,0.15517711770832537,0.06087839320227503
1772614445070093600,5.907093505859375,0.23637597601413726,0.11942717441320419,0.04300795159935951
1772614445080160500,5.917160400390625,0.16311258688271044,0.11791852341592311,-0.016766133622825145
1772614445090227700,5.927227783203125,0.011317805089056492,0.11419687254428863,-0.028214067897573112
1772614445100294700,5.937294677734375,-0.13051964631378649,0.124371645078063,-0.026617957812547683
1772614445110361600,5.947361572265625,-0.19662264229655266,0.12434358802735805,0.0026763796024024487
1772614445120428500,5.957428466796875,-0.19987609113454818,0.13145312777161597,-0.0013826865300536155
1772614445130495500,5.96749560546875,-0.1701122365117073,0.1423924549371004,-0.021878215939551592
1772614445140562400,5.9775625,-0.08030512433648108,0.08218494673371314,-0.026094737656041977
1772614445150628600,5.987628662109375,0.010154898789525031,0.0489426023453474,0.010988061678037047
1772614445160695600,5.997695556640625,0.0615890256896615,0.022510522493720053,0.06756978059969843
1772614445170762500,6.007762451171875,0.10951777481734752,-0.007792261311411857,0.08726108095422387
1772614445180829400,6.017829345703125,0.08762626100480556,-0.016267244189977645,0.05972703121006488
1772614445190896400,6.027896484375,0.025226503454148768,-0.002240472403168678,-0.019059286061301826
1772614445200963800,6.0379638671875,-0.04352583799362182,0.02015782188773155,-0.05321421524994075
1772614445211030800,6.04803076171875,-0.12013035424649715,0.06409282520413398,-0.05753149392716586
1772614445221097700,6.05809765625,-0.16728256604373454,0.045731823605298996,-0.035333763709664345
1772614445231164700,6.06816455078125,-0.12823767285645007,-0.01871872899532318,-0.05099244754724204
1772614445241231600,6.078231689453125,-0.12757248694598675,-0.0834504366248846,-0.05273023112528026
1772614445251298600,6.088298583984375,-0.1042573700711131,-0.11066285319924354,-0.04549121978245675
1772614445261365800,6.09836572265625,-0.03129121032059193,-0.09085282183587551,0.01309584761224687
1772614445271431700,6.108431640625,0.038292028993368143,-0.06158347273170948,0.10749299099147319
1772614445281498600,6.11849853515625,0.09517477668821811,-0.022893968853354454,0.15374686570949853
1772614445291565600,6.128565673828125,0.09159691820144653,-0.026446692898869514,0.1129443882651627
1772614445301632800,6.1386328125,0.06657470514774322,-0.029493220987915993,0.03750226685516536
1772614445311699700,6.14869970703125,0.05419511604607105,-0.019400866040587425,-0.038033670318126676
1772614445321766700,6.1587666015625,0.06969839012622833,-0.01023380924463272,-0.07493212606124579
1772614445331833600,6.16883349609375,0.08479600601494312,0.009845686709880829,-0.09341960358396172
1772614445341900500,6.178900634765625,0.07584054614305495,0.04325578888058662,-0.06527589750885963
1772614445351967500,6.188967529296875,0.05442249506115913,0.07069090829491614,0.01576448229961097
1772614445362034400,6.199034423828125,0.015102876585721969,0.05688040960729122,0.06635024874210357
1772614445372101600,6.2091015625,-0.05431903468668461,0.055987844681739805,0.04906535194218158
1772614445382168600,6.21916845703125,-0.09697802671790122,0.0604758037507534,0.016796309565380214
1772614445392234500,6.229234375,-0.06787351278662682,0.04527238940000534,0.006070771281048655
1772614445402301400,6.239301513671875,-0.007526888373494148,0.047338089758157724,0.06251578514575958
1772614445412368600,6.24936865234375,0.0837035346031189,0.03836743231713772,0.1269647303111851
1772614445422435600,6.259435546875,0.1781897445052862,0.023887656065821647,0.12454955892823635
1772614445432502500,6.26950244140625,0.17364450229108333,0.02794774511158466,0.04214497809447348
1772614445442569700,6.27956982421875,0.12705226246416568,0.02648527134358883,-0.018674305331707
1772614445452636700,6.28963671875,0.07992810771763324,-0.0021931261301040648,-0.0211431065980345
1772614445462703600,6.29970361328125,0.02323299154937267,-0.01575461849272251,-0.01306201840788126
1772614445472770800,6.309770751953125,-0.03938976110219955,-0.024974866780638694,-0.007414879366382956
1772614445482837800,6.319837646484375,-0.107614571544528,0.03232756763100624,-0.06109978086799383
1772614445492904700,6.32990478515625,-0.11876958728730679,0.03045183688700199,-0.1084361901257187
1772614445502970600,6.339970703125,-0.12147943076789379,0.007251578563451767,-0.12797164233140645
1772614445513037600,6.35003759765625,-0.0918424173951149,0.01357785897552967,-0.1300753366123885
1772614445523104800,6.360104736328125,-0.007617489266395569,0.04917290396988391,-0.09299041838645934
1772614445533171700,6.370171630859375,0.043240006789565084,0.02698503755927086,-0.038251770048215984
1772614445543238700,6.38023876953125,0.08842617921084166,0.04400748403072357,-0.026108035529032347
1772614445553305600,6.3903056640625,0.10168722732216119,0.05445347472131252,0.013521306482702493
1772614445563372500,6.40037255859375,0.08585223706960678,0.015053776746988295,0.046276086549833416
1772614445573439500,6.410439453125,0.053607963807880875,0.04384147981405258,0.04189290302954614
1772614445583506700,6.420506591796875,0.021594868953526018,0.06847206320166588,0.029276217236369848
1772614445593573600,6.43057373046875,-0.002594400407373905,0.044508419290184974,0.03380903836041689
1772614445603640600,6.440640625,-0.02050590467303991,0.04180442102849483,0.05571414230689406
1772614445613707500,6.45070751953125,-0.042464930763840676,0.0781476540416479,0.04278218001946807
1772614445623773700,6.460773681640625,-0.0562754294514656,0.07426642869412899,0.055126624742522834
1772614445633840600,6.470840576171875,-0.04775836099684238,0.05038754045665264,0.08915507800728083
1772614445643907600,6.480907470703125,-0.07078852345049381,0.04822013328969478,0.10990706639587879
1772614445653974500,6.490974609375,-0.09474164596796035,0.009345335972309111,0.09942242419533431
1772614445664041500,6.50104150390625,-0.1018809963285923,-0.034226679250597955,0.056389411219954486
1772614445674108400,6.5111083984375,-0.11167466059029102,-0.05886076976954937,-0.0161461020283401
1772614445684175600,6.521175537109375,-0.12069529465287923,-0.0376449632614851,-0.05289214368872344
1772614445694242800,6.531242919921875,-0.06441372772157192,-0.0047165071278810495,-0.03812982416898012
1772614445704309800,6.541309814453125,-0.030102292796969413,0.03052490212321281,0.015520006019249558
1772614445714376700,6.551376708984375,-0.08707184199243784,0.04300970516502857,-0.03362476783469319
1772614445724443600,6.561443603515625,-0.14633973125815392,0.08916822974979877,-0.09244579011574387
1772614445734509800,6.571509765625,-0.1500777487426996,0.11889292140603065,-0.04594539329074323
1772614445744576800,6.58157666015625,-0.11035422564148903,0.14316110122203826,0.07404723298549652
1772614445754643700,6.591643798828125,-0.06600421178340911,0.16278642366826535,0.16946670514978468
1772614445764710700,6.601710693359375,0.0006394669473171234,0.19753566548824308,0.20770780767351388
1772614445774777600,6.611777587890625,0.08210136010348797,0.17969839550256728,0.2072379251394421
1772614445784844500,6.621844482421875,0.13952654411196708,0.1214484511077404,0.14388327801674602
1772614445794911700,6.631911865234375,0.1846387745141983,0.07120178042650223,0.006410816890373826
1772614445804978700,6.641978759765625,0.1829044980674982,0.07131926932632923,-0.08990290069989859
1772614445815045600,6.652045654296875,0.13714052575826643,0.07850012074112891,-0.1522880452033132
1772614445825112600,6.662112548828125,0.09542904371023178,0.05758885013759136,-0.1587843484200537
1772614445835179500,6.672179443359375,0.03968085300326347,0.01882277389168739,-0.08146649626605212
1772614445845246500,6.68224658203125,-0.0005745850175619125,0.015272972455620764,0.0049910862855613225
1772614445855312600,6.692312744140625,0.0002367313653230667,-0.003085691055655479,0.0817458246640861
1772614445865379600,6.702379638671875,0.0027291327029466627,0.006312251886725425,0.12797164233140645
1772614445875446500,6.712446533203125,-0.013518530003726482,-0.004729951131343842,0.13596673273853957
1772614445885513500,6.722513427734375,-0.09288520444631576,-0.01988718825280666,0.06894106895290315
1772614445895580400,6.732580322265625,-0.15642156481146813,-0.011117606341838835,-0.02246850998289883
1772614445905647600,6.742647705078125,-0.19986089356541634,0.020444822135567663,-0.07111775540485978
1772614445915714800,6.75271484375,-0.22158289602994918,0.002927285623550415,-0.09185220813676714
1772614445925781800,6.76278173828125,-0.21294775415360925,0.0036953473865985868,-0.06975311598815023
1772614445935848700,6.7728486328125,-0.15350889223515987,0.03372457494735718,0.0011812456738203763
1772614445945915600,6.78291552734375,-0.051120530906319614,0.027719197052717207,0.0786133718572557
1772614445955982600,6.792982666015625,0.06498480560779571,0.035086510950326916,0.10878164256252348
1772614445966048800,6.803048828125,0.16035159773677587,0.06117547645270824,0.12341624404937028
1772614445976115700,6.81311572265625,0.22567688734531402,0.0460018727183342,0.11247333668731152
1772614445986182700,6.8231826171875,0.23638883549571035,0.02571136436164379,0.05306180116720497
1772614445996249600,6.83324951171875,0.20600889480113982,-0.008065233033895492,-0.018271715880185363
1772614446006316500,6.843316650390625,0.1492073956489563,0.0022241057902574538,-0.07915580817088484
1772614446016383700,6.8533837890625,0.0546416907697916,0.004486205503344535,-0.08763992420397698
1772614446026450700,6.86345068359375,-0.05985153437256813,0.04975567229390144,-0.056998044637590645
1772614446036517600,6.873517578125,-0.18268822496831416,0.057557285955548286,-0.013193681963533162
1772614446046584000,6.883583984375,-0.29242870262563225,0.06806406692266463,-0.007808335663378238
1772614446056651000,6.893651123046875,-0.3319797917693853,0.07002338429689407,-0.01270078388005495
1772614446066718200,6.90371826171875,-0.2985924859523773,0.03694061438441276,-0.02925079053416848
1772614446076785200,6.91378515625,-0.20429975279569626,0.015447159978747366,-0.04526880920343101
1772614446086851000,6.92385107421875,-0.08001987765431404,0.012264438289403915,-0.03485854741334915
1772614446096918000,6.93391796875,0.04731003270745277,0.033169863674044606,0.0012294687297195195
1772614446106985200,6.943985107421875,0.15928806015849112,0.049918753901124,0.003335939489677548
1772614446117052200,6.95405224609375,0.2189016941219568,0.031793314623832704,0.02210625254176557
1772614446127119000,6.964119140625,0.19717033930718897,0.057020694860816,0.044315746262297034
1772614446137186000,6.97418603515625,0.1263461600214243,0.04760521626174449,0.03890300049856305
1772614446147253200,6.984253173828125,0.017838439029455182,0.023213117805123328,-0.028547026178985833
1772614446157320200,6.9943203125,-0.10668342817425727,0.04601648576557636,-0.10215798663906753
1772614446167387100,7.00438720703125,-0.20105799439549446,0.06430383760631084,-0.15994367452301084
1772614446177454300,7.014454345703125,-0.19455285028517244,0.07697218052148819,-0.12798669377006588
1772614446187521300,7.024521240234375,-0.12594693157076836,0.07933423347771168,-0.02831329048834741
1772614446197588200,7.034588134765625,-0.03779810799658298,0.071107087880373,0.030386516565829514
1772614446207654100,7.044654052734375,0.046529403723776334,0.08108136940598487,0.06685593324191869
1772614446217721300,7.054721435546875,0.09852876329123973,0.09985679702460765,0.10906111709102988
1772614446227788300,7.064788330078125,0.14848083494007586,0.1030003557473421,0.12088504507131874
1772614446237855200,7.074855224609375,0.13047697621583937,0.10216565848886966,0.08155285937525332
1772614446247922200,7.084922119140625,0.06300386092364788,0.1026128177344799,-0.05500679775513708
1772614446257989000,7.094989013671875,-0.004153028026223182,0.08610182791650295,-0.1337014181550592
1772614446268056000,7.10505615234375,-0.008943477173149585,0.06281739844083786,-0.12428447825126349
1772614446278123300,7.115123291015625,0.02935293573439121,0.054495560297369953,-0.09717048055008053
1772614446288190200,7.125190185546875,0.07015577850490808,0.09126315620243548,-0.018624986297264695
1772614446298257200,7.135257080078125,0.1112161031678319,0.10101590393185615,0.07352854287363589
1772614446308324000,7.145323974609375,0.08712474122345447,0.08491466395854949,0.09562200899906456
1772614446318390000,7.15539013671875,0.05751578490138053,0.06723404583930968,0.051621320035308595
1772614446328457200,7.165457275390625,-0.036059155374765395,0.06379179643094539,0.030615503016114234
1772614446338524200,7.175524169921875,-0.11551087775230406,0.055496261772513385,-0.07909728291667997
1772614446348591000,7.185591064453125,-0.17579028214812278,0.005818915411829948,-0.0755309687372297
1772614446358658000,7.195657958984375,-0.15143676213622093,0.0002741407662630081,-0.08813640248402953
1772614446368725000,7.20572509765625,-0.10445873786211013,-0.015276479586958885,-0.021536928221210835
1772614446378792000,7.2157919921875,-0.024892449194192885,-0.03819909001290798,0.02158405529856682
1772614446388859400,7.225859375,0.032197219249606134,-0.015005845952033995,0.023604601340740917
1772614446398926300,7.23592626953125,0.03304302242398262,-0.0034440029740333555,0.06573664688840508
1772614446408993300,7.2459931640625,0.028242928665876386,-0.008494272100925446,0.0737331986002624
1772614446419060200,7.256060302734375,0.007656067711114883,-0.020375848552584647,0.047170185845345255
1772614446429127200,7.266127197265625,-0.04503098185956478,-0.01414250712096691,-0.007967033356428146
1772614446439193300,7.276193359375,-0.07430676070451736,0.037379590323567385,-0.024015227968245744
1772614446449260300,7.28626025390625,-0.0847352157384157,0.06796878985464573,0.01353255852907896
1772614446459327200,7.2963271484375,-0.10205986002683638,0.10455518397390842,-0.006266659179329872
1772614446469394200,7.306394287109375,-0.07884674222171306,0.11859364619851112,-0.07389087338000536
1772614446479461000,7.316461181640625,-0.032626258316636084,0.09575228431522846,-0.07851502604931593
1772614446489528000,7.326528076171875,0.011737199544906615,0.054368719047307966,-0.007007321478798985
1772614446499595300,7.33659521484375,0.09138122962415218,0.023040683847665784,0.09353066274300217
1772614446509662200,7.346662109375,0.08074760740697383,-0.0027051673054695126,0.15038710695281624
1772614446519729200,7.356729248046875,0.047374914637207985,-0.0029448212802410125,0.10494111455157398
1772614446529796000,7.366796142578125,-0.05699322233200073,0.02955284222066402,0.037144977850094435
1772614446539863000,7.376863037109375,-0.16119301699697972,0.06337853945493697,-0.019051395015791058
1772614446549929200,7.38692919921875,-0.1932826842188835,0.10301730688214301,-0.027390476555004713
1772614446559996200,7.39699609375,-0.14752689521610737,0.09981295788288116,0.014837722843512893
1772614446570063000,7.40706298828125,-0.061928340646624565,0.1000637177735567,0.09633366439975798
1772614446580130000,7.417130126953125,0.012125614340603351,0.10630816512107849,0.16614092172794043
1772614446590197000,7.427197021484375,0.07901800713539123,0.10328969408273696,0.18745412419587373
1772614446600264200,7.43726416015625,0.12813099761158228,0.10296703799962997,0.13720928014554082
1772614446610331100,7.4473310546875,0.059741059735417365,0.0623930355489254,0.0491734884917736
1772614446620398300,7.4573984375,-0.04144669363200664,0.0048871875196695325,-0.08286679151803254
1772614446630465300,7.46746533203125,-0.06587210983633994,-0.0027834932386875152,-0.15678089964315295
1772614446640532200,7.4775322265625,-0.06322364115417003,-0.017699322819709776,-0.09787541394904255
1772614446650599200,7.48759912109375,-0.04209522066861391,0.016185411125421524,-0.02374868598654866
1772614446660666000,7.497666015625,-0.01111000755727291,0.03941548006534576,0.02829290528744459
1772614446670732300,7.507732177734375,-0.02161561948060989,0.03758358846306801,0.0447806603603065
1772614446680799200,7.51779931640625,-0.045674248199164866,0.02210369525849819,-0.029827859769761562
1772614446690866200,7.5278662109375,-0.04398059602379799,0.023624036693572995,-0.06898074337616562
1772614446700933000,7.53793310546875,0.011020575708150864,0.021887422159314156,-0.029533552998304364
1772614446711000300,7.548000244140625,0.10420388631820678,0.011581716722249984,0.056092181839048856
1772614446721067300,7.5580673828125,0.18477087646126747,0.0014525368958711623,0.09959434669613837
1772614446731134200,7.56813427734375,0.19408084885925053,0.00846270791888237,0.07953574739918112
1772614446741201200,7.578201171875,0.14996522827893494,0.029574469530582428,0.04514817849844694
1772614446751268000,7.58826806640625,0.08315145367830991,0.013719313272833824,0.01596928415670991
1772614446761335000,7.5983349609375,0.042241935662925244,0.008308978661894798,-0.02625540811046958
1772614446771402200,7.60840234375,-0.010160744008421898,-0.00017594108879566192,-0.03881839095503092
1772614446781469200,7.61846923828125,-0.057743748438358306,-0.03630816169977188,-0.049306905613094566
1772614446791535000,7.62853515625,-0.10369447549134492,-0.045971477580070495,-0.09101225018128752
1772614446801602000,7.63860205078125,-0.1513034911453724,-0.047995676884055136,-0.16009353132247925
1772614446811669000,7.6486689453125,-0.18578414515703914,-0.0545978516280651,-0.18535057604536412
1772614446821736200,7.658736083984375,-0.15942133114933968,-0.029456980630755424,-0.11754545231983064
1772614446831803100,7.66880322265625,-0.08351707212030887,0.017783493971824646,-0.004034077821671963
1772614446841870000,7.6788701171875,0.020137948143482208,0.0731371324032545,0.10131737109646201
1772614446851937000,7.68893701171875,0.08479425244927406,0.08659048821628093,0.14423033788874745
1772614446862004200,7.699004150390625,0.11054770238697528,0.07110650335848331,0.12021993222609162
1772614446872071200,7.7090712890625,0.08296995963156223,0.06975041257441043,0.04059007680267095
1772614446882138400,7.719138427734375,0.018894670084118843,0.05345978750884533,-0.017706337082386017
1772614446892205300,7.729205322265625,-0.08771043215692043,0.0480319172412157,-0.09754837395176291
1772614446902271200,7.739271240234375,-0.13451309986412524,0.051504561787843704,-0.14101283714696763
1772614446912338200,7.749338134765625,-0.11603928554058074,0.038620530295372005,-0.08691212138608098
1772614446922405000,7.759405029296875,-0.08137889104783534,0.05158931746184826,-0.005496113198250532
1772614446932472300,7.769472412109375,-0.02563596103787422,0.07373334473073483,0.040047932749986644
1772614446942539300,7.779539306640625,0.0060702598243951795,0.061093058866262435,0.03469020510911942
1772614446952606200,7.789606201171875,0.002289572241902351,0.09544482580125331,-0.042109322259202595
1772614446962673200,7.799673095703125,-0.015171850168704986,0.1191781680881977,-0.09478950369767844
1772614446972740000,7.809739990234375,-0.025036826100945472,0.09680851536989211,-0.04030826418660581
1772614446982807000,7.81980712890625,-0.012104863813519478,0.1172743802934885,0.0481770248003304
1772614446992874200,7.829874267578125,-0.01785831277370453,0.08338789278268814,0.08322934122011065
1772614447002941200,7.839941162109375,-0.00877425808608532,0.07649813326895237,0.018236571501567957
1772614447013008100,7.850008056640625,-0.0030482816547155378,0.07112637710273266,-0.011456848233565688
1772614447023074000,7.860073974609375,0.006442892529070377,0.019314941322803498,-0.05360284924134612
1772614447033141200,7.870141357421875,-0.03979980320781469,0.0017237550526857375,-0.07092420559413731
1772614447043209000,7.880208984375,-0.08422843526005744,0.02370528523623943,-0.07807159313075245
1772614447053276000,7.89027587890625,-0.08474223000109195,0.03640343876779079,-0.055920551599189634
1772614447063342800,7.9003427734375,-0.061412207818031306,0.05326572624146938,-0.023535773888230322
1772614447073409800,7.910409912109375,-0.04724748886525631,0.06018880350291728,-0.028195582392811773
1772614447083476700,7.920476806640625,-0.020846388673782346,0.07311082891821861,-0.023598536926135418
1772614447093543700,7.930543701171875,0.0019505495458841324,0.07272855160236358,-0.0036935938209295273
1772614447103611000,7.94061083984375,0.030236732831597328,0.07890519441068172,0.03825491185337305
1772614447113677800,7.950677734375,0.0822872380644083,0.08176175288558006,0.07429645850621164
1772614447123744800,7.960744873046875,0.14455635497272012,0.0947527518838644,0.0781334063205868
1772614447133810700,7.970810791015625,0.18843816679716108,0.12081599842309951,0.06793737180307508
1772614447143877600,7.980877685546875,0.15450579431802033,0.10306056150197983,0.07084376076906919
1772614447153944800,7.99094482421875,0.06098258422911167,0.08321136717200278,0.055435106169804925
1772614447164011800,8.00101171875,-0.005785597664117813,0.05427051936984062,0.03795578277632594
1772614447174078700,8.01107861328125,-0.017466683107614515,0.014137830945849418,0.003598316752910614
1772614447184145700,8.021145751953124,0.006148878018558025,-0.0006739537388086318,-0.023171762881428002
1772614447194212600,8.031212646484375,0.09943009604513645,-0.035009938582777976,-0.02671455005481839
1772614447204279600,8.041279541015625,0.1978442930459976,-0.0477314729899168,-0.025493776088207958
1772614447214346800,8.0513466796875,0.2704170695647597,-0.021862872239947317,-0.001156622689217329
