time,seconds_elapsed,z,y,x
1772614439251420000,0.088419921875,-0.026553865522146225,-0.20478010177612305,0.013401425443589687
1772614439261486800,0.09848681640625,-0.043579187244176865,-0.23701339960098267,0.026436535641551018
1772614439271552500,0.108552490234375,-0.0668155774474144,-0.248369038105011,0.04952554404735565
1772614439281619500,0.118619384765625,-0.09306129068136215,-0.25694015622138977,0.07226015627384186
1772614439291686700,0.128686767578125,-0.11935421824455261,-0.2627722918987274,0.07687106728553772
1772614439301753900,0.13875390625,-0.13428016006946564,-0.2713974714279175,0.06976442039012909
1772614439311820800,0.14882080078125,-0.1317509561777115,-0.21954280138015747,0.0548177994787693
1772614439321887700,0.1588876953125,-0.13253924250602722,-0.13174903392791748,0.057557929307222366
1772614439331954700,0.16895458984375,-0.13673968613147736,-0.03986427187919617,0.07065323740243912
1772614439342021600,0.179021728515625,-0.1294333040714264,0.030413087457418442,0.11592884361743927
1772614439352088600,0.189088623046875,-0.12101425975561142,0.05082129314541817,0.19266857206821442
1772614439362155800,0.19915576171875,-0.11744988709688187,0.010155090130865574,0.314100980758667
1772614439372222700,0.20922265625,-0.13922299444675446,-0.0976315587759018,0.4581744372844696
1772614439382289700,0.21928955078125,-0.1571204960346222,-0.18357442319393158,0.6007007360458374
1772614439392355600,0.22935546875,-0.13097743690013885,-0.2167859673500061,0.7145090699195862
1772614439402422800,0.2394228515625,-0.08136914670467377,-0.21390363574028015,0.7656183242797852
1772614439412489700,0.24948974609375,-0.029141627252101898,-0.17367418110370636,0.7769054770469666
1772614439422556700,0.259556640625,0.017335860058665276,-0.10407619178295135,0.7374706864356995
1772614439432623600,0.26962353515625,0.04401284456253052,-0.04997633397579193,0.662079393863678
1772614439442690600,0.279690673828125,0.05386574566364288,-0.03376540541648865,0.5713878273963928
1772614439452757500,0.289757568359375,0.033578380942344666,-0.034401003271341324,0.47741374373435974
1772614439462824700,0.29982470703125,-0.007051070220768452,-0.03583644703030586,0.3865695893764496
1772614439472891600,0.3098916015625,-0.04605679214000702,-0.03192957863211632,0.2956073582172394
1772614439482958600,0.31995849609375,-0.0706164687871933,-0.02395261451601982,0.18830753862857819
1772614439493025800,0.33002587890625,-0.0813668817281723,-0.006048250012099743,0.08793970942497253
1772614439503091500,0.340091552734375,-0.08054450154304504,0.009502213448286057,-0.009041966870427132
1772614439513158700,0.35015869140625,-0.08289716392755508,0.02198854275047779,-0.07101912796497345
1772614439523225600,0.3602255859375,-0.06593762338161469,0.0281114149838686,-0.10617019236087799
1772614439533292800,0.370292724609375,-0.022243473678827286,0.0447801798582077,-0.12067123502492905
1772614439543359700,0.38035986328125,0.04341995716094971,0.04278653860092163,-0.12115886062383652
1772614439553426700,0.3904267578125,0.10660238564014435,-0.004629181697964668,-0.09291284531354904
1772614439563493600,0.40049365234375,0.1379009187221527,-0.07256455719470978,-0.04456581547856331
1772614439573560800,0.410560791015625,0.1318378746509552,-0.1382361352443695,0.010862406343221664
1772614439583627800,0.420627685546875,0.11364395171403885,-0.16525310277938843,0.0633770152926445
1772614439593694700,0.43069482421875,0.10319670289754868,-0.15628479421138763,0.09001339226961136
1772614439603761700,0.44076171875,0.10486490279436111,-0.13331130146980286,0.08050910383462906
1772614439613828600,0.45082861328125,0.11378739774227142,-0.11119666695594788,0.043027449399232864
1772614439623894800,0.460894775390625,0.11627558618783951,-0.08437304198741913,0.0014187508495524526
1772614439633961700,0.470961669921875,0.10230109095573425,-0.05455777794122696,-0.030964374542236328
1772614439644028700,0.481028564453125,0.08180460333824158,-0.04321351647377014,-0.04868238419294357
1772614439654095600,0.491095703125,0.06707412004470825,-0.043665047734975815,-0.07013393193483353
1772614439664162600,0.50116259765625,0.04436774179339409,-0.04833516851067543,-0.08579625189304352
1772614439674229500,0.5112294921875,0.02522054687142372,-0.03879565745592117,-0.09414328634738922
1772614439684296700,0.521296630859375,0.001040907227434218,-0.021661940962076187,-0.08835996687412262
1772614439694363600,0.53136376953125,-0.023129571229219437,0.002328751143068075,-0.06525855511426926
1772614439704430600,0.5414306640625,-0.024619875475764275,0.010725432075560093,-0.03837287798523903
1772614439714497500,0.55149755859375,-0.012856561690568924,0.001677007065154612,-0.023102151229977608
1772614439724564500,0.561564453125,0.017399877309799194,-0.005197677295655012,-0.008579134941101074
1772614439734630700,0.571630615234375,0.03710221126675606,-0.01108658779412508,0.01633494906127453
1772614439744697600,0.581697509765625,0.028524434193968773,-0.01599026471376419,0.06315039098262787
1772614439754764500,0.5917646484375,0.006419796962291002,-0.011501705273985863,0.10669025033712387
1772614439764831700,0.601831787109375,-0.0075713861733675,-0.009339485317468643,0.13595280051231384
1772614439774898700,0.611898681640625,-0.0011091248597949743,-0.015036774799227715,0.14435352385044098
1772614439784965600,0.621965576171875,0.016434980556368828,-0.03295931592583656,0.12617984414100647
1772614439795032800,0.63203271484375,0.03970368579030037,-0.04385170340538025,0.09672053903341293
1772614439805099800,0.642099853515625,0.05756736919283867,-0.043401364237070084,0.06184404343366623
1772614439815166700,0.652166748046875,0.0718085914850235,-0.032765939831733704,0.0325477197766304
1772614439825233700,0.662233642578125,0.08544157445430756,-0.04148885980248451,-0.008701715618371964
1772614439835300600,0.672300537109375,0.09014452248811722,-0.047631748020648956,-0.046002887189388275
1772614439845367600,0.682367431640625,0.08678227663040161,-0.04776224121451378,-0.07902981340885162
1772614439855433700,0.692433837890625,0.06356760114431381,-0.05128918215632439,-0.09481304883956909
1772614439865500700,0.702500732421875,0.025457771494984627,-0.0614510104060173,-0.09956546127796173
1772614439875567600,0.712567626953125,-0.011489960364997387,-0.05603402853012085,-0.10131929814815521
1772614439885634600,0.722634521484375,-0.03794394060969353,-0.04540375620126724,-0.10127855092287064
1772614439895701800,0.73270166015625,-0.05361674353480339,-0.02863237075507641,-0.09502048045396805
1772614439905768700,0.742768798828125,-0.06816878169775009,-0.008536157198250294,-0.09998567402362823
1772614439915835600,0.752835693359375,-0.06934709846973419,0.01322738267481327,-0.09726259857416153
1772614439925902600,0.762902587890625,-0.06598832458257675,0.012425506487488747,-0.0833425223827362
1772614439935969500,0.772969482421875,-0.0627254843711853,-0.013885559514164925,-0.06996554136276245
1772614439946036500,0.783036376953125,-0.055449195206165314,-0.0382300466299057,-0.06045299768447876
1772614439956103700,0.793103759765625,-0.034877143800258636,-0.05413347855210304,-0.0600069984793663
1772614439966170600,0.803170654296875,-0.010564877651631832,-0.05475878715515137,-0.06863804161548615
1772614439976236500,0.813236572265625,-0.0042716627940535545,-0.04240705817937851,-0.06393653154373169
1772614439986303500,0.823303466796875,-0.011367655359208584,-0.02543473243713379,-0.03845061734318733
1772614439996370400,0.833370361328125,-0.03119981847703457,-0.021945785731077194,-0.009098527021706104
1772614440006438000,0.84343798828125,-0.04788931831717491,-0.017181390896439552,0.014237688854336739
1772614440016504800,0.8535048828125,-0.050118543207645416,0.0070090400986373425,0.01686818152666092
1772614440026571800,0.86357177734375,-0.03546743094921112,0.034967970103025436,0.0062102098017930984
1772614440036638700,0.873638671875,-0.016668377444148064,0.057100001722574234,-0.013585252687335014
1772614440046705700,0.88370556640625,-0.00029499654192477465,0.07059876620769501,-0.019252192229032516
1772614440056772600,0.893772705078125,0.017613327130675316,0.051528263837099075,-0.013720630668103695
1772614440066839800,0.90383984375,0.019955310970544815,0.005962642841041088,-0.007072581443935633
1772614440076906800,0.91390673828125,0.014161673374474049,-0.008931922726333141,-0.008742520585656166
1772614440086972700,0.92397265625,0.015062088146805763,0.01775241829454899,-0.004596778191626072
1772614440097039600,0.93403955078125,0.015317084267735481,0.030068807303905487,0.00889596901834011
1772614440107106600,0.9441064453125,0.01910702884197235,0.015084000304341316,0.027517588809132576
1772614440117173800,0.954173828125,0.025654878467321396,0.019966138526797295,0.04960102587938309
1772614440127240700,0.96424072265625,0.03983328118920326,0.026177162304520607,0.06924370676279068
1772614440137307600,0.9743076171875,0.050902776420116425,0.004820572212338448,0.08079790323972702
1772614440147374600,0.98437451171875,0.05528580769896507,-0.028837788850069046,0.07503562420606613
1772614440157441500,0.994441650390625,0.05167119950056076,-0.03293544426560402,0.03785867989063263
1772614440167508500,1.004508544921875,0.024188706651329994,0.0029541109688580036,0.01049656793475151
1772614440177575700,1.01457568359375,-0.01559126190841198,0.04155639559030533,0.008487453684210777
1772614440187642600,1.024642578125,-0.060148343443870544,0.04210580512881279,0.016942989081144333
1772614440197709600,1.03470947265625,-0.08282222598791122,0.01817171834409237,0.01851494610309601
1772614440207775500,1.044775390625,-0.08947240561246872,0.01477458979934454,0.008344867266714573
1772614440217842700,1.0548427734375,-0.08307769894599915,0.01917828619480133,-0.011977422051131725
1772614440227909600,1.06490966796875,-0.06703720986843109,0.013180314563214779,-0.03882820904254913
1772614440237976600,1.0749765625,-0.03975924849510193,0.004881509114056826,-0.06367289274930954
1772614440248043500,1.08504345703125,-0.012036274187266827,-0.019031014293432236,-0.0770062804222107
1772614440258110500,1.0951103515625,0.007865658961236477,-0.058482877910137177,-0.08103105425834656
1772614440268177400,1.105177490234375,0.01344764418900013,-0.08611130714416504,-0.07019518315792084
1772614440278244600,1.11524462890625,0.020890317857265472,-0.08522271364927292,-0.05031280219554901
1772614440288311800,1.125311767578125,0.03250462934374809,-0.08297687023878098,-0.03910861909389496
1772614440298378800,1.135378662109375,0.033002931624650955,-0.0751589685678482,-0.015622972510755062
1772614440308445700,1.14544580078125,-0.00038032454904168844,-0.057957880198955536,0.00471345754340291
1772614440318512600,1.1555126953125,-0.022002290934324265,-0.027692709118127823,0.01247409824281931
1772614440328578800,1.165578857421875,-0.028005322441458702,-0.018507998436689377,0.00041104445699602365
1772614440338645800,1.175645751953125,-0.021333705633878708,-0.02334929071366787,-0.029916126281023026
1772614440348712700,1.185712646484375,-0.014309084974229336,-0.02732219360768795,-0.06878097355365753
1772614440358779600,1.195779541015625,-0.003179134801030159,-0.019215846434235573,-0.10446308553218842
1772614440368846600,1.2058466796875,0.002372757066041231,-0.01465411763638258,-0.1114371046423912
1772614440378913500,1.21591357421875,-0.01438958290964365,-0.024808932095766068,-0.08836677670478821
1772614440388980700,1.225980712890625,-0.034123875200748444,-0.028096072375774384,-0.05716944485902786
1772614440399047700,1.236047607421875,-0.03667125105857849,-0.02017899416387081,-0.02781291864812374
1772614440409114600,1.246114501953125,-0.017069319263100624,-0.004842383321374655,-0.003802658524364233
1772614440419181600,1.256181640625,-0.0045316871255636215,-0.005505114793777466,0.005884639453142881
1772614440429248500,1.26624853515625,0.004232509061694145,-0.013338537886738777,0.020230289548635483
1772614440439314700,1.276314697265625,0.014733550138771534,-0.013285767287015915,0.02338893711566925
1772614440449381600,1.286381591796875,0.026968911290168762,-0.02366277389228344,0.021670132875442505
1772614440459448600,1.296448486328125,0.03408438339829445,-0.04087740555405617,0.009609481319785118
1772614440469515500,1.306515625,0.027380406856536865,-0.04733983427286148,-0.008365790359675884
1772614440479582500,1.31658251953125,0.016773300245404243,-0.03939761593937874,-0.021090691909193993
1772614440489649400,1.3266494140625,-0.010193867608904839,-0.032511480152606964,-0.021773260086774826
1772614440499716600,1.336716552734375,-0.04528148099780083,-0.01870076358318329,-0.028508581221103668
1772614440509783600,1.346783447265625,-0.06811462342739105,0.008620606735348701,-0.030158143490552902
1772614440519850800,1.356850830078125,-0.06847115606069565,0.037639979273080826,-0.033058296889066696
1772614440529917700,1.366917724609375,-0.05787603557109833,0.053642649203538895,-0.042748741805553436
1772614440539984600,1.376984619140625,-0.046396151185035706,0.05385631322860718,-0.051382143050432205
1772614440550050800,1.38705078125,-0.01975335367023945,0.029721416532993317,-0.05888879671692848
1772614440560117800,1.39711767578125,-0.0008238671580329537,0.0027296259067952633,-0.05827058106660843
1772614440570184700,1.407184814453125,0.008257245644927025,-0.020052384585142136,-0.053725361824035645
1772614440580251600,1.417251708984375,0.00699251051992178,-0.022730862721800804,-0.04485698044300079
1772614440590318600,1.427318603515625,0.00209096260368824,-0.007556438911706209,-0.037343405187129974
1772614440600385800,1.4373857421875,-0.005131263751536608,0.008081376552581787,-0.0388246551156044
1772614440610452700,1.44745263671875,-0.001771124661900103,0.012544231489300728,-0.04625272378325462
1772614440620519700,1.457519775390625,0.006907086353749037,0.014585060067474842,-0.06645742058753967
1772614440630586600,1.467586669921875,0.005801607854664326,0.020511126145720482,-0.07366233319044113
1772614440640653600,1.477653564453125,-0.007325113285332918,0.010158354416489601,-0.06615115702152252
1772614440650720500,1.487720458984375,-0.014935895800590515,-0.0007941618096083403,-0.04224502667784691
1772614440660787500,1.497787353515625,-0.009438862092792988,-0.007048199884593487,-0.023575954139232635
1772614440670853600,1.507853515625,0.0018018088303506374,-0.017315484583377838,-0.0156655665487051
1772614440680920600,1.517920654296875,0.02147754281759262,-0.0076646809466183186,-0.020693335682153702
1772614440690987500,1.527987548828125,0.033364295959472656,0.016317084431648254,-0.026308611035346985
1772614440701054500,1.538054443359375,0.03735397011041641,0.03396293893456459,-0.024713046848773956
1772614440711121700,1.54812158203125,0.032315269112586975,0.03720294311642647,-0.0203971266746521
1772614440721188600,1.558188720703125,0.03549019619822502,0.035708483308553696,-0.017999639734625816
1772614440731255600,1.568255615234375,0.034734658896923065,0.02002859115600586,-0.009123590774834156
1772614440741322500,1.578322509765625,0.03043125569820404,0.00003610481508076191,0.004663911648094654
1772614440751389400,1.588389404296875,0.034911226481199265,-0.016155380755662918,0.021232768893241882
1772614440761456600,1.59845654296875,0.04206084832549095,-0.026846090331673622,0.025119053199887276
1772614440771523800,1.60852392578125,0.04465077072381973,-0.02465670555830002,0.027242392301559448
1772614440781589500,1.618589599609375,0.038135647773742676,-0.019537674263119698,0.023479951545596123
1772614440791656700,1.62865673828125,0.02966492995619774,-0.01412985846400261,0.024616055190563202
1772614440801723600,1.6387236328125,0.012268432416021824,-0.01746656373143196,0.024037638679146767
1772614440811790600,1.64879052734375,0.0009257624624297023,-0.0022079823538661003,0.02237662672996521
1772614440821857800,1.65885791015625,-0.006028149742633104,0.019141051918268204,0.020557790994644165
1772614440831924700,1.6689248046875,-0.010586150921881199,0.03263954818248749,0.015067686326801777
1772614440841991700,1.67899169921875,-0.014614252373576164,0.030333565548062325,0.016660554334521294
1772614440852058600,1.68905859375,-0.010538817383348942,0.0300051961094141,0.02505403943359852
1772614440862125600,1.69912548828125,-0.006816113833338022,0.01565587893128395,0.040702179074287415
1772614440872192500,1.709192626953125,-0.008491507731378078,-0.012613841332495213,0.05513092130422592
1772614440882259700,1.719259765625,-0.00806207675486803,-0.02266189642250538,0.07062792032957077
1772614440892326700,1.72932666015625,-0.0015216191532090306,-0.02458762936294079,0.0682997852563858
1772614440902392600,1.739392578125,0.00703728012740612,-0.027177615091204643,0.052114591002464294
1772614440912459500,1.74945947265625,0.016591371968388557,-0.02907325141131878,0.030882272869348526
1772614440922526700,1.759526611328125,0.020836153998970985,-0.03535198047757149,-0.0006927705835551023
1772614440932593700,1.76959375,0.018359415233135223,-0.03673229739069939,-0.024777866899967194
1772614440942660600,1.77966064453125,0.005059388466179371,-0.031065255403518677,-0.04109098017215729
1772614440952727600,1.7897275390625,-0.011570720002055168,-0.025202572345733643,-0.04500396177172661
1772614440962794500,1.79979443359375,-0.028889259323477745,-0.014867241494357586,-0.041616205126047134
1772614440972861400,1.809861328125,-0.03699219226837158,-0.01840711385011673,-0.029642902314662933
1772614440982928600,1.8199287109375,-0.03794550150632858,-0.04012225195765495,-0.021421950310468674
1772614440992995800,1.829995849609375,-0.029309671372175217,-0.06504837423563004,-0.021055765450000763
1772614441003062800,1.840062744140625,-0.025856249034404755,-0.0698058232665062,-0.019747953861951828
1772614441013128400,1.85012841796875,-0.016400694847106934,-0.07314728945493698,-0.02042226679623127
1772614441023195400,1.8601953125,-0.016003252938389778,-0.07920090854167938,-0.024907361716032028
1772614441033262600,1.8702626953125,-0.016665315255522728,-0.07219226658344269,-0.03362575173377991
1772614441043329500,1.88032958984375,-0.015397255308926105,-0.05628712847828865,-0.048021942377090454
1772614441053396500,1.890396484375,-0.028356730937957764,-0.03271336108446121,-0.0656568631529808
1772614441063463400,1.90046337890625,-0.03575841337442398,-0.01767950877547264,-0.07743308693170547
1772614441073530400,1.9105302734375,-0.041865840554237366,0.005377873312681913,-0.08675920963287354
1772614441083597300,1.920597412109375,-0.05001691356301308,0.020865455269813538,-0.08082512766122818
1772614441093664500,1.93066455078125,-0.05832810699939728,0.013563068583607674,-0.0721386969089508
1772614441103731500,1.9407314453125,-0.061889853328466415,-0.00034427433274686337,-0.05187008157372475
1772614441113798400,1.95079833984375,-0.05398452654480934,-0.010783332400023937,-0.03732842579483986
1772614441123864300,1.9608642578125,-0.03822740167379379,-0.010822877287864685,-0.04105822741985321
1772614441133931500,1.970931640625,-0.01050043385475874,0.008962012827396393,-0.043802883476018906
1772614441143998500,1.98099853515625,0.014901997521519661,0.01859286241233349,-0.04494810104370117
1772614441154065400,1.9910654296875,0.03197978436946869,0.01903361640870571,-0.04603387042880058
1772614441164132400,2.00113232421875,0.03919432312250137,0.011810768395662308,-0.03764841705560684
1772614441174199300,2.01119921875,0.037816405296325684,0.0022681301925331354,-0.026547562330961227
1772614441184266200,2.021266357421875,0.02674471028149128,-0.0041656033135950565,-0.010962316766381264
1772614441194333400,2.03133349609375,0.009970523416996002,0.0027514249086380005,-0.002242861781269312
1772614441204400400,2.041400390625,0.0018967491341754794,0.023788876831531525,0.006980465725064278
1772614441214467600,2.051467529296875,-0.00033817568328231573,0.03873613476753235,0.01613880880177021
1772614441224534500,2.061534423828125,0.005783767439424992,0.02684265375137329,0.028840914368629456
1772614441234600200,2.07160009765625,0.013376971706748009,0.0075025130063295364,0.03728260472416878
1772614441244667600,2.081667724609375,0.03403528034687042,-0.01766611449420452,0.0332576185464859
1772614441254734600,2.091734619140625,0.05635363608598709,-0.042722199112176895,0.025711286813020706
1772614441264801500,2.101801513671875,0.06890548020601273,-0.06001248210668564,0.011520832777023315
1772614441274868500,2.111868408203125,0.06750918179750443,-0.0705796405673027,-0.0004508756101131439
1772614441284935400,2.121935302734375,0.06130484864115715,-0.059284862130880356,-0.01265809964388609
1772614441295002400,2.13200244140625,0.05644325166940689,-0.03673374652862549,-0.02405376546084881
1772614441305069600,2.142069580078125,0.04275529831647873,-0.021971717476844788,-0.03812918812036514
1772614441315136500,2.152136474609375,0.0293289702385664,-0.01758762262761593,-0.06144116818904877
1772614441325203500,2.162203369140625,0.01341225765645504,-0.005848110653460026,-0.09007790684700012
1772614441335270400,2.1722705078125,0.00012228486593812704,-0.002048579277470708,-0.1112484410405159
1772614441345336300,2.18233642578125,-0.008344301953911781,-0.009464752860367298,-0.12586450576782227
1772614441355403500,2.192403564453125,0.00006702565588057041,-0.01350663136690855,-0.13248085975646973
1772614441365470500,2.202470458984375,0.016977498307824135,-0.01919364556670189,-0.13148252665996552
1772614441375537400,2.212537353515625,0.026011738926172256,-0.022015796974301338,-0.12584568560123444
1772614441385604400,2.222604248046875,0.023492958396673203,-0.0193448718637228,-0.10964139550924301
1772614441395671300,2.23267138671875,0.014322895556688309,-0.007088204845786095,-0.06861992925405502
1772614441405738200,2.24273828125,0.0046147070825099945,0.007678775116801262,-0.037740375846624374
1772614441415805400,2.252805419921875,0.005307395942509174,0.0119677959010005,-0.012453928589820862
1772614441425872400,2.262872314453125,0.012535946443676949,0.0358947329223156,-0.011515721678733826
1772614441435939300,2.272939208984375,0.02541579306125641,0.05419624224305153,-0.038113512098789215
1772614441446006300,2.28300634765625,0.029991138726472855,0.056195128709077835,-0.0734974816441536
1772614441456073500,2.293073486328125,0.00771166430786252,0.053963664919137955,-0.10262873023748398
1772614441466139400,2.303139404296875,-0.018760954961180687,-0.0028476843144744635,-0.13080179691314697
1772614441476206300,2.313206298828125,-0.037153277546167374,-0.015598101541399956,-0.12979644536972046
1772614441486273500,2.3232734375,-0.0457385778427124,0.025707034394145012,-0.1268860101699829
1772614441496340500,2.333340576171875,-0.04568664729595184,0.04917054623365402,-0.1363367736339569
1772614441506407400,2.343407470703125,-0.023891234770417213,0.06274522095918655,-0.14169713854789734
1772614441516474400,2.353474365234375,-0.0025209663435816765,0.08509287238121033,-0.1311560720205307
1772614441526541600,2.36354150390625,-0.02084062062203884,0.07883720099925995,-0.12543822824954987
1772614441536608500,2.3736083984375,-0.04085720330476761,0.007323598023504019,-0.0970020592212677
1772614441546675500,2.383675537109375,-0.0666675940155983,-0.027683140709996223,-0.023575183004140854
1772614441556742400,2.393742431640625,-0.08655448257923126,-0.04176567122340202,0.03344282880425453
1772614441566809300,2.403809326171875,-0.07592613995075226,-0.03749260678887367,0.06477633863687515
1772614441576875500,2.41387548828125,-0.04361986741423607,-0.009368827566504478,0.07158124446868896
1772614441586942500,2.4239423828125,-0.009282000362873077,0.019198043271899223,0.07440371811389923
1772614441597009400,2.434009521484375,0.012288538739085197,0.014922337606549263,0.08572401106357574
1772614441607076400,2.444076416015625,0.020191868767142296,-0.013365819118916988,0.08742369711399078
1772614441617143300,2.454143310546875,0.024745874106884003,-0.032625798135995865,0.09163068979978561
1772614441627210500,2.46421044921875,0.023567957803606987,-0.04270240291953087,0.10229238867759705
1772614441637277400,2.47427734375,0.006519465707242489,-0.04823245480656624,0.09385629743337631
1772614441647344400,2.484344482421875,0.011783603578805923,-0.04681665822863579,0.08259107172489166
1772614441657411300,2.494411376953125,0.016060108318924904,-0.033204711973667145,0.07124707102775574
1772614441667478300,2.504478271484375,0.014346864074468613,-0.033080123364925385,0.06210452690720558
1772614441677545200,2.514545166015625,0.011005128733813763,-0.04417005926370621,0.0426192469894886
1772614441687612400,2.5246123046875,0.004811180755496025,-0.07152572274208069,0.025286126881837845
1772614441697678300,2.53467822265625,-0.0005159403663128614,-0.09325685352087021,-0.0025148773565888405
1772614441707745300,2.544745361328125,0.0011422117240726948,-0.07469599694013596,-0.0317663736641407
1772614441717812200,2.554812255859375,0.004383279010653496,-0.03961284086108208,-0.06709373742341995
1772614441727879400,2.56487939453125,-0.0036856711376458406,-0.0025371385272592306,-0.09469454735517502
1772614441737946600,2.574946533203125,-0.020683564245700836,0.023275548592209816,-0.11638972908258438
1772614441748013600,2.585013671875,-0.03818688541650772,0.03138560429215431,-0.1365429311990738
1772614441758080500,2.59508056640625,-0.05075620487332344,0.03384476527571678,-0.13450987637043
1772614441768147500,2.6051474609375,-0.05931117758154869,0.03830061852931976,-0.12402606010437012
1772614441778214400,2.61521435546875,-0.0749543234705925,0.0298546701669693,-0.12421754002571106
1772614441788281300,2.62528125,-0.07577254623174667,0.022112850099802017,-0.13195540010929108
1772614441798348500,2.6353486328125,-0.07419462502002716,0.015228046104311943,-0.14039629697799683
1772614441808414500,2.64541455078125,-0.0787728950381279,0.01167680136859417,-0.14927324652671814
1772614441818481400,2.6554814453125,-0.08575410395860672,0.01854109764099121,-0.14531418681144714
1772614441828548400,2.66554833984375,-0.10046487301588058,0.032968904823064804,-0.13809725642204285
1772614441838615300,2.675615234375,-0.11251062154769897,0.04252032935619354,-0.13097915053367615
1772614441848682500,2.6856826171875,-0.11065785586833954,0.05257974937558174,-0.1254035085439682
1772614441858749400,2.69574951171875,-0.09561712294816971,0.05060581490397453,-0.13120201230049133
1772614441868816400,2.70581640625,-0.06786341965198517,0.04322848469018936,-0.14168059825897217
1772614441878883300,2.71588330078125,-0.03447430580854416,0.0184341873973608,-0.15398414433002472
1772614441888950300,2.7259501953125,-0.0036690225824713707,-0.0314474031329155,-0.15739208459854126
1772614441899017200,2.736017333984375,0.025865700095891953,-0.07739704847335815,-0.1501980870962143
1772614441909084400,2.74608447265625,0.03289947658777237,-0.1085585430264473,-0.11212395876646042
1772614441919150300,2.756150390625,0.023883342742919922,-0.125081866979599,-0.05189816653728485
1772614441929217300,2.76621728515625,0.00722147524356842,-0.13298408687114716,0.0019769687205553055
1772614441939284200,2.7762841796875,0.003903176635503769,-0.1301526129245758,0.03746465593576431
1772614441949351400,2.786351318359375,0.024928634986281395,-0.1184571236371994,0.054292239248752594
1772614441959418400,2.79641845703125,0.06325951218605042,-0.11500087380409241,0.04956645891070366
1772614441969485600,2.806485595703125,0.0829223245382309,-0.14780785143375397,0.02831903100013733
1772614441979552500,2.816552490234375,0.07513657957315445,-0.19395989179611206,-0.00621817447245121
1772614441989619500,2.826619384765625,0.04280586913228035,-0.1897611767053604,-0.03587085381150246
1772614441999686400,2.836686279296875,0.009300638921558857,-0.1019572913646698,-0.05514015257358551
1772614442009753300,2.84675341796875,-0.01756270043551922,-0.008848299272358418,-0.06392800807952881
1772614442019820500,2.856820556640625,-0.03247826546430588,0.045601628720760345,-0.06672539561986923
1772614442029887500,2.866887451171875,-0.037039730697870255,0.061818405985832214,-0.052435826510190964
1772614442039953200,2.876953125,-0.0326380580663681,0.045682843774557114,-0.04502078890800476
1772614442050020000,2.88702001953125,-0.018379325047135353,0.006601743865758181,-0.029010707512497902
1772614442060087300,2.89708740234375,-0.0006490636733360589,-0.02483314462006092,-0.013177416287362576
1772614442070154200,2.907154296875,0.016078615561127663,-0.06177622452378273,-0.002260653069242835
1772614442080221200,2.91722119140625,0.022610550746321678,-0.09156528860330582,-0.0023128511384129524
1772614442090288000,2.9272880859375,0.028211673721671104,-0.12021670490503311,-0.022596227005124092
1772614442100355000,2.93735498046875,0.02589472383260727,-0.14406584203243256,-0.04490872472524643
1772614442110422000,2.947422119140625,0.025035392493009567,-0.1306988000869751,-0.07574683427810669
1772614442120489500,2.957489501953125,0.022446533665060997,-0.0862133577466011,-0.09219984710216522
1772614442130556400,2.967556396484375,0.014274492859840393,-0.039187051355838776,-0.08198577165603638
1772614442140623400,2.977623291015625,-0.0018259144853800535,-0.017161376774311066,-0.06133056432008743
1772614442150689300,2.987689208984375,-0.015597488731145859,-0.009591084904968739,-0.028278110548853874
1772614442160756200,2.997756103515625,-0.027263732627034187,-0.014279314316809177,0.004519250709563494
1772614442170823400,3.007823486328125,-0.03167659416794777,-0.025006389245390892,0.024192240089178085
1772614442180890400,3.017890380859375,-0.024678871035575867,-0.0418253168463707,0.02362152375280857
1772614442190957300,3.027957275390625,-0.023454885929822922,-0.06609989702701569,-0.0012023774906992912
1772614442201024300,3.038024169921875,-0.016546113416552544,-0.05267809331417084,-0.03990210220217705
1772614442211091200,3.04809130859375,-0.00914604589343071,-0.018744338303804398,-0.06496424227952957
1772614442221158100,3.058158203125,-0.001695853192359209,-0.013595917262136936,-0.08466551452875137
1772614442231225300,3.068225341796875,0.008641439490020275,-0.02561774104833603,-0.1001058965921402
1772614442241292300,3.078292236328125,0.011099536903202534,-0.03194328397512436,-0.09343468397855759
1772614442251359200,3.088359130859375,-0.0030367551371455193,-0.032406631857156754,-0.07959500700235367
1772614442261425200,3.098425048828125,-0.022584622725844383,-0.022504199296236038,-0.060201603919267654
1772614442271492400,3.108492431640625,-0.041661377996206284,-0.007503136992454529,-0.03438583388924599
1772614442281559300,3.118559326171875,-0.05259312316775322,-0.01022302359342575,-0.015384444035589695
1772614442291626200,3.128626220703125,-0.04242750257253647,-0.022602498531341553,-0.009828690439462662
1772614442301693200,3.138693115234375,-0.02618807926774025,-0.041155677288770676,-0.0146332997828722
1772614442311760100,3.148760009765625,-0.015433436259627342,-0.05878646671772003,-0.022640680894255638
1772614442321827000,3.1588271484375,-0.01415272243320942,-0.057659149169921875,-0.022443871945142746
1772614442331894300,3.168894287109375,-0.03149193152785301,-0.05121588706970215,-0.017882635816931725
1772614442341961200,3.178961181640625,-0.06387197971343994,-0.05022386088967323,-0.006904285866767168
1772614442352028200,3.189028076171875,-0.07655691355466843,-0.07941081374883652,-0.020748209208250046
1772614442362095400,3.199095458984375,-0.07706957310438156,-0.06370136141777039,-0.05358338728547096
1772614442372162300,3.209162353515625,-0.07916723936796188,-0.03247937560081482,-0.09937220066785812
1772614442382228200,3.219228271484375,-0.07135805487632751,-0.015730755403637886,-0.15306338667869568
1772614442392295400,3.22929541015625,-0.06381957978010178,0.005168185569345951,-0.1992419958114624
1772614442402362400,3.2393623046875,-0.05285588279366493,0.0017838402418419719,-0.2377997785806656
1772614442412429300,3.24942919921875,-0.03540335223078728,-0.016823872923851013,-0.27505043148994446
1772614442422496300,3.259496337890625,-0.03365977853536606,-0.009220017120242119,-0.2838212847709656
1772614442432563200,3.269563232421875,-0.054231103509664536,-0.0176787581294775,-0.2658061981201172
1772614442442630400,3.27963037109375,-0.0753699392080307,-0.026320448145270348,-0.2241050899028778
1772614442452697300,3.289697265625,-0.08655338734388351,-0.03988276422023773,-0.15753041207790375
1772614442462764300,3.299764404296875,-0.0859624370932579,-0.05893688648939133,-0.09092316031455994
1772614442472831200,3.309831298828125,-0.07325409352779388,-0.08585599064826965,-0.03930651396512985
1772614442482897400,3.3198974609375,-0.036792755126953125,-0.1177995428442955,-0.006232716608792543
1772614442492964400,3.32996435546875,0.023048872128129005,-0.14475038647651672,0.014471765607595444
1772614442503031300,3.34003125,0.06728211045265198,-0.12441101670265198,0.0344337560236454
1772614442513098200,3.35009814453125,0.09136435389518738,-0.09107640385627747,0.05206449329853058
1772614442523165200,3.360165283203125,0.08989161998033524,-0.06670448929071426,0.06869779527187347
1772614442533232000,3.370232177734375,0.08160939067602158,-0.049093376845121384,0.09551531821489334
1772614442543299000,3.380299072265625,0.08032041788101196,-0.034842003136873245,0.12083319574594498
1772614442553366300,3.3903662109375,0.07429405301809311,-0.04095382243394852,0.12959270179271698
1772614442563433200,3.40043310546875,0.06003335118293762,-0.0495731420814991,0.11918160319328308
1772614442573500200,3.410500244140625,0.05256408825516701,-0.03213620185852051,0.09553660452365875
1772614442583567000,3.420567138671875,0.04856428876519203,-0.002563928719609976,0.06924374401569366
1772614442593634000,3.430634033203125,0.04689931124448776,0.020628798753023148,0.055445972830057144
1772614442603700200,3.4407001953125,0.03502001613378525,0.031169060617685318,0.03924942389130592
1772614442613767200,3.45076708984375,0.03378747031092644,0.0414046011865139,0.038239650428295135
1772614442623834000,3.460834228515625,0.04018278792500496,0.05693189799785614,0.04553298279643059
1772614442633901300,3.4709013671875,0.04000971466302872,0.044265005737543106,0.058204639703035355
1772614442643968300,3.48096826171875,0.033308666199445724,0.008639635518193245,0.061466481536626816
1772614442654035500,3.491035400390625,0.02903635986149311,-0.021800385788083076,0.06016373634338379
1772614442664102400,3.501102294921875,0.028106650337576866,-0.014536614529788494,0.06994312256574631
1772614442674169300,3.51116943359375,0.01982245407998562,0.012330439873039722,0.07270875573158264
1772614442684236300,3.521236328125,0.006585745140910149,0.04153892397880554,0.0676729828119278
1772614442694303200,3.53130322265625,0.00033094442915171385,0.07735282182693481,0.06530268490314484
1772614442704370200,3.5413701171875,0.0019738483242690563,0.09801708906888962,0.06351490318775177
1772614442714437000,3.55143701171875,0.003769049420952797,0.09537120163440704,0.05690375342965126
1772614442724503300,3.56150341796875,0.008674591779708862,0.0687853991985321,0.040146611630916595
1772614442734570200,3.5715703125,0.016553157940506935,0.03726494684815407,0.020034678280353546
1772614442744637200,3.58163720703125,0.031168585643172264,0.019015900790691376,0.008174557238817215
1772614442754704100,3.5917041015625,0.03840569406747818,0.010693207383155823,0.006429214496165514
1772614442764771300,3.601771240234375,0.03281997889280319,0.0013212773483246565,0.00532320374622941
1772614442774838300,3.61183837890625,0.027462029829621315,0.004534222185611725,0.012031150981783867
1772614442784905200,3.6219052734375,0.02677653171122074,0.012362584471702576,0.027491332963109016
1772614442794972200,3.63197216796875,0.0228671133518219,0.01949308067560196,0.042557619512081146
1772614442805039000,3.6420390625,0.021624214947223663,0.02233280800282955,0.05637489631772041
1772614442815106000,3.65210595703125,0.034995779395103455,0.015956420451402664,0.06539363414049149
1772614442825173200,3.66217333984375,0.0457962304353714,-0.00749164680019021,0.06467537581920624
1772614442835239200,3.6722392578125,0.04882218316197395,-0.02022826112806797,0.06077461689710617
1772614442845306000,3.68230615234375,0.053453151136636734,-0.011068586260080338,0.061226025223731995
1772614442855373000,3.692373046875,0.04570608586072922,0.00349901313893497,0.0705459862947464
1772614442865440300,3.702440185546875,0.02855798974633217,0.012094631791114807,0.07121896743774414
1772614442875507500,3.712507568359375,0.005421037785708904,0.02566687762737274,0.06864682585000992
1772614442885574400,3.722574462890625,-0.007986913435161114,0.033153288066387177,0.06196947768330574
1772614442895641300,3.732641357421875,-0.01710074208676815,0.03941735252737999,0.04865900054574013
1772614442905708300,3.742708251953125,-0.02233838103711605,0.04199928790330887,0.033719465136528015
1772614442915775200,3.752775146484375,-0.01719381846487522,0.04091557860374451,0.011009518057107925
1772614442925842200,3.76284228515625,-0.013637700118124485,0.04233291372656822,-0.017202943563461304
1772614442935909400,3.772909423828125,-0.013065752573311329,0.05208219215273857,-0.04017690196633339
1772614442945975300,3.782975341796875,-0.008245164528489113,0.06312578916549683,-0.044598814100027084
1772614442956042200,3.793042236328125,-0.004996081814169884,0.05950512737035751,-0.038810618221759796
1772614442966109200,3.803109130859375,-0.0011411558371037245,0.04650064557790756,-0.021421773359179497
1772614442976176400,3.81317626953125,0.0033267359249293804,0.030525265261530876,-0.005915627349168062
1772614442986243300,3.823243408203125,0.006449292413890362,0.02038235031068325,0.009778647683560848
1772614442996310300,3.833310302734375,0.008758951909840107,0.0024864296428859234,0.013067076914012432
1772614443006377200,3.843377197265625,0.018390007317066193,-0.004018873907625675,0.012457212433218956
1772614443016444200,3.853444091796875,0.031573615968227386,-0.013441165909171104,0.005273250862956047
1772614443026511000,3.863510986328125,0.044147733598947525,-0.01019876729696989,-0.004236098378896713
1772614443036578300,3.873578369140625,0.045236654579639435,0.008650530129671097,-0.0023963325656950474
1772614443046645200,3.883645263671875,0.04606702923774719,0.028028488159179688,-0.00807951856404543
1772614443056711200,3.893711181640625,0.0380546860396862,0.06728219240903854,-0.01630416326224804
1772614443066778000,3.903778076171875,0.031197044998407364,0.11002113670110703,-0.012125929817557335
1772614443076845000,3.913844970703125,0.01669670268893242,0.13404807448387146,-0.004407067317515612
1772614443086912300,3.923912353515625,-0.004874901846051216,0.12696753442287445,-0.0002192466054111719
1772614443096979200,3.933979248046875,-0.02748543955385685,0.10237213224172592,0.004044834058731794
1772614443107046100,3.944046142578125,-0.04013119265437126,0.08723153173923492,-0.002594693098217249
1772614443117113000,3.954113037109375,-0.03773331642150879,0.0816393792629242,-0.007726776879280806
1772614443127180000,3.964179931640625,-0.028867918998003006,0.08347003161907196,-0.02046547457575798
1772614443137247000,3.9742470703125,-0.011523084715008736,0.0858936756849289,-0.028318418189883232
1772614443147314200,3.984314208984375,-0.0038944599218666553,0.07920381426811218,-0.03548125550150871
1772614443157381000,3.994381103515625,-0.00796709768474102,0.06295087188482285,-0.038283757865428925
1772614443167448000,4.004447998046875,-0.00168789632152766,0.06166935712099075,-0.0383324921131134
1772614443177514000,4.014513916015625,0.010186073370277882,0.07705683261156082,-0.02759648859500885
1772614443187581200,4.024581298828125,0.014524064026772976,0.0856834203004837,-0.016898687928915024
1772614443197648100,4.034648193359375,0.016835320740938187,0.08646105229854584,0.0016531149158254266
1772614443207715000,4.044715087890625,0.016338907182216644,0.07208557426929474,0.025475356727838516
1772614443217782000,4.054781982421875,0.014526791870594025,0.04530494287610054,0.045511506497859955
1772614443227849000,4.064848876953125,0.012353120371699333,0.020711181685328484,0.06004437804222107
1772614443237916200,4.074916259765625,0.0031375496182590723,0.005031217820942402,0.050240494310855865
1772614443247983000,4.084983154296875,-0.004052452743053436,0.017070302739739418,0.0309594739228487
1772614443258050300,4.09505029296875,-0.0038893665187060833,0.04007803276181221,0.016212470829486847
1772614443268117200,4.1051171875,-0.004846773110330105,0.03924579545855522,-0.0017833069432526827
1772614443278184200,4.11518408203125,0.005051431246101856,0.02599368803203106,-0.0196236502379179
1772614443288250000,4.12525,0.020834654569625854,0.005356587469577789,-0.03696828708052635
1772614443298317300,4.1353173828125,0.03464760631322861,-0.011769639328122139,-0.036807455122470856
1772614443308384300,4.14538427734375,0.03809480369091034,-0.017106613144278526,-0.024279681965708733
1772614443318451200,4.155451171875,0.02932547777891159,-0.021088799461722374,-0.011033250018954277
1772614443328518100,4.16551806640625,0.017985204234719276,-0.026259860023856163,0.005200581159442663
1772614443338585000,4.175585205078125,0.010898401029407978,-0.021986886858940125,0.005345349200069904
1772614443348652000,4.185652099609375,0.01604895479977131,0.005984826944768429,-0.0010987016139551997
1772614443358719200,4.19571923828125,0.03041418083012104,0.040851790457963943,-0.016116587445139885
1772614443368786200,4.2057861328125,0.04024151340126991,0.05161788687109947,-0.02744940295815468
1772614443378853000,4.21585302734375,0.03865808993577957,0.026517732068896294,-0.02280367724597454
1772614443388920000,4.225920166015625,0.032783158123493195,-0.004356028512120247,-0.0051184240728616714
1772614443398986000,4.235986083984375,0.03116792067885399,-0.022556239739060402,0.007720594294369221
1772614443409053200,4.24605322265625,0.031392693519592285,-0.01352466270327568,0.012077792547643185
1772614443419120000,4.2561201171875,0.038162946701049805,0.026185408234596252,0.01944403536617756
1772614443429187000,4.26618701171875,0.048569779843091965,0.04627629369497299,0.025242535397410393
1772614443439254000,4.27625390625,0.040738657116889954,0.019924571737647057,0.023225145414471626
1772614443449321000,4.286321044921875,0.029505975544452667,0.008207729086279869,0.01608094945549965
1772614443459388000,4.296387939453125,0.032019663602113724,0.03712357208132744,0.01278169360011816
1772614443469455000,4.306455078125,0.028251292183995247,0.05335766822099686,0.004376757424324751
1772614443479522300,4.316522216796875,0.020380152389407158,0.04879515990614891,-0.00025028304662555456
1772614443489589200,4.32658935546875,0.005225434433668852,0.046362362802028656,0.011188792996108532
1772614443499656200,4.33665625,-0.014094199053943157,0.05831475928425789,0.027854638174176216
1772614443509723100,4.34672314453125,-0.01746043562889099,0.06374121457338333,0.04582218825817108
1772614443519789300,4.356789306640625,-0.012698804028332233,0.03749694675207138,0.059233080595731735
1772614443529856300,4.366856201171875,-0.008598600514233112,0.016041455790400505,0.059539612382650375
1772614443539923200,4.376923095703125,0.0015508398646488786,0.014642428606748581,0.04769802466034889
1772614443549990100,4.386990234375,0.011893758550286293,0.018837973475456238,0.03295263648033142
1772614443560057000,4.39705712890625,0.015098136849701405,0.02736472338438034,0.017405614256858826
1772614443570124000,4.4071240234375,0.015921320766210556,0.040092501789331436,-0.001236514886841178
1772614443580191200,4.417191162109375,0.02375427819788456,0.04088394716382027,0.0005344558740034699
1772614443590258200,4.427258056640625,0.02850695513188839,0.015952764078974724,0.0030892263166606426
1772614443600325000,4.4373251953125,0.02324022352695465,-0.016134560108184814,-0.00030164525378495455
1772614443610392000,4.44739208984375,0.018626030534505844,-0.01802993193268776,0.0038187974132597446
1772614443620459000,4.457458984375,0.010098953731358051,0.009500514715909958,-0.002918799640610814
1772614443630525200,4.467525146484375,-0.005273344460874796,0.03240450099110603,0.00008444709237664938
1772614443640592100,4.477592041015625,-0.013117751106619835,0.047171492129564285,0.009078181348741055
1772614443650659000,4.4876591796875,-0.0028794945683330297,0.05593595653772354,0.01540079154074192
1772614443660726000,4.49772607421875,0.0005442275432869792,0.041056033223867416,0.020823780447244644
1772614443670793000,4.50779296875,0.0025320108979940414,0.022986752912402153,0.018475672230124474
1772614443680860200,4.517860107421875,0.012734418734908104,0.021310964599251747,0.018985487520694733
1772614443690927000,4.527927001953125,0.015304102562367916,0.018827300518751144,0.024416204541921616
1772614443700994000,4.537994140625,0.014970210380852222,0.014150621369481087,0.028805973008275032
1772614443711061200,4.548061279296875,0.012962453067302704,0.013397213071584702,0.03691689670085907
1772614443721128200,4.558128173828125,0.013251803815364838,0.010898970998823643,0.0406920351088047
1772614443731195100,4.568195068359375,0.01622815430164337,0.014630326069891453,0.041117340326309204
1772614443741262000,4.578261962890625,0.01641470193862915,0.014484727755188942,0.04546176269650459
1772614443751328300,4.588328369140625,0.02629156783223152,0.0077796876430511475,0.04431607201695442
1772614443761395200,4.598395263671875,0.03543916344642639,-0.00628995755687356,0.04557729884982109
1772614443771462100,4.608462158203125,0.036302827298641205,-0.01591009460389614,0.039893846958875656
1772614443781529000,4.618529052734375,0.029671622440218925,-0.014505967497825623,0.03851430118083954
1772614443791596300,4.62859619140625,0.024909092113375664,-0.0011954894289374352,0.03673850744962692
1772614443801663200,4.638663330078125,0.018251683562994003,0.005093524698168039,0.03528495132923126
1772614443811730200,4.648730224609375,0.00857189204543829,-0.001780626829713583,0.026875484734773636
1772614443821797000,4.658797119140625,0.009354501962661743,-0.0017359135672450066,0.02725035324692726
1772614443831864000,4.668864013671875,0.009083125740289688,-0.005059005692601204,0.028773415833711624
1772614443841931000,4.678930908203125,0.010811182670295238,-0.021034352481365204,0.03153248131275177
1772614443851998200,4.688998291015625,0.011210923083126545,-0.033607400953769684,0.03430775925517082
1772614443862064000,4.699064208984375,0.010849966667592525,-0.032266777008771896,0.028453556820750237
1772614443872131000,4.709131103515625,0.018651964142918587,-0.03204413875937462,0.02240285463631153
1772614443882198000,4.719197998046875,0.025930114090442657,-0.024244407191872597,0.015615844167768955
1772614443892265000,4.729264892578125,0.035292722284793854,-0.023464899510145187,0.014592657797038555
1772614443902332200,4.739332275390625,0.036460552364587784,-0.033068470656871796,0.021236777305603027
1772614443912399000,4.749399169921875,0.022268835455179214,-0.03705015778541565,0.03498800843954086
1772614443922466000,4.759466064453125,0.008268164470791817,-0.028034145012497902,0.046754106879234314
1772614443932533000,4.769532958984375,-0.004836984910070896,-0.021680641919374466,0.05502881482243538
1772614443942600000,4.779599853515625,-0.009858743287622929,-0.00577199412509799,0.04825422912836075
1772614443952667100,4.789667236328125,-0.007760971784591675,0.010542530566453934,0.03245582431554794
1772614443962734300,4.799734375,-0.0102046187967062,0.012290986254811287,0.018300775438547134
1772614443972800000,4.809800048828125,-0.019194118678569794,0.01013915240764618,0.005814278032630682
1772614443982867200,4.8198671875,-0.025172848254442215,0.028520122170448303,0.008822398260235786
1772614443992934100,4.82993408203125,-0.021927520632743835,0.034359902143478394,0.01486271433532238
1772614444003001000,4.8400009765625,-0.011891365051269531,0.02475593239068985,0.028484635055065155
1772614444013068300,4.850068359375,0.006647165399044752,0.01328649464994669,0.02947533130645752
1772614444023135200,4.86013525390625,0.018491672351956367,0.00284358998760581,0.025569792836904526
1772614444033202700,4.87020263671875,0.028518740087747574,-0.010217085480690002,0.01832679472863674
1772614444043269600,4.88026953125,0.03181932866573334,-0.005814681760966778,0.012048818171024323
1772614444053336600,4.890336669921875,0.016882192343473434,-0.004008259624242783,0.019884636625647545
1772614444063403500,4.900403564453125,0.003765248693525791,0.0000524462666362524,0.03659835830330849
1772614444073470700,4.910470703125,-0.009359873831272125,0.0008687051013112068,0.045799314975738525
1772614444083536600,4.92053662109375,-0.016642244532704353,0.01129994448274374,0.05114299803972244
1772614444093603600,4.930603515625,-0.017383934929966927,0.020258286967873573,0.048330433666706085
1772614444103670500,4.94067041015625,-0.014459451660513878,0.0114859314635396,0.03308871015906334
1772614444113737500,4.950737548828125,-0.007427907548844814,-0.00042585493065416813,0.0074880076572299
1772614444123804700,4.9608046875,-0.0056499820202589035,-0.00975104235112667,-0.017869332805275917
1772614444133871600,4.97087158203125,-0.0024533900432288647,-0.004460140131413937,-0.028452735394239426
1772614444143938600,4.9809384765625,-0.002741614356637001,-0.0007338069844990969,-0.018825002014636993
1772614444154005500,4.991005615234375,-0.011220320127904415,-0.007229256443679333,-0.0016324329189956188
1772614444164072400,5.001072509765625,-0.016244735568761826,-0.014424612745642662,0.009635567665100098
1772614444174139600,5.0111396484375,-0.0019576745107769966,-0.0020630182698369026,0.015759507194161415
1772614444184206800,5.021206787109375,0.011474541388452053,0.0009743750561028719,0.011781079694628716
1772614444194273800,5.031273681640625,0.014037568122148514,-0.013521210290491581,0.0013742450391873717
1772614444204339500,5.04133935546875,0.010490106418728828,-0.025616832077503204,-0.009215017780661583
1772614444214406700,5.05140673828125,0.00759711442515254,-0.01729631796479225,-0.01211013924330473
1772614444224473600,5.0614736328125,-0.004124656319618225,-0.006691405549645424,-0.009892207570374012
1772614444234540800,5.071540771484375,-0.0184673760086298,0.0030480409041047096,0.00293623935431242
1772614444244607700,5.081607666015625,-0.025940371677279472,0.00628112955018878,0.013351636938750744
1772614444254674700,5.0916748046875,-0.027696194127202034,0.019020892679691315,0.017555169761180878
1772614444264741600,5.10174169921875,-0.02158680371940136,0.03462211415171623,0.01907678134739399
1772614444274808600,5.11180859375,-0.013537133112549782,0.0368538424372673,0.01835186779499054
1772614444284875500,5.12187548828125,-0.0029489058069884777,0.022824497893452644,0.011915929615497589
1772614444294942700,5.131942626953125,0.011071572080254555,0.015111183747649193,0.0034681162796914577
1772614444305009700,5.142009765625,0.030296333134174347,-0.002388950437307358,-0.001616952707991004
1772614444315075600,5.15207568359375,0.04662657156586647,-0.021068628877401352,-0.013926615938544273
1772614444325142500,5.162142578125,0.050742555409669876,-0.017975939437747,-0.009263288229703903
1772614444335209700,5.172209716796875,0.04735874384641647,-0.013048291206359863,0.0012215765891596675
1772614444345276700,5.182276611328125,0.032096996903419495,-0.018561646342277527,0.012068751268088818
1772614444355343600,5.192343505859375,0.011347244493663311,0.0022797188721597195,0.023468678817152977
1772614444365410600,5.20241064453125,-0.0036609710659831762,0.03287576884031296,0.026908492669463158
1772614444375477500,5.2124775390625,-0.01274128444492817,0.05836568400263786,0.02542484551668167
1772614444385544400,5.22254443359375,-0.00948383565992117,0.06139775365591049,0.009550213813781738
1772614444395611600,5.232611572265625,-0.0051588620990514755,0.05243141949176788,-0.005157092586159706
1772614444405678600,5.2426787109375,-0.0018137679435312748,0.04092373326420784,-0.022194428369402885
1772614444415745800,5.252745849609375,0.000031536328606307507,0.03835591673851013,-0.047047317028045654
1772614444425811500,5.2628115234375,-0.006645970977842808,0.03775500878691673,-0.07053317129611969
1772614444435878400,5.27287841796875,-0.012368838302791119,0.03281457722187042,-0.09273248165845871
1772614444445945900,5.28294580078125,-0.015408872626721859,0.0321723110973835,-0.1141572967171669
1772614444456012800,5.2930126953125,-0.014360385946929455,0.03571325168013573,-0.12907074391841888
1772614444466079700,5.303079833984375,-0.019161131232976913,0.03550678864121437,-0.13272443413734436
1772614444476146700,5.313146728515625,-0.03965442255139351,0.028243811801075935,-0.11819849163293839
1772614444486213600,5.323213623046875,-0.06341388076543808,0.037852123379707336,-0.08612202107906342
1772614444496280600,5.333280517578125,-0.08542224019765854,0.06156916916370392,-0.03939925879240036
1772614444506346800,5.3433466796875,-0.10455868393182755,0.08590495586395264,0.0060860817320644855
1772614444516413700,5.35341357421875,-0.11205974221229553,0.09867960214614868,0.04588089883327484
1772614444526480600,5.363480712890625,-0.1063339114189148,0.09202827513217926,0.0701405480504036
1772614444536547600,5.373547607421875,-0.08561532199382782,0.06648856401443481,0.07807090878486633
1772614444546614500,5.383614501953125,-0.04540771245956421,0.030735624954104424,0.07133950293064117
1772614444556681700,5.393681640625,-0.006316503509879112,-0.004580553621053696,0.06509412825107574
1772614444566748700,5.403748779296875,0.02683049626648426,-0.041309185326099396,0.06796691566705704
1772614444576814600,5.413814697265625,0.04715680703520775,-0.07917773723602295,0.07095471769571304
1772614444586881500,5.423881591796875,0.04568161442875862,-0.09685537964105606,0.05721763148903847
1772614444596948700,5.43394873046875,0.04252257198095322,-0.07975015789270401,0.04314921423792839
1772614444607015700,5.444015625,0.035032834857702255,-0.019868114963173866,0.03703976050019264
1772614444617082600,5.45408251953125,0.018254918977618217,0.019921908155083656,0.03564745932817459
1772614444627149600,5.464149658203125,-0.004865314345806837,0.029291579499840736,0.04339587688446045
1772614444637216500,5.474216552734375,-0.023715967312455177,0.026081139221787453,0.045418813824653625
1772614444647283500,5.484283447265625,-0.03321923315525055,0.031337909400463104,0.04743082821369171
1772614444657350700,5.4943505859375,-0.03267355263233185,0.029955731704831123,0.045470207929611206
1772614444667417600,5.50441748046875,-0.015171481296420097,0.012250268831849098,0.0336592011153698
1772614444677484500,5.514484619140625,0.00572128314524889,-0.015580829232931137,0.023172471672296524
1772614444687550500,5.524550537109375,0.02507840283215046,-0.044917237013578415,0.01521209441125393
1772614444697617400,5.534617431640625,0.042865388095378876,-0.05276983231306076,0.009911605156958103
1772614444707684600,5.5446845703125,0.05023389309644699,-0.043744415044784546,0.004245063289999962
1772614444717751800,5.554751708984375,0.054702676832675934,-0.026365429162979126,0.0051481411792337894
1772614444727818800,5.56481884765625,0.056721318513154984,-0.010888251475989819,0.004003074951469898
1772614444737885700,5.5748857421875,0.0553031861782074,-0.0036436535883694887,0.01800517737865448
1772614444747952600,5.58495263671875,0.03721306100487709,-0.022258587181568146,0.03712371736764908
1772614444758019600,5.59501953125,0.01474051084369421,-0.04191804304718971,0.052624646574258804
1772614444768086800,5.605086669921875,-0.0028492342680692673,-0.043985601514577866,0.06124664470553398
1772614444778153700,5.61515380859375,-0.014919213019311428,-0.028104372322559357,0.059339020401239395
1772614444788220700,5.625220703125,-0.012123093008995056,-0.008219645358622074,0.044358234852552414
1772614444798287600,5.63528759765625,-0.004627893213182688,-0.0028389948420226574,0.019945569336414337
1772614444808353500,5.645353515625,0.005505328997969627,-0.005757160484790802,0.00020160793792456388
1772614444818420700,5.655420654296875,0.011008218862116337,0.0030413914937525988,-0.018531067296862602
1772614444828487700,5.66548779296875,0.014256815426051617,0.010385680943727493,-0.025489196181297302
1772614444838554600,5.6755546875,0.010953962802886963,0.017786074429750443,-0.025070814415812492
1772614444848621600,5.68562158203125,0.012472664006054401,0.014932211488485336,-0.008951165713369846
1772614444858688500,5.6956884765625,0.012464940547943115,0.003404451534152031,0.006239770911633968
1772614444868755500,5.70575537109375,0.011583500541746616,-0.00796168390661478,0.027287557721138
1772614444878822700,5.71582275390625,0.007706470787525177,-0.014976182952523232,0.04354296252131462
1772614444888889600,5.7258896484375,-0.0003459294093772769,-0.014522351324558258,0.04701569303870201
1772614444898956500,5.73595654296875,-0.009974055923521519,-0.016246480867266655,0.036564119160175323
1772614444909023500,5.7460234375,-0.012864883057773113,-0.014271430671215057,0.01910434477031231
1772614444919089700,5.756089599609375,-0.008802231401205063,-0.00977468490600586,-0.008835411630570889
1772614444929156600,5.766156494140625,-0.004218332469463348,-0.0007635136134922504,-0.031454622745513916
1772614444939223600,5.7762236328125,-0.0025858143344521523,0.005295710638165474,-0.05092738941311836
1772614444949290500,5.78629052734375,-0.004485114477574825,0.018982326611876488,-0.04408085718750954
1772614444959357700,5.796357666015625,-0.016677863895893097,0.028835223987698555,-0.02351832389831543
1772614444969424600,5.806424560546875,-0.025714805349707603,0.022291667759418488,0.0033079031854867935
1772614444979491600,5.81649169921875,-0.033975664526224136,0.016734981909394264,0.02875121310353279
1772614444989558800,5.826558837890625,-0.03794144466519356,0.021936697885394096,0.04848307743668556
1772614444999625700,5.836625732421875,-0.03115863911807537,0.02184109017252922,0.0631251335144043
1772614445009692700,5.846692626953125,-0.02005951479077339,0.00608469545841217,0.06638899445533752
1772614445019759600,5.856759521484375,-0.0029140831902623177,-0.022521914914250374,0.07181545346975327
1772614445029826600,5.86682666015625,0.006542901508510113,-0.04499112442135811,0.06521319597959518
1772614445039892700,5.876892822265625,0.01004762202501297,-0.054952409118413925,0.03160383552312851
1772614445049959700,5.886959716796875,0.026121295988559723,-0.039617277681827545,-0.007843689061701298
1772614445060026600,5.897026611328125,0.03944029659032822,-0.009000780060887337,-0.04484458267688751
1772614445070093600,5.907093505859375,0.041658513247966766,-0.013302890583872795,-0.07307343184947968
1772614445080160500,5.917160400390625,0.037491198629140854,-0.01796714961528778,-0.06923314929008484
1772614445090227700,5.927227783203125,0.03813162073493004,-0.027420267462730408,-0.047518931329250336
1772614445100294700,5.937294677734375,0.04667823761701584,-0.028719089925289154,-0.026031747460365295
1772614445110361600,5.947361572265625,0.05497118830680847,-0.024308431893587112,0.0035790330730378628
1772614445120428500,5.957428466796875,0.05680796876549721,-0.01617913320660591,0.02680446021258831
1772614445130495500,5.96749560546875,0.055562809109687805,-0.010979242622852325,0.03628302365541458
1772614445140562400,5.9775625,0.05504189431667328,-0.013383811339735985,0.03447979688644409
1772614445150628600,5.987628662109375,0.05481446161866188,-0.012978211045265198,0.025176044553518295
1772614445160695600,5.997695556640625,0.06185905262827873,-0.01876525953412056,0.008660984225571156
1772614445170762500,6.007762451171875,0.06345614790916443,-0.023230187594890594,0.0008840736700221896
1772614445180829400,6.017829345703125,0.05805020406842232,-0.03254459425806999,-0.000408891006372869
1772614445190896400,6.027896484375,0.04668429493904114,-0.04605250805616379,0.01039920188486576
1772614445200963800,6.0379638671875,0.04121789336204529,-0.046515367925167084,0.024221008643507957
1772614445211030800,6.04803076171875,0.035923395305871964,-0.022206498309969902,0.028502680361270905
1772614445221097700,6.05809765625,0.030218638479709625,0.01727646216750145,0.018397314473986626
1772614445231164700,6.06816455078125,0.031682275235652924,0.04863406717777252,0.007246752735227346
1772614445241231600,6.078231689453125,0.025897890329360962,0.06691747158765793,0.004321003798395395
1772614445251298600,6.088298583984375,0.0180978924036026,0.06046908721327782,0.00668711494654417
1772614445261365800,6.09836572265625,0.02049899846315384,0.03919682279229164,0.008293267339468002
1772614445271431700,6.108431640625,0.025383103638887405,0.016536982730031013,0.008485708385705948
1772614445281498600,6.11849853515625,0.02794160321354866,-0.014487513341009617,0.00810221303254366
1772614445291565600,6.128565673828125,0.021334564313292503,-0.045402150601148605,0.013682014308869839
1772614445301632800,6.1386328125,0.014192764647305012,-0.05649847537279129,0.0108295027166605
1772614445311699700,6.14869970703125,0.003341716481372714,-0.04433116316795349,0.002249383367598057
1772614445321766700,6.1587666015625,-0.004162538796663284,-0.01528539601713419,-0.018790388479828835
1772614445331833600,6.16883349609375,-0.005974786356091499,0.02788822166621685,-0.04214347526431084
1772614445341900500,6.178900634765625,-0.00016563350800424814,0.05113948509097099,-0.04523194208741188
1772614445351967500,6.188967529296875,0.002138065407052636,0.03729062154889107,-0.03987900912761688
1772614445362034400,6.199034423828125,0.0038696525152772665,0.014393826946616173,-0.013802670873701572
1772614445372101600,6.2091015625,0.0023608733899891376,-0.005043540149927139,0.015667933970689774
1772614445382168600,6.21916845703125,-0.005735935643315315,-0.027650583535432816,0.036803312599658966
1772614445392234500,6.229234375,-0.0023873113095760345,-0.03531402349472046,0.05310211703181267
1772614445402301400,6.239301513671875,0.006992608308792114,-0.0466897152364254,0.048455700278282166
1772614445412368600,6.24936865234375,0.01742907240986824,-0.05415111780166626,0.027252059429883957
1772614445422435600,6.259435546875,0.018407518044114113,-0.045623406767845154,-0.004089352209120989
1772614445432502500,6.26950244140625,0.021511897444725037,-0.01660623587667942,-0.03509075567126274
1772614445442569700,6.27956982421875,0.02190391533076763,-0.00015402561984956264,-0.051485709846019745
1772614445452636700,6.28963671875,0.02370224893093109,0.0032798349857330322,-0.06079152598977089
1772614445462703600,6.29970361328125,0.02482663467526436,-0.01355640310794115,-0.05337728559970856
1772614445472770800,6.309770751953125,0.021728312596678734,-0.02964588813483715,-0.03340970352292061
1772614445482837800,6.319837646484375,0.007954178377985954,-0.03412293270230293,-0.004477655049413443
1772614445492904700,6.32990478515625,-0.007139990106225014,-0.05031638965010643,0.025164810940623283
1772614445502970600,6.339970703125,-0.02005019597709179,-0.053471438586711884,0.036372456699609756
1772614445513037600,6.35003759765625,-0.02511775493621826,-0.03682364523410797,0.037552352994680405
1772614445523104800,6.360104736328125,-0.0199980940669775,-0.013938567601144314,0.01820342242717743
1772614445533171700,6.370171630859375,-0.018629295751452446,0.012075882405042648,-0.006027584429830313
1772614445543238700,6.38023876953125,-0.0189059991389513,0.025407399982213974,-0.02383268065750599
1772614445553305600,6.3903056640625,-0.012669375166296959,0.011477656662464142,-0.036216795444488525
1772614445563372500,6.40037255859375,-0.01507873646914959,-0.0009324075654149055,-0.04438311234116554
1772614445573439500,6.410439453125,-0.016237877309322357,-0.0014595072716474533,-0.0399550199508667
1772614445583506700,6.420506591796875,-0.016159847378730774,-0.013637077063322067,-0.029237661510705948
1772614445593573600,6.43057373046875,-0.0179082453250885,-0.028651632368564606,-0.014157899655401707
1772614445603640600,6.440640625,-0.022565847262740135,-0.03065486252307892,-0.004270114935934544
1772614445613707500,6.45070751953125,-0.018373433500528336,-0.028127819299697876,0.002047463320195675
1772614445623773700,6.460773681640625,-0.015068450942635536,-0.023172743618488312,-0.0021379608660936356
1772614445633840600,6.470840576171875,-0.0029947764705866575,-0.010417589917778969,-0.007484056055545807
1772614445643907600,6.480907470703125,0.010204914957284927,0.002017507329583168,-0.02044805884361267
1772614445653974500,6.490974609375,0.01695043407380581,0.004332868382334709,-0.02822086587548256
1772614445664041500,6.50104150390625,0.013479537330567837,0.00933535024523735,-0.029808377847075462
1772614445674108400,6.5111083984375,0.0034375900868326426,0.012899636290967464,-0.03002333454787731
1772614445684175600,6.521175537109375,-0.006444068625569344,0.011611731722950935,-0.029360473155975342
1772614445694242800,6.531242919921875,-0.011474980972707272,0.01042020320892334,-0.024302305653691292
1772614445704309800,6.541309814453125,-0.01697414182126522,0.01435901876538992,-0.020368818193674088
1772614445714376700,6.551376708984375,-0.02757548727095127,0.02371855080127716,-0.0025613096076995134
1772614445724443600,6.561443603515625,-0.03242243826389313,0.036867376416921616,0.008978699333965778
1772614445734509800,6.571509765625,-0.022005554288625717,0.04452146589756012,0.02981492504477501
1772614445744576800,6.58157666015625,-0.006382385268807411,0.047569721937179565,0.04240502044558525
1772614445754643700,6.591643798828125,0.020980319008231163,0.038063280284404755,0.05668456107378006
1772614445764710700,6.601710693359375,0.03570786491036415,0.019399048760533333,0.06131873279809952
1772614445774777600,6.611777587890625,0.045742567628622055,-0.013202331028878689,0.054457515478134155
1772614445784844500,6.621844482421875,0.04107457771897316,-0.03235365450382233,0.02831006795167923
1772614445794911700,6.631911865234375,0.03388514369726181,-0.019288403913378716,-0.007757748942822218
1772614445804978700,6.641978759765625,0.021697718650102615,0.01985047571361065,-0.032255902886390686
1772614445815045600,6.652045654296875,0.004291331395506859,0.037875864654779434,-0.04939716309309006
1772614445825112600,6.662112548828125,-0.007668924517929554,0.03008132427930832,-0.04713720455765724
1772614445835179500,6.672179443359375,-0.015189492143690586,0.010069968178868294,-0.03721514716744423
1772614445845246500,6.68224658203125,-0.011049875058233738,-0.018273789435625076,-0.02595343627035618
1772614445855312600,6.692312744140625,-0.005257236305624247,-0.03779169172048569,-0.026768945157527924
1772614445865379600,6.702379638671875,0.015260822139680386,-0.03841833397746086,-0.031113360077142715
1772614445875446500,6.712446533203125,0.028206784278154373,-0.018434014171361923,-0.03622277081012726
1772614445885513500,6.722513427734375,0.028293071314692497,-0.0024217567406594753,-0.030027728527784348
1772614445895580400,6.732580322265625,0.026015566661953926,0.014613606035709381,-0.014198574237525463
1772614445905647600,6.742647705078125,0.013664357364177704,0.024022022262215614,0.015322566963732243
1772614445915714800,6.75271484375,0.0007200636900961399,0.016485808417201042,0.04458404704928398
1772614445925781800,6.76278173828125,-0.004684555344283581,0.02074100822210312,0.06790056079626083
1772614445935848700,6.7728486328125,0.004024981986731291,0.022047851234674454,0.08286509662866592
1772614445945915600,6.78291552734375,0.015603074803948402,0.01750210113823414,0.07576724141836166
1772614445955982600,6.792982666015625,0.029024505987763405,0.009729516692459583,0.06090521812438965
1772614445966048800,6.803048828125,0.03754475712776184,0.002387181855738163,0.04404900223016739
1772614445976115700,6.81311572265625,0.03736746311187744,-0.016486816108226776,0.02291221171617508
1772614445986182700,6.8231826171875,0.024985359981656075,-0.01139858178794384,-0.0029028737917542458
1772614445996249600,6.83324951171875,0.02394256554543972,-0.010986571200191975,-0.03566355258226395
1772614446006316500,6.843316650390625,0.013284862041473389,0.017213642597198486,-0.05636510252952576
1772614446016383700,6.8533837890625,0.011084424331784248,0.04088481515645981,-0.059693094342947006
1772614446026450700,6.86345068359375,0.019198808819055557,0.06230754777789116,-0.0450957752764225
1772614446036517600,6.873517578125,0.021510299295186996,0.05879797413945198,-0.015997223556041718
1772614446046584000,6.883583984375,0.025701316073536873,0.05186470225453377,0.026257289573550224
1772614446056651000,6.893651123046875,0.02003546804189682,0.02643689699470997,0.06695792824029922
1772614446066718200,6.90371826171875,0.008232338353991508,-0.0021497406996786594,0.09866232424974442
1772614446076785200,6.91378515625,0.001177092082798481,-0.01297549158334732,0.10136143863201141
1772614446086851000,6.92385107421875,-0.00025116116739809513,0.004673544317483902,0.08203993737697601
1772614446096918000,6.93391796875,0.006163502112030983,0.027180157601833344,0.04360482841730118
1772614446106985200,6.943985107421875,0.011658402159810066,0.04112100601196289,0.001315426197834313
1772614446117052200,6.95405224609375,0.017396049574017525,0.04744235426187515,-0.03866703435778618
1772614446127119000,6.964119140625,0.02458711713552475,0.04243428260087967,-0.05945434048771858
1772614446137186000,6.97418603515625,0.023193517699837685,0.028805069625377655,-0.06279776245355606
1772614446147253200,6.984253173828125,0.015376340597867966,0.025319524109363556,-0.04871337488293648
1772614446157320200,6.9943203125,0.0006356451194733381,0.018890634179115295,-0.008409027010202408
1772614446167387100,7.00438720703125,-0.016214441508054733,0.0030080743599683046,0.02540726028382778
1772614446177454300,7.014454345703125,-0.020386550575494766,-0.011588308028876781,0.04969443753361702
1772614446187521300,7.024521240234375,-0.015682609751820564,-0.02147768996655941,0.05061269551515579
1772614446197588200,7.034588134765625,-0.00228903884999454,-0.023039376363158226,0.04420870169997215
1772614446207654100,7.044654052734375,0.012507484294474125,-0.02076823264360428,0.026805739849805832
1772614446217721300,7.054721435546875,0.023773422464728355,-0.029950596392154694,0.008950937539339066
1772614446227788300,7.064788330078125,0.03335068002343178,-0.03413175791501999,-0.006206977181136608
1772614446237855200,7.074855224609375,0.02903735637664795,-0.03377258777618408,-0.010605107061564922
1772614446247922200,7.084922119140625,0.01349195372313261,-0.029630575329065323,-0.009159010834991932
1772614446257989000,7.094989013671875,0.0057757459580898285,-0.027284950017929077,-0.00889140460640192
1772614446268056000,7.10505615234375,-0.003402572823688388,-0.026376279070973396,-0.01400440838187933
1772614446278123300,7.115123291015625,-0.005613707937300205,-0.022280704230070114,-0.015139120630919933
1772614446288190200,7.125190185546875,0.006426709704101086,-0.026868531480431557,-0.013438958674669266
1772614446298257200,7.135257080078125,0.016339072957634926,-0.03546380251646042,-0.016678420826792717
1772614446308324000,7.145323974609375,0.022417206317186356,-0.04709888622164726,-0.01320592500269413
1772614446318390000,7.15539013671875,0.02933027409017086,-0.05649567395448685,-0.01386482734233141
1772614446328457200,7.165457275390625,0.026931297034025192,-0.03694034740328789,-0.010727090761065483
1772614446338524200,7.175524169921875,0.027584604918956757,-0.010801895521581173,0.0025903740897774696
1772614446348591000,7.185591064453125,0.016793742775917053,-0.002207075944170356,0.009404604323208332
1772614446358658000,7.195657958984375,0.011756540276110172,0.0017080180114135146,0.017572587355971336
1772614446368725000,7.20572509765625,0.007786831818521023,-0.008729709312319756,0.007761501707136631
1772614446378792000,7.2157919921875,0.0062831100076437,-0.007673243992030621,-0.008024425245821476
1772614446388859400,7.225859375,0.01128212921321392,0.0031234773341566324,-0.01897827349603176
1772614446398926300,7.23592626953125,0.018743906170129776,0.00133097218349576,-0.02699747495353222
1772614446408993300,7.2459931640625,0.01672602817416191,-0.028036771342158318,-0.02597961574792862
1772614446419060200,7.256060302734375,-0.0017479523085057735,-0.05950746685266495,-0.014032955281436443
1772614446429127200,7.266127197265625,-0.008657257072627544,-0.05939241498708725,-0.0020058536902070045
1772614446439193300,7.276193359375,-0.0077101727947592735,-0.04911930114030838,0.00804894044995308
1772614446449260300,7.28626025390625,-0.013508141040802002,-0.03371930494904518,0.01548848021775484
1772614446459327200,7.2963271484375,-0.0176063422113657,-0.009536677040159702,0.022097056731581688
1772614446469394200,7.306394287109375,-0.025392893701791763,0.021328827366232872,0.019020574167370796
1772614446479461000,7.316461181640625,-0.03141546621918678,0.042793747037649155,0.004546415060758591
1772614446489528000,7.326528076171875,-0.027626853436231613,0.04549659043550491,-0.014008360914885998
1772614446499595300,7.33659521484375,-0.016551166772842407,0.03303920105099678,-0.024260465055704117
1772614446509662200,7.346662109375,-0.009974757209420204,0.00485709635540843,-0.025526264682412148
1772614446519729200,7.356729248046875,-0.01482037827372551,-0.018463673070073128,-0.016349544748663902
1772614446529796000,7.366796142578125,-0.016705097630620003,-0.02472929283976555,0.002851046621799469
1772614446539863000,7.376863037109375,-0.021239792928099632,-0.023962507024407387,0.020203616470098495
1772614446549929200,7.38692919921875,-0.022774837911128998,-0.025826452299952507,0.030808057636022568
1772614446559996200,7.39699609375,-0.01286321971565485,-0.022257482632994652,0.03335707634687424
1772614446570063000,7.40706298828125,0.00115113309584558,-0.013984373770654202,0.026073062792420387
1772614446580130000,7.417130126953125,0.02563600055873394,0.0025529786944389343,0.0032967664301395416
1772614446590197000,7.427197021484375,0.04394363611936569,0.012830384075641632,-0.018592022359371185
1772614446600264200,7.43726416015625,0.052750010043382645,0.014259317889809608,-0.02364191971719265
1772614446610331100,7.4473310546875,0.03896256163716316,-0.0027958322316408157,-0.007307689171284437
1772614446620398300,7.4573984375,0.017860831692814827,-0.018295271322131157,0.009786230511963367
1772614446630465300,7.46746533203125,0.00545343104749918,-0.01609496772289276,0.012072553858160973
1772614446640532200,7.4775322265625,0.007527969777584076,0.01604621857404709,0.001052096369676292
1772614446650599200,7.48759912109375,0.01850631833076477,0.040213607251644135,-0.005841229576617479
1772614446660666000,7.497666015625,0.027181368321180344,0.044335607439279556,-0.009936243295669556
1772614446670732300,7.507732177734375,0.027147280052304268,0.03695172816514969,-0.007154038641601801
1772614446680799200,7.51779931640625,0.019355302676558495,0.031315531581640244,0.006692282389849424
1772614446690866200,7.5278662109375,0.012883288785815239,0.023980654776096344,0.011790371499955654
1772614446700933000,7.53793310546875,0.015353398397564888,0.021465089172124863,0.008460430428385735
1772614446711000300,7.548000244140625,0.024069657549262047,0.016611479222774506,-0.0088352020829916
1772614446721067300,7.5580673828125,0.029363963752985,0.004344448447227478,-0.022658269852399826
1772614446731134200,7.56813427734375,0.031118188053369522,-0.0061707766726613045,-0.02665567398071289
1772614446741201200,7.578201171875,0.030064307153224945,-0.02568039484322071,-0.030771404504776
1772614446751268000,7.58826806640625,0.02485623024404049,-0.03626219928264618,-0.027260292321443558
1772614446761335000,7.5983349609375,0.022888952866196632,-0.026351116597652435,-0.03051888197660446
1772614446771402200,7.60840234375,0.027013123035430908,-0.014475547708570957,-0.03431202098727226
1772614446781469200,7.61846923828125,0.022572234272956848,0.004639466758817434,-0.03668960928916931
1772614446791535000,7.62853515625,0.008802358992397785,0.025917591527104378,-0.026837512850761414
1772614446801602000,7.63860205078125,-0.011290496215224266,0.027632655575871468,-0.008742430247366428
1772614446811669000,7.6486689453125,-0.027345363050699234,0.02144373580813408,0.01799464039504528
1772614446821736200,7.658736083984375,-0.02755095809698105,0.014954944141209126,0.03256319835782051
1772614446831803100,7.66880322265625,-0.02286273054778576,0.009542867541313171,0.03306067734956741
1772614446841870000,7.6788701171875,-0.0049885232001543045,0.013714906759560108,0.026430627331137657
1772614446851937000,7.68893701171875,0.00716534536331892,0.00493979174643755,0.012507088482379913
1772614446862004200,7.699004150390625,0.0073705799877643585,0.0021777995862066746,-0.0020543779246509075
1772614446872071200,7.7090712890625,0.007057658396661282,0.012217383831739426,-0.00948859192430973
1772614446882138400,7.719138427734375,0.006518933922052383,0.029118791222572327,-0.010011782869696617
1772614446892205300,7.729205322265625,-0.007591026369482279,0.0444151908159256,-0.005301983095705509
1772614446902271200,7.739271240234375,-0.01547897607088089,0.047660209238529205,0.00023219955619424582
1772614446912338200,7.749338134765625,-0.016554094851017,0.046815987676382065,0.008644326590001583
1772614446922405000,7.759405029296875,-0.004493802785873413,0.048327717930078506,0.010139970108866692
1772614446932472300,7.769472412109375,-0.003669021651148796,0.05420131981372833,0.004478356335312128
1772614446942539300,7.779539306640625,-0.006842778995633125,0.058039773255586624,0.00006403448060154915
1772614446952606200,7.789606201171875,-0.01590631529688835,0.0670926570892334,-0.0008206675993278623
1772614446962673200,7.799673095703125,-0.01831318810582161,0.06440555304288864,0.010298938490450382
1772614446972740000,7.809739990234375,-0.014919789507985115,0.04387311264872551,0.019964881241321564
1772614446982807000,7.81980712890625,-0.0028614532202482224,0.03134170174598694,0.02553585357964039
1772614446992874200,7.829874267578125,0.0009090499952435493,0.01925787329673767,0.02312942035496235
1772614447002941200,7.839941162109375,0.008317666128277779,0.03210490569472313,0.025157615542411804
1772614447013008100,7.850008056640625,0.013453039340674877,0.03522932529449463,0.021055815741419792
1772614447023074000,7.860073974609375,0.008534212596714497,0.02213754877448082,0.020298747345805168
1772614447033141200,7.870141357421875,0.003829206107184291,0.01816331408917904,0.027487684041261673
1772614447043209000,7.880208984375,0.004264701157808304,0.023158034309744835,0.03539181128144264
1772614447053276000,7.89027587890625,0.002246025251224637,0.024546872824430466,0.04664899408817291
1772614447063342800,7.9003427734375,0.0020438246428966522,0.029406510293483734,0.05425596609711647
1772614447073409800,7.910409912109375,0.00032794999424368143,0.020806364715099335,0.05977296829223633
1772614447083476700,7.920476806640625,-0.006367948837578297,0.013561132363975048,0.06301169842481613
1772614447093543700,7.930543701171875,0.00360052939504385,0.003132194047793746,0.06412170827388763
1772614447103611000,7.94061083984375,0.011400370858609676,-0.007426498457789421,0.05607514828443527
1772614447113677800,7.950677734375,0.02102290466427803,-0.0063162269070744514,0.04402647539973259
1772614447123744800,7.960744873046875,0.026167962700128555,-0.0041039190255105495,0.02438214048743248
1772614447133810700,7.970810791015625,0.032118797302246094,-0.00493322778493166,0.010262059047818184
1772614447143877600,7.980877685546875,0.035582512617111206,-0.011802731081843376,0.0024423697032034397
1772614447153944800,7.99094482421875,0.038405194878578186,-0.017328258603811264,0.0067644137889146805
1772614447164011800,8.00101171875,0.04066092520952225,-0.01999763213098049,0.0027717663906514645
1772614447174078700,8.01107861328125,0.042748577892780304,-0.016032451763749123,-0.006639312487095594
1772614447184145700,8.021145751953124,0.03942475467920303,-0.021605411544442177,-0.024219080805778503
1772614447194212600,8.031212646484375,0.03334555774927139,-0.03400349244475365,-0.045949943363666534
1772614447204279600,8.041279541015625,0.028798438608646393,-0.04277252405881882,-0.07480983436107635
1772614447214346800,8.0513466796875,0.026111574843525887,-0.05692669004201889,-0.09897269308567047
