time,seconds_elapsed,z,y,x
1772699650369037800,0.106037841796875,0.05421674335598945,-0.013095514252106658,-0.012385397787950933
1772699650378995000,0.115994873046875,0.08564064014554024,-0.009655940858018583,-0.007759379101006198
1772699650388951800,0.125951904296875,0.08549217158555984,0.013357937181112356,-0.0037577079948823665
1772699650398909000,0.135908935546875,0.05616378577053546,0.014431302033667453,0.007714122607861645
1772699650408866000,0.145865966796875,0.11212824957668781,0.0027338728101458398,0.01627284738027956
1772699650418822700,0.15582275390625,0.05721066447496414,0.004086570627312176,0.005526754360864288
1772699650428779800,0.16577978515625,0.09581775076687335,0.024213294123881495,0.012447617403161712
1772699650438737000,0.17573681640625,0.0495785621613264,-0.004795979271992109,0.0015867668679449705
1772699650448693800,0.18569384765625,0.10419511848986149,0.004003938411734998,-0.012828769057721364
1772699650458651000,0.19565087890625,0.07262041505277156,-0.011692616051086223,0.004613210008543683
1772699650468608000,0.20560791015625,0.09237140970528125,-0.019233998740813694,-0.0024940395972167604
1772699650478564900,0.21556494140625,0.05481295568346977,-0.002881893845554441,-0.0027793393658444984
1772699650488521700,0.225521728515625,0.08878127625882624,-0.003291812653583474,0.013143355998804326
1772699650498478800,0.235478759765625,0.06977730058133602,0.001784846723312512,-0.0005420766956696752
1772699650508436000,0.24543603515625,0.06424070924222469,0.012399951469688676,0.016968871387001126
1772699650518392800,0.255392822265625,0.09371990170478821,-0.00715007268404588,0.015998052451823605
1772699650528350000,0.265349853515625,0.07408347334265708,-0.007537569597712718,0.008559989714319817
1772699650538307000,0.27530712890625,0.08385375672876834,0.01651770268655382,0.0080272779269726
1772699650548263700,0.285263671875,0.06756254714131354,-0.01200410456949612,0.003534083277126774
1772699650558220800,0.295220703125,0.0931453166872263,0.000053766880696639415,0.017281622564024293
1772699650568178000,0.305177978515625,0.0726449649721384,0.005609898603917099,0.008996171479011536
1772699650578134800,0.315134765625,0.10031973836123943,-0.008971716886945069,0.0012098507137969134
1772699650588092000,0.325091796875,0.05092997677028179,-0.006170614926330745,0.0037942314798332516
1772699650598049000,0.335049072265625,0.06993862862288952,-0.0007523755701491609,0.007661293587970431
1772699650608006000,0.345005859375,0.09014028965234756,0.0004332357515348121,0.007532510971749434
1772699650617963800,0.3549638671875,0.07082593285143375,0.00621723054703325,-0.0033646013264587962
1772699650627921000,0.3649208984375,0.08475333591699599,0.016522753321006892,-0.005477771540672984
1772699650637878000,0.3748779296875,0.07712532525658607,-0.0008754904931643977,-0.008219504571933066
1772699650647835000,0.3848349609375,0.07398176653385162,0.013996655209758319,-0.00278380405135249
1772699650657791700,0.394791748046875,0.07458440860211848,-0.0063483963457634665,0.01090062428153469
1772699650667748900,0.404748779296875,0.08206745783388614,-0.007994679415179416,-0.013301002237439387
1772699650677705700,0.414705810546875,0.061118193307518956,0.007499178382661193,-0.0007720228407073591
1772699650687662800,0.424662841796875,0.1054103394985199,0.0004562513009412214,-0.005788134397787507
1772699650697620000,0.434619873046875,0.05961772561669349,-0.0021396241108886894,0.0035931961927431985
1772699650707577600,0.44457763671875,0.07756897737085819,-0.002214095852896571,0.006752747354464372
1772699650717534700,0.45453466796875,0.0666454322963953,0.022359656480676494,0.0011069426097601535
1772699650727491600,0.46449169921875,0.08070785991847515,-0.005855438896780833,0.0012190994598102406
1772699650737448700,0.47444873046875,0.0629027386367321,0.0012383918216917662,-0.018698835843120466
1772699650747405800,0.48440576171875,0.07786825257837772,0.001697652497049421,-0.0001966148402992985
1772699650757363000,0.494363037109375,0.07726853311955928,0.006819886315031908,-0.0008198929858073825
1772699650767319600,0.504319580078125,0.06858955210149288,-0.01085143425290007,-0.005781927277642535
1772699650777276700,0.514276611328125,0.08609773626327515,0.003170195567910559,-0.021348730439040807
1772699650787233800,0.52423388671875,0.07218143911361694,0.016542316538002342,-0.011192961716547142
1772699650797190700,0.534190673828125,0.08519581898748874,-0.004047010368481278,0.0006670305222665774
1772699650807147800,0.544147705078125,0.07098141567409039,-0.007471171564306132,-0.0007429755562639911
1772699650817105000,0.55410498046875,0.0727758978754282,-0.008738323689601384,0.002543114319775486
1772699650827061800,0.564061767578125,0.07472060220241546,-0.006196621583844535,-0.0038182799319343755
1772699650837018600,0.5740185546875,0.08803659537136554,0.008254325865209102,0.015347044622118118
1772699650846975700,0.583975830078125,0.06664017159938812,-0.009631683199596591,-0.009182905102346558
1772699650856932600,0.5939326171875,0.07531856809556484,0.003955235865223221,0.0042480359515946475
1772699650866889700,0.6038896484375,0.07067863333523274,0.003790122131118551,0.02243334277139511
1772699650876846800,0.613846923828125,0.08205226026475429,-0.012272078173165208,-0.012444410524278646
1772699650886803700,0.6238037109375,0.094173490691185,-0.003271358954021707,-0.003183361580982455
1772699650896760600,0.633760498046875,0.06305003815293311,-0.01183055408389773,-0.0005899997845248435
1772699650906717700,0.6437177734375,0.08923720333278179,-0.005327976389997638,-0.005858878671104321
1772699650916674600,0.653674560546875,0.07277648239731788,-0.0015884473683778196,-0.024074082016013562
1772699650926631700,0.663631591796875,0.09327741863429546,-0.008259143604221753,-0.003131915377768746
1772699650936588800,0.6735888671875,0.06245148773789405,0.008179315267084167,-0.012641154655796709
1772699650946546000,0.6835458984375,0.08968494710028171,0.015196774547407402,0.009429161206196295
1772699650956503600,0.693503662109375,0.06798866359889506,-0.010030710720852948,0.0004861118642540532
1772699650966460700,0.703460693359375,0.08714227688014507,-0.007109923336748034,-0.022072777247137854
1772699650976417800,0.713417724609375,0.06544599337875842,0.0031832011799560857,0.012155934130342211
1772699650986374700,0.723374755859375,0.07651976057887076,-0.014886749617010354,-0.0033276186150818826
1772699650996331800,0.733331787109375,0.07831599634587764,-0.005530928783304989,0.0031340688043594127
1772699651006288600,0.74328857421875,0.07203180150985718,0.000964374353014864,0.0033988960362941723
1772699651016245800,0.753245849609375,0.08624562030136584,0.004524788514641114,0.00011017723880650009
1772699651026202600,0.76320263671875,0.0765180070132017,0.005677260185126215,-0.0013015298897546016
1772699651036159700,0.77315966796875,0.08400105624496937,-0.007636317264451645,0.002711136392774642
1772699651046116900,0.783116943359375,0.06799041716456412,-0.0001836768706794828,0.003901806911244057
1772699651056073700,0.79307373046875,0.06858896757960319,0.00944661352285184,-0.004626015262011788
1772699651066030800,0.80303076171875,0.05616963098943233,0.0013125073706731199,0.002258216409946908
1772699651075987700,0.81298779296875,0.08729483709335327,0.004585683822445571,-0.011284638038394041
1772699651085944600,0.822944580078125,0.06514847173690795,0.010038035510783083,-0.011073367624601814
1772699651095901700,0.832901611328125,0.07891337771713733,-0.007644546236679889,-0.003949163744518591
1772699651105858800,0.84285888671875,0.08848843079209327,0.00467623904957436,0.015477430677780648
1772699651115815700,0.852815673828125,0.06993336792588234,0.00793256483124569,-0.006079969509301009
1772699651125772800,0.862772705078125,0.09118132313787937,0.00581517995162867,0.0004038344146480085
1772699651135729700,0.872729736328125,0.07891103962957859,0.0029385559362359345,-0.010544214342586929
1772699651145686500,0.8826865234375,0.07606734063625335,0.0023928179872455073,-0.01669744430927676
1772699651155643600,0.8926435546875,0.06050386080145836,0.006309114648145623,-0.008286411778704495
1772699651165600800,0.902600830078125,0.07546703665554523,0.009953973956522531,0.005467633739148732
1772699651175557600,0.9125576171875,0.084147186717391,-0.006391002511628903,-0.007647714299656217
1772699651185514800,0.9225146484375,0.08758885160386562,-0.008219944104994647,-0.002731504183601646
1772699651195472000,0.932471923828125,0.06663900255560874,-0.006254909376031719,-0.00631393352880259
1772699651205428700,0.9424287109375,0.06439443849921227,-0.012637431753682904,-0.01319031411280157
1772699651215385600,0.952385498046875,0.0854939251512289,-0.004441667675296776,0.006911931958814966
1772699651225342700,0.9623427734375,0.07247545362412929,0.0027681632388150317,-0.012772958633699453
1772699651235299800,0.9722998046875,0.05945581305325031,0.01591434366565663,0.006707257965879398
1772699651245256700,0.982256591796875,0.10105389785468578,0.0012709286846918984,0.004262479750066995
1772699651255213800,0.9922138671875,0.06992986079454422,0.012917719132942146,0.003831607773088035
1772699651265170700,1.002170654296875,0.07711305029690266,0.009078218601876869,0.0012393057079665595
1772699651275127600,1.01212744140625,0.08459551500678061,-0.008080896393908188,0.0034813404513814017
1772699651285085700,1.022085693359375,0.049282209563255304,-0.007583367801085114,0.010519391570228617
1772699651295042800,1.032042724609375,0.07412263630926609,-0.00071562832291238,0.010831777421070728
1772699651305000000,1.042,0.06723930653631686,-0.011570117616001517,-0.009661137622944078
1772699651314956500,1.05195654296875,0.07217617841660975,0.0022605379436630756,-0.01176564018810168
1772699651324913700,1.06191357421875,0.08025602449774742,0.012463207697938196,0.007793830501523916
1772699651334870800,1.071870849609375,0.07561667425930499,-0.007390142217348329,-0.00006251758437720128
1772699651344827600,1.08182763671875,0.08668985693752765,0.01042566028861329,-0.006302929790064808
1772699651354784800,1.09178466796875,0.08998305326402187,0.0073965628249803555,-0.010729983847297262
1772699651364742000,1.101741943359375,0.07906009271144866,0.015269935681740752,-0.007194933026612852
1772699651374698800,1.11169873046875,0.07172726560533046,0.0017361670096870511,0.003922008878234191
1772699651384655600,1.121655517578125,0.0880383489370346,-0.010067681730375625,-0.002849766832863679
1772699651394612700,1.13161279296875,0.06215104348659515,-0.013725153925153426,-0.0033070878545287995
1772699651404569600,1.141569580078125,0.08579320035874843,-0.005564986316533759,-0.0074444296878529706
1772699651414526700,1.151526611328125,0.060953942656517025,-0.0013938381117302924,-0.008140274456416954
1772699651424483800,1.16148388671875,0.0681359631150961,0.0005475828462047502,0.003777035462326603
1772699651434440700,1.171440673828125,0.058708209556341165,-0.004470172250573523,0.0041111496586090646
1772699651444397600,1.1813974609375,0.0712771837502718,-0.012804372118692845,0.0020846025630889926
1772699651454354700,1.191354736328125,0.07591536494493484,0.0026417512470157814,-0.003077140710552339
1772699651464311800,1.201311767578125,0.07995674929022789,0.010369432022771798,0.007296216856199317
1772699651474268700,1.2112685546875,0.07307400403916835,-0.009457313013379461,-0.00033474495476693846
1772699651484225800,1.221225830078125,0.05811024366319179,0.012690710010612383,0.015984205447917336
1772699651494183000,1.231182861328125,0.07681552865505219,-0.0016632935697212814,-0.0043620533964684
1772699651504139800,1.241139892578125,0.06888415113389491,-0.006437599866022356,-0.003230662759096594
1772699651514096600,1.2510966796875,0.08893559003770352,-0.0050652703332016245,-0.006965774758858605
1772699651524053800,1.2610537109375,0.07681552865505219,-0.0007111576437717303,0.004881286931023351
1772699651534010600,1.2710107421875,0.06514321103990077,-0.009369022808573208,0.002353784597266349
1772699651543967700,1.2809677734375,0.06170096163153648,-0.012049471231317147,-0.007090825910633429
1772699651553924900,1.2909248046875,0.07442074247300624,-0.0030426282320637254,0.008221513295106706
1772699651563881700,1.3008818359375,0.07247428458034992,0.0010839136460330336,0.016514208113303175
1772699651573838600,1.310838623046875,0.08369768938422202,-0.0057305704080965365,0.0017556879858428146
1772699651583795700,1.320795654296875,0.05945698209702968,0.004194063289510086,-0.01143146263055969
1772699651593752600,1.330752685546875,0.06723930653631686,0.004010295087285339,0.011428081080096308
1772699651603709700,1.340709716796875,0.08429799336493014,0.0002707751988200471,0.016015171408338937
1772699651613667800,1.350667724609375,0.07935995244085789,0.007143469413323327,0.011679380968533222
1772699651623624700,1.360624755859375,0.07412146726548671,-0.006225057660462334,0.016056191830249734
1772699651633581600,1.37058154296875,0.07621639371812343,0.00491171003957279,0.009641567556082736
1772699651643538700,1.38053857421875,0.09297580533921718,-0.00584836070202291,0.013914766204630722
1772699651653495800,1.390495849609375,0.06649111851751804,-0.007098529726476408,0.00772340988437063
1772699651663452700,1.40045263671875,0.07786416092514992,-0.007260369224683381,-0.009648001863446552
1772699651673409800,1.410409912109375,0.06529518673121928,-0.0019681308683473617,0.001404852696089074
1772699651683366700,1.42036669921875,0.06798866359889506,0.006126405891845934,-0.0050705230386985925
1772699651693323500,1.430323486328125,0.06245207225978374,0.005101318894117139,-0.011186702080763644
1772699651703279900,1.44027978515625,0.07172960369288921,0.004411190338642336,-0.007158193770886282
1772699651713236700,1.45023681640625,0.08474865974187851,0.002217950044106692,-0.001827946079522371
1772699651723193900,1.46019384765625,0.07547171283066273,-0.01099578832676634,0.004119455121006467
1772699651733151000,1.47015087890625,0.07951192813217639,-0.005637284367764369,0.019836990152241194
1772699651743107800,1.48010791015625,0.05826397292017936,0.008362608545273542,0.013018073093233396
1772699651753065000,1.49006494140625,0.06499766508936881,0.01701019891123287,0.0005255222822685027
1772699651763021800,1.500021728515625,0.056018824341893196,-0.00663460657573305,0.001062381092592841
1772699651772978700,1.509978759765625,0.08280395541489124,0.010846031991997733,0.0026537887446815146
1772699651782935800,1.519935791015625,0.08325228370428085,0.008267628304776736,0.0036283676854131043
1772699651792893000,1.529892822265625,0.07891220867335796,0.011963971205218695,-0.003559945516634616
1772699651802850000,1.53985009765625,0.059010407373309134,-0.004613453178782947,-0.008647731929854489
1772699651812807000,1.549806884765625,0.0591600449770689,-0.007722333313780836,-0.00762800723547698
1772699651822764000,1.559763916015625,0.07786532996892928,-0.010355508528696373,0.0014107093314290977
1772699651832721000,1.569720947265625,0.07711655742824078,0.0010098346296697855,0.015384348991781007
1772699651842677800,1.579677734375,0.0673906977057457,-0.005700179836410097,0.009865716859401436
1772699651852635000,1.589634765625,0.06963526176214217,-0.00763994769337587,-0.01353496625694097
1772699651862592000,1.599592041015625,0.0477881716132164,-0.008815284216217696,-0.008822550211465567
1772699651872548900,1.609548828125,0.06454641419053077,0.004272051296010613,-0.0022138543951237804
1772699651882506000,1.619506103515625,0.08519640350937843,-0.006376882654731161,-0.003936127593487618
1772699651892462800,1.629462890625,0.06634206543564795,-0.0022772424832917747,0.005034291243870393
1772699651902419700,1.639419677734375,0.07607026324570179,-0.0046274497380945825,0.007909952282282756
1772699651912376800,1.649376953125,0.07621931632757187,0.0073534223695751275,-0.004264765892809373
1772699651922334000,1.659333984375,0.0669417848944664,-0.01163964832141064,-0.006856941235411795
1772699651932290800,1.669290771484375,0.057065118524432176,0.00042777869170531626,-0.015431791162968146
1772699651942248000,1.679248046875,0.07606909420192241,0.0002558561909012496,0.0064028499255160565
1772699651952205000,1.689205078125,0.07382453014552592,-0.005776103749987669,0.00357250931232993
1772699651962161700,1.69916162109375,0.09058394176661967,-0.016018594057997687,-0.00449139427675982
1772699651972119800,1.709119873046875,0.07277648239731788,0.00717597887685988,-0.005006171973550226
1772699651982077000,1.719076904296875,0.0682879388064146,0.019003733648895287,0.004434554089565062
1772699651992034000,1.729033935546875,0.0726274293154478,-0.0013737269054632632,0.002674676269083284
1772699652001991000,1.738990966796875,0.06409867042303084,0.003159345380333252,0.00916323342914111
1772699652011947800,1.74894775390625,0.04973346046209335,0.0038540953119983895,-0.010294291277194861
1772699652021905000,1.75890478515625,0.06888707374334335,-0.0016082800134317949,0.0018259607600572053
1772699652031861800,1.76886181640625,0.06933657107651234,0.006004514811537228,-0.00634115889162349
1772699652041819000,1.77881884765625,0.07008534361720084,-0.014526944427867419,0.019597174063976854
1772699652051776000,1.78877587890625,0.08340309035181999,0.0022352299724705516,-0.0105680438843905
1772699652061733000,1.798733154296875,0.07143091300725936,0.0067830660025589165,0.006131983395150746
1772699652071689700,1.808689697265625,0.08504793494939804,0.00392314652679488,0.021961622189974876
1772699652081646800,1.818646728515625,0.06694236941635608,0.012915097917593083,-0.0008197354388918028
1772699652091604000,1.82860400390625,0.07592004112005234,0.010448429242847487,0.0040112084027379745
1772699652101560800,1.838560791015625,0.06065700553655624,0.015166374842566437,0.00048223626721301114
1772699652111518000,1.84851806640625,0.06978489936590195,0.005171415855106897,0.002185401764663402
1772699652121475000,1.85847509765625,0.09208207136988639,0.01239729828829877,-0.001435060604684986
1772699652131432000,1.868431884765625,0.08070961348414421,0.009899069998087361,-0.00448797676450049
1772699652141388800,1.878388916015625,0.06993570601344108,-0.006822133071045391,-0.0076231718009774335
1772699652151346000,1.888345947265625,0.08011164759099483,-0.008816923617455176,-0.00787072823770286
1772699652161302800,1.898302734375,0.07502338454127311,-0.005143418169906363,0.013051603186788269
1772699652171260000,1.908260009765625,0.07621990084946155,-0.004333503726241178,0.012764910041273106
1772699652181217000,1.918217041015625,0.07457271816432476,-0.0011113222427666187,0.010422968291316646
1772699652191174000,1.928173828125,0.07068214046657086,0.012183354143518954,0.004198326760207419
1772699652201130800,1.938130859375,0.0652946022093296,0.0016179931232705711,0.003929929035675013
1772699652211088000,1.948087890625,0.07546995926499367,0.00707440906537231,-0.0012051671179913682
1772699652221044700,1.958044677734375,0.09192892663478851,-0.000778907384048216,-0.0016739542443421668
1772699652231001900,1.968001953125,0.08220248239040374,-0.005916758896270766,0.009412400155173964
1772699652240959000,1.977958984375,0.0814548788934946,-0.0020425386782735584,0.00424706070193788
1772699652250916000,1.987916015625,0.059757426348328584,0.0075726865768665445,-0.006991507992558763
1772699652260873000,1.997873046875,0.07352350137233733,0.006601234029093757,-0.007807902409360395
1772699652270829800,2.007829833984375,0.08145370984971523,-0.0033416477112565186,-0.007933109966406482
1772699652280787000,2.017786865234375,0.07082885546088219,-0.0006677660266170278,-0.009515696703689172
1772699652290743800,2.027743896484375,0.08070435278713703,0.004009774497477338,0.000014261420792900025
1772699652300701000,2.037700927734375,0.0691810882538557,0.002509923294582404,-0.002075578435594798
1772699652310658000,2.047657958984375,0.06663666446805,-0.00275579694758635,0.014975341215915977
1772699652320615000,2.057614990234375,0.06648702686429023,-0.011799693154753186,-0.013143069446081061
1772699652330572800,2.06757275390625,0.07471709507107734,-0.000996153164189309,0.006824516824376769
1772699652340530000,2.077530029296875,0.05481470924913883,-0.013910260134516282,-0.006061579331840039
1772699652350487000,2.087487060546875,0.0627455022484064,-0.008532868811953812,0.003307018785047694
1772699652360444000,2.09744384765625,0.08234919738471508,-0.012539688733941875,0.012920137135603
1772699652370401000,2.107401123046875,0.05646189193427562,-0.001415438022185117,-0.005267432708642445
1772699652380358000,2.11735791015625,0.06708616180121899,-0.0008040966242318972,-0.007550002104311716
1772699652390314800,2.127314697265625,0.08085223682522773,0.011061542472778818,0.0011956652123510138
1772699652400272000,2.13727197265625,0.07995558024644851,0.0010388826276408508,0.012096251248801126
1772699652410229000,2.14722900390625,0.07501637027859688,-0.0019871049968758596,0.017417482804181053
1772699652420185900,2.157185791015625,0.07412029822170733,0.0083901815387886,-0.0003958177882625023
1772699652430143000,2.16714306640625,0.05062777895331382,0.013752037365501745,-0.017254790497670182
1772699652440099800,2.177099853515625,0.05781096845567226,0.007678507871786132,0.0038252716471353777
1772699652450056700,2.187056640625,0.0633469752728939,0.004859915920253843,-0.004601707942062057
1772699652460013800,2.197013916015625,0.06978139223456382,0.009248309905198402,0.004555779591237661
1772699652469971000,2.206970947265625,0.07546703665554523,0.003080325327371247,0.0162835263212095
1772699652479928000,2.216927978515625,0.06499240439236163,-0.010029222016665153,0.013917442218906943
1772699652489885000,2.226885009765625,0.0753162300080061,0.0014334120702929793,0.013277711551752872
1772699652499842000,2.236842041015625,0.08160100936591624,0.004559247906669043,0.0034442193156311984
1772699652509799000,2.246798828125,0.07232289341092109,-0.008281876025837846,0.002873388024579617
1772699652519755800,2.256755859375,0.08174889340400696,-0.006083662728662603,-0.011502479756867977
1772699652529713000,2.266712890625,0.07217091771960259,-0.00018501031124033032,-0.012633390332804991
1772699652539670000,2.276669921875,0.06932721872627735,-0.0024654722315026445,0.011745244712400016
1772699652549627000,2.286626953125,0.06857903070747852,-0.01133695274752099,-0.001964546676017926
1772699652559584000,2.296583984375,0.07232055532336235,-0.0092165630600648,0.006623429307059268
1772699652569540900,2.306540771484375,0.06768178960680961,-0.0036065639914479104,0.010313526842271676
1772699652579497700,2.316497802734375,0.07112345449328422,-0.006201877714274451,0.0052310108300356655
1772699652589454800,2.326454833984375,0.0763613551467657,-0.0004613019353942945,0.0014729980161209823
1772699652599412000,2.336411865234375,0.08234685929715634,-0.0005607756879180669,-0.024083587346586863
1772699652609368800,2.346368896484375,0.0706757107257843,0.008401182423415593,0.003291176757699577
1772699652619326000,2.356325927734375,0.06483984417915344,0.0019439736746251581,-0.0018894270508608313
1772699652629283000,2.366282958984375,0.06708499275743961,0.009379525936278514,-0.006353018863598117
1772699652639239700,2.37623974609375,0.07561492069363594,-0.004269083020789549,-0.010878746951511128
1772699652649196800,2.38619677734375,0.06723521488308906,0.005817801166977733,-0.01111427730701398
1772699652659154000,2.39615380859375,0.07426818225979805,0.0009719731375807895,0.001732102755922824
1772699652669111000,2.406111083984375,0.06499065082669257,-0.004460628104093484,-0.011312117417075204
1772699652679068000,2.41606787109375,0.0657388388454914,0.0008092431568074971,-0.0005101620288216509
1772699652689025000,2.42602490234375,0.08189794648587703,0.012082560650166123,0.006823918031933135
1772699652698982000,2.43598193359375,0.0889314983844757,-0.010176133373798801,-0.0031379332703683756
1772699652708939300,2.445939208984375,0.07666004583239555,-0.016488969782413914,-0.0025996930704219267
1772699652718896000,2.455896240234375,0.06977613153755664,0.020207885274267753,0.00487445761472627
1772699652728854300,2.465854248046875,0.08099895181953906,0.011948385477019473,-0.00012278042123070918
1772699652738811100,2.47581103515625,0.06708207014799118,-0.0062413375084055586,0.0024429219021549213
1772699652748768300,2.485768310546875,0.07875497228503227,-0.002333694511419162,0.019857571715966332
1772699652758725000,2.49572509765625,0.07097381688952445,0.005954848717222921,0.004724202952213818
1772699652768682200,2.50568212890625,0.06887889043688773,0.002194610267714597,0.0057329404616961255
1772699652778639400,2.515639404296875,0.0781564218699932,0.004343659794074483,0.006616795782762346
1772699652788596200,2.52559619140625,0.08279518758654594,-0.005705700828321278,-0.0034502797344815915
1772699652798553300,2.53555322265625,0.06798048029243946,0.004438694833498448,-0.006589518475125078
1772699652808510200,2.54551025390625,0.07037409743070602,0.0022644195343367755,0.00016131491264386567
1772699652818467000,2.555467041015625,0.05585983438789844,0.0077696156547637655,-0.006710522497800411
1772699652828424200,2.565424072265625,0.08114858942329883,0.005601966459210962,0.004791976096198777
1772699652838381300,2.57538134765625,0.07755670241117477,0.0014729312299285083,0.004621556570136453
1772699652848338200,2.585338134765625,0.0762087949335575,0.006157623014017008,0.004993790840945439
1772699652858295300,2.59529541015625,0.08892857577502727,0.004728859719377942,-0.007636196820976328
1772699652868252200,2.605252197265625,0.06723053870797156,-0.005351745424652472,0.01248520946719218
1772699652878209000,2.615208984375,0.08069792304635047,0.014812588402256369,-0.014691651736595666
1772699652888166100,2.625166259765625,0.07426292156279087,0.0008280117893591523,0.005668752080862759
1772699652898123300,2.635123291015625,0.08428805649280548,-0.006669061401183717,-0.012399306440650251
1772699652908080400,2.645080322265625,0.07545885334908962,-0.011587712638196536,0.01164252298179781
1772699652918037200,2.655037353515625,0.06947276467680931,-0.005709934045444242,-0.0006149872390757081
1772699652927994400,2.664994384765625,0.07620704136788845,-0.005342845165566541,0.00018078508562757633
1772699652937951200,2.674951171875,0.07845160542428493,-0.00279441192492377,0.011729148669191636
1772699652947908000,2.684908203125,0.0751595781415701,-0.0036936349201248954,0.009718061150173889
1772699652957865200,2.694865234375,0.07276479195952415,0.00929928660718724,-0.0026480525528168072
1772699652967822300,2.704822265625,0.07321370477080345,0.003938910351507365,-0.0005266930385143495
1772699652977779200,2.714779296875,0.0534609565526247,-0.00037869255270343274,0.008674296851438702
1772699652987736300,2.724736328125,0.056304071024060244,0.005361093208310194,-0.004210658802106627
1772699652997693200,2.734693115234375,0.0783002142548561,-0.005362449481757357,0.0003998495051637292
1772699653007650000,2.744650146484375,0.07470891176462173,0.0011213869790546594,-0.010190840035874862
1772699653017607200,2.754607177734375,0.06602934622466564,-0.005083490976481698,-0.002435434427909786
1772699653027564300,2.764564208984375,0.07530687765777111,0.0035799956449307497,-0.006996618563338415
1772699653037521200,2.774521240234375,0.07665361609160899,0.004813008038606494,-0.0013317332317732506
1772699653047478300,2.784478271484375,0.061540802633762354,0.008934636279568076,-0.010462699796794914
1772699653057435400,2.794435302734375,0.07261398531198501,0.012527464006608351,-0.0030252175854257072
1772699653067392300,2.804392333984375,0.09356383436024189,-0.008853565833414904,0.008031533976981881
1772699653077349000,2.81434912109375,0.07321253572702408,-0.014827950368169694,-0.0017450044783356132
1772699653087306200,2.82430615234375,0.07934650843739509,-0.017520637217978946,-0.0017141190038382774
1772699653097263400,2.834263427734375,0.06183890879750251,-0.004160229518567211,-0.001415033309275168
1772699653107220200,2.84422021484375,0.06423427950143813,-0.0006280413710046559,0.009869722889305557
1772699653117178000,2.85417822265625,0.08727847048044204,0.012218936913553625,-0.01678735907394439
1772699653127135200,2.86413525390625,0.07755144171416758,0.009712516183732077,-0.009014655842128558
1772699653137092000,2.874092041015625,0.0714162999600172,-0.005721848245523869,-0.009663101251167245
1772699653147049200,2.88404931640625,0.07530629313588141,0.0019032672049012034,0.001704695300833555
1772699653157006300,2.89400634765625,0.0866787510216236,0.002993414228898473,-0.010729746385279577
1772699653166963500,2.90396337890625,0.07365969497263432,-0.012201474322099238,0.00938349828767532
1772699653176920000,2.913920166015625,0.08458440909087657,0.004738750925729982,0.010146752015687524
1772699653186877200,2.923877197265625,0.07560556834340094,0.006710229095211252,-0.003870310657037771
1772699653196834300,2.933834228515625,0.07530629313588141,-0.011960322509985416,0.007893617064590215
1772699653206791200,2.943791259765625,0.09535773203969002,-0.009162718547554686,-0.004667999231725116
1772699653216748300,2.953748291015625,0.06647825903594494,0.0012566992299398406,-0.013365472033596597
1772699653226705400,2.963705322265625,0.07171615968942642,-0.008792259533656761,0.0014471500471670879
1772699653236662300,2.973662353515625,0.06513210512399673,-0.0023381058250553904,0.010629409549653064
1772699653246619100,2.983619140625,0.06737608465850353,0.003142257248214446,0.006806448590612853
1772699653256576300,2.993576171875,0.07515724005401134,0.0009922076414339244,-0.003360763974502333
1772699653266533000,3.003533203125,0.07530687765777111,0.02497031846968457,-0.00435929004640202
1772699653276490200,3.013490234375,0.06991992392241954,-0.005670145457750186,0.004187317884070217
1772699653286447400,3.023447265625,0.07904781775176524,-0.008974356368603184,0.0024924995190347544
1772699653296404200,3.033404296875,0.07276303839385509,0.004057741825049743,0.0005580380248487927
1772699653306361000,3.043361083984375,0.061840077841281885,-0.013858781109028495,0.007610525236069224
1772699653316318200,3.053318115234375,0.06602934622466564,-0.011260777672193944,0.00704495806695777
1772699653326275300,3.063275390625,0.08772621424794197,-0.002243961268197745,0.006692273313412442
1772699653336232200,3.073232177734375,0.07425999895334243,-0.004547895395592786,-0.003379035991776618
1772699653346189300,3.083189208984375,0.08234042955636978,0.004740015867631882,-0.0009647362542629707
1772699653356146400,3.093146484375,0.06722644705474376,-0.0005080728197237477,-0.004864514463557862
1772699653366103300,3.103103271484375,0.06617898382842541,0.00821527706303168,0.004928411154268542
1772699653376060200,3.11306005859375,0.07994564337432385,-0.007189372647972777,-0.007529519863642053
1772699653386017300,3.123017333984375,0.049719431936740874,-0.012541985722305252,0.0025123812547943086
1772699653395974100,3.13297412109375,0.06887246069610119,0.00043479752095881846,0.00287063209520129
1772699653405931300,3.14293115234375,0.06453355470895766,-0.005752878138027153,0.004720071912257117
1772699653415888400,3.152888427734375,0.08742927712798118,-0.0014973441519774496,-0.005496925478181219
1772699653425845200,3.16284521484375,0.07396247731149196,0.011417552836216054,-0.010211132763588102
1772699653435802000,3.172802001953125,0.07216682606637477,-0.013403191961790434,-0.005129966174933361
1772699653445759200,3.18275927734375,0.0751595781415701,-0.018320756353414618,0.00012945675718947314
1772699653455716000,3.192716064453125,0.06812602624297141,0.003689082042593509,-0.009945016615220811
1772699653465673200,3.202673095703125,0.09491174183785915,0.0048519472429296,-0.00002887760755693307
1772699653475630300,3.21263037109375,0.0824918207257986,0.004149954719725065,0.0008478350158475222
1772699653485587200,3.222587158203125,0.06872516117990017,0.0007329265175852924,-0.01641771747737657
1772699653495544300,3.23254443359375,0.07007248413562774,0.007377963155787438,-0.004206871967911138
1772699653505501200,3.242501220703125,0.07785305500924587,-0.0064797996065113685,-0.0009395778384758159
1772699653515458300,3.252458251953125,0.08802841206490992,-0.009822858390142209,-0.002908036644152889
1772699653525415200,3.262415283203125,0.06453589279651642,-0.006182647857419215,0.0068090252818336005
1772699653535373300,3.272373291015625,0.07680559178292751,-0.009075464955787173,-0.005163867302890867
1772699653545330200,3.282330078125,0.08129471989572047,0.011053423098404892,0.002227604644674284
1772699653555287000,3.292287109375,0.07979892838001251,0.008488317284174263,-0.012599017705745064
1772699653565244200,3.302244140625,0.07590776616036891,0.016763174480758605,0.005734924068694818
1772699653575201300,3.312201171875,0.06408639546334743,-0.004484123144112527,0.008707603753529837
1772699653585158400,3.322158447265625,0.05615560246407986,0.002687599682738073,-0.0053138628121436335
1772699653595115300,3.332115234375,0.07426175251901149,0.008518232931825331,-0.0030404916447267167
1772699653605072400,3.342072265625,0.058549804124236104,-0.0007500100831268354,0.006761061379194143
1772699653615029200,3.352029296875,0.08099661373198032,-0.0004408208363689482,0.0013422263700907933
1772699653624986000,3.361986083984375,0.07740472671985625,-0.007988181175733916,-0.004023880940054368
1772699653634943200,3.371943115234375,0.0815945796251297,-0.0018853662220295517,-0.012188000635884235
1772699653644900400,3.381900390625,0.06842647049427032,-0.00681489961266052,-0.00391045401070296
1772699653654857200,3.391857177734375,0.05974865851998329,-0.008316294318670406,-0.004340049343925784
1772699653664814300,3.401814453125,0.08234452120959758,-0.005548208711668849,-0.013259950991132063
1772699653674771200,3.411771240234375,0.09431494498848915,0.0020082208501407874,0.009051230701073654
1772699653684728000,3.42172802734375,0.08099661373198032,-0.003568501569959335,-0.00830468379597878
1772699653694685200,3.431685302734375,0.06752864487171173,0.0033251623673364516,-0.005307643704733345
1772699653704642300,3.441642333984375,0.07426175251901149,-0.0008254088403191417,0.01724686291954131
1772699653714599200,3.45159912109375,0.066480012601614,-0.007564809231087565,0.015391552767413667
1772699653724556300,3.461556396484375,0.07545826882719993,-0.012791435005306266,-0.010330275906028691
1772699653734513200,3.47151318359375,0.07082008763253689,-0.01413809124075342,-0.005701649703466682
1772699653744470000,3.481469970703125,0.0699216774880886,0.001229505262337625,-0.014654831424122675
1772699653754427100,3.49142724609375,0.08907529076933861,0.006661736611253581,0.0041845231387851525
1772699653764384000,3.501384033203125,0.07740355767607689,-0.007077875097515061,-0.000027414590366242917
1772699653774341000,3.511341064453125,0.05046820447742939,0.0030286682053701952,-0.0032174094102345404
1772699653784298200,3.52129833984375,0.06543196485340595,0.006635259596281685,-0.0017474299016845178
1772699653794255000,3.531255126953125,0.07351297997832298,-0.003976653112587518,0.01576829995820299
1772699653804212000,3.5412119140625,0.07471008080840111,-0.0034285725094610822,-0.0004633974235359346
1772699653814169000,3.551169189453125,0.06977262440621852,-0.01135118676885031,-0.0012670910473243566
1772699653824126000,3.5611259765625,0.06139174955189228,-0.0018403215039055794,0.001920203783737088
1772699653834083000,3.5710830078125,0.06333703840076924,-0.0060312429882586,-0.01250325201395899
1772699653844040200,3.581040283203125,0.08024550310373306,-0.0017628358209040014,-0.011582568388909566
1772699653853997000,3.5909970703125,0.07396013922393321,-0.01286996643450111,-0.003273993298280402
1772699653863954200,3.6009541015625,0.07201426585316657,-0.009401504872646183,0.008762665829702745
1772699653873911000,3.6109111328125,0.07949614604115486,-0.002077290331246331,-0.01042413733509602
1772699653883868200,3.6208681640625,0.07605506567656993,0.0069301097904331975,-0.004879423196677816
1772699653893825000,3.630824951171875,0.08323942422270775,-0.0072298462222563096,-0.0048952075709879864
1772699653903782100,3.6407822265625,0.06902385186553,-0.005118904783157631,-0.015232273977407021
1772699653913739300,3.6507392578125,0.07141805352568625,0.0015999368767719716,-0.005317058274583541
1772699653923696000,3.660696044921875,0.08024667214751244,0.0038039360273396596,0.0036160718907209226
1772699653933654000,3.670654052734375,0.07426233704090118,-0.0066061157001880925,-0.009434875135996845
1772699653943610000,3.680610107421875,0.0729150140851736,-0.0008630283038131892,0.0034764616343978556
1772699653953568300,3.690568359375,0.08458674717843533,0.0009511084460653365,0.0009365402083625667
1772699653963525000,3.700525146484375,0.05869885720610618,0.004344276282005012,0.0015680347680114208
1772699653973482200,3.710482177734375,0.060195233243703836,-0.013820367061090655,0.005362178341232356
1772699653983439000,3.720439208984375,0.07560849095284938,0.007594829910015687,-0.004974629482749151
1772699653993396000,3.73039599609375,0.07516016266345978,0.015230681383586488,0.003336079341106233
1772699654003353000,3.74035302734375,0.0841384188890457,0.0008878248183522373,0.0008819476334145292
1772699654013310200,3.750310302734375,0.08054711639881133,-0.006633862223639152,0.01951072418980766
1772699654023267000,3.76026708984375,0.07919979344308375,-0.005063836427940987,-0.0011168940378498517
1772699654033224200,3.77022412109375,0.07635609444975852,-0.01584178075294476,-0.013809336493711452
1772699654043181000,3.78018115234375,0.06049450845122337,0.005405073913931847,0.004053839684778358
1772699654053138000,3.790137939453125,0.0637871202558279,-0.008178091424377634,-0.009880287665803917
1772699654063095000,3.800094970703125,0.08473638478219508,-0.004660100765526295,-0.0033733677277487002
1772699654073052200,3.81005224609375,0.066480012601614,-0.002668803650722839,-0.002719771219557151
1772699654083009000,3.820009033203125,0.06318856984078884,0.014022301107668318,-0.005662490161790629
1772699654092966100,3.829966064453125,0.06483458348214625,-0.004923943900060839,0.0008468483497475972
1772699654102923300,3.83992333984375,0.07426233704090118,0.0012650697660632432,-0.0032241907774703577
1772699654112879900,3.8498798828125,0.08563421040475368,0.007203880663937888,0.010307493252062703
1772699654122837000,3.8598369140625,0.07441080560088158,0.0055666257177712395,0.006720459369925083
1772699654132794000,3.869794189453125,0.07186696633696556,0.00034963085500057785,-0.005911347502213902
1772699654142751200,3.879751220703125,0.06363806717395783,0.0048546323903603476,-0.012608678299945313
1772699654152708000,3.8897080078125,0.08054711639881133,-0.010635476247547194,-0.00844926619870821
1772699654162665200,3.899665283203125,0.06812661076486111,-0.0040406262934673575,-0.014694807241484522
1772699654172622000,3.9096220703125,0.06423544854521751,0.00046839839646127074,-0.0011391264192556264
1772699654182579000,3.919578857421875,0.0712684159219265,0.0077390150205232195,-0.00044216341008432205
1772699654192536000,3.9295361328125,0.07186638181507587,0.005597125887311994,-0.004248972385344677
1772699654202493200,3.9394931640625,0.07860124302804469,0.005473421875829808,-0.01608619766780175
1772699654212450000,3.949449951171875,0.07426175251901149,-0.006513624244299717,-0.0061068341125181174
1772699654222407200,3.9594072265625,0.07620645684599876,-0.013899610876338555,0.005684920047663035
1772699654232364300,3.9693642578125,0.06782733555734158,-0.002532801846670918,0.01286685887867352
1772699654242321000,3.97932080078125,0.07141922256946563,-0.004373968167370185,-0.00926940920462075
1772699654252278000,3.989278076171875,0.07860182754993439,-0.023112812935537658,0.004038213999028085
1772699654262235100,3.999235107421875,0.07755436432361602,-0.00708947420376353,-0.01976011410730425
1772699654272192000,4.00919189453125,0.04672901794910431,-0.009584948847885242,-0.010129066803591559
1772699654282149000,4.019149169921875,0.07276537648141383,0.011404099699598736,-0.010273490517761092
1772699654292106200,4.029106201171875,0.08264262737333775,0.007826542606926523,0.0062958167751552534
1772699654302063000,4.03906298828125,0.07022270626127719,0.0074796790977474294,-0.008034329293089103
1772699654312020000,4.04902001953125,0.06947510276436805,0.004851522551244125,0.0029011693681823087
1772699654321977000,4.05897705078125,0.06573357814848423,-0.0024065816511167214,0.003228812153660692
1772699654331934200,4.068934326171875,0.0784527744680643,0.004595259934966452,0.0062614104695880085
1772699654341891000,4.07889111328125,0.07620762588977813,-0.004616247924068011,0.01834750279644504
1772699654351848200,4.08884814453125,0.06543371841907501,-0.00447558821120765,-0.003748039409171906
1772699654361805300,4.098805419921875,0.05899988597929477,-0.0068897047148086124,0.00575818564245128
1772699654371762000,4.108761962890625,0.06603285335600376,-0.009888196977623737,0.0010771825111471115
1772699654381720000,4.118719970703125,0.06079612174630165,0.005004539422178641,-0.00991554392556427
1772699654391677200,4.12867724609375,0.07261749244332313,-0.0009602187677053734,0.0019271646745415635
1772699654401634300,4.13863427734375,0.07171908229887484,0.002982075417554006,-0.006732988916290924
1772699654411591200,4.148591064453125,0.07022212173938751,-0.0017485470006475224,-0.0034613308514584787
1772699654421548000,4.158548095703125,0.08608429225981235,-0.00024342596759088336,-0.016292991694231748
1772699654431505200,4.168505126953125,0.07935118461251259,-0.005406603717315011,0.000432637529913336
1772699654441462000,4.1784619140625,0.07755670241117477,0.011839860768360085,0.0003241470705834217
1772699654451419100,4.188419189453125,0.06289163272082805,-0.005655810971721075,-0.004346525321307126
1772699654461376300,4.198376220703125,0.06468669944405556,-0.012359167368151246,-0.0014386716256558428
1772699654471333000,4.2083330078125,0.07336568046212195,-0.010754590848879888,0.005211008079978637
1772699654481290000,4.2182900390625,0.0875812528192997,0.008155176339671015,-0.01227757176561281
1772699654491247000,4.2282470703125,0.0800999571532011,-0.00019591529774479568,-0.00023881429537723304
1772699654501204000,4.238203857421875,0.08399111937284469,0.013254568138183093,0.01004824523589923
1772699654511161000,4.2481611328125,0.07321779642403126,0.00678673753067851,0.0065825727111077864
1772699654521118200,4.2581181640625,0.06932721872627735,0.009298108430253341,0.001607091561699053
1772699654531075000,4.268074951171875,0.05750526350736618,0.012184961578715592,-0.0006367104471166385
1772699654541032200,4.2780322265625,0.08429039458036422,0.00966914739946369,-0.005900935135231702
1772699654550989000,4.287989013671875,0.07516250075101852,-0.0012244683276163414,0.00045775256321649066
1772699654560946000,4.29794580078125,0.07022387530505657,-0.004855687269708141,-0.005330506844623596
1772699654570903000,4.307903076171875,0.0792027160525322,0.0052158988842274994,0.025000156485522163
1772699654580860200,4.317860107421875,0.07561141356229782,-0.003428851070674136,0.012068999057338806
1772699654590817300,4.3278173828125,0.08234569025337696,0.006209750493476167,-0.006998220290313474
1772699654600774100,4.337774169921875,0.07082359476387501,0.011824581000837497,0.008265081296308199
1772699654610731000,4.34773095703125,0.08159808675646782,-0.0028286201552022248,0.013763871650479268
1772699654620688100,4.357688232421875,0.07725859624743461,0.002572471703356132,0.005002912579028634
1772699654630645000,4.36764501953125,0.07920505414009094,-0.0008413050957722589,0.010400050923321396
1772699654640602000,4.37760205078125,0.07277122170031071,-0.0031644051479408518,-0.0006628769348346395
1772699654650559200,4.387559326171875,0.06783259625434875,-0.010575777382985688,-0.001925420812849188
1772699654660516000,4.39751611328125,0.0866875188499689,-0.004479835128062404,0.012643158241570926
1772699654670473200,4.40747314453125,0.06454115349352359,-0.011147065331763586,0.002050227652740432
1772699654680430000,4.41743017578125,0.0661877516567707,0.001733235267084092,-0.012952217340876813
1772699654690387000,4.427386962890625,0.0821995597809553,-0.005227762851957232,0.00017872841339267324
1772699654700344000,4.437343994140625,0.08220072882473468,-0.0024407853148179126,-0.008814381175563903
1772699654710301400,4.447301513671875,0.07292319739162921,-0.0011838303565513341,-0.0012853556439105887
1772699654720258600,4.457258544921875,0.08190203813910484,-0.00466071268687956,-0.017587729371129533
1772699654730215400,4.46721533203125,0.07890987058579921,0.004686422516871244,-0.006739532250686898
1772699654740172300,4.47717236328125,0.08713935427069663,0.008542919848510064,-0.004421216829845798
1772699654750129400,4.48712939453125,0.06738719057440758,-0.0009037347735371441,-0.01406555116092786
1772699654760086500,4.49708642578125,0.07412146726548671,-0.0010127663722727448,-0.002436936831829371
1772699654770043400,4.50704345703125,0.07382219205796718,0.0012636358608026058,-0.017289278430806007
1772699654780000500,4.51700048828125,0.08609189104437827,0.0027730540430638937,0.0018858183131786061
1772699654789957600,4.52695751953125,0.07890928606390953,-0.007807463447120972,-0.01004238745891489
1772699654799914500,4.53691455078125,0.0765144998818636,0.011513053666520863,0.013067061050824122
1772699654809871400,4.546871337890625,0.08324877657294273,0.005171753781824372,0.00490173720565217
1772699654819828500,4.556828369140625,0.054069443839788435,0.006013369404850527,-0.0004934780387906357
1772699654829786600,4.56678662109375,0.06020400107204914,0.0032576318227685985,-0.013486114155023824
1772699654839743500,4.576743408203125,0.07890928606390953,0.0006291373495478183,0.0035657736108667447
1772699654849700400,4.586700439453125,0.08923428072333335,-0.010749809642485342,0.0017736249305104136
1772699654859657500,4.596657470703125,0.05781038393378257,-0.0000462685608305037,-0.014422694035526365
1772699654869614300,4.6066142578125,0.0811544346421957,0.0032175646738614883,-0.008454327107960125
1772699654879571500,4.616571533203125,0.06349719739854336,0.009184208860155195,0.004081441219401313
1772699654889528600,4.626528564453125,0.0658913990586996,-0.016704694892326368,-0.006973104686188162
1772699654899485700,4.636485595703125,0.08085399039089679,-0.0092052653479157,-0.015980734849197323
1772699654909442300,4.6464423828125,0.06603928309679032,0.007932354768691583,-0.001154675614836742
1772699654919399400,4.6563994140625,0.0765139153599739,-0.011518049502046778,0.0009292933356569846
1772699654929356500,4.6663564453125,0.07097732402086257,-0.002618205974646844,0.016047747087245805
1772699654939313400,4.6763134765625,0.06813362502753734,0.014081360651412978,0.01304021071816096
1772699654949270500,4.6862705078125,0.08100245895087718,0.003545134394103661,-0.012677987526357173
1772699654959227600,4.6962275390625,0.08683774097561836,-0.005235923325526528,-0.002211162397827138
1772699654969184500,4.7061845703125,0.06947919441759585,-0.0018459201276302337,0.00013795458665408658
1772699654979141400,4.716141357421875,0.06483984417915344,-0.0061416262938641004,-0.010023713582841445
1772699654989098500,4.726098388671875,0.07142272970080375,-0.002078422842407599,0.0070076908007351444
1772699654999055400,4.736055419921875,0.07112345449328422,0.00551925661182031,-0.002197886216078768
1772699655009012500,4.746012451171875,0.05870353338122367,-0.004892142256000079,0.0020443635967123553
1772699655018969600,4.755969482421875,0.0717214203864336,0.006902454598527401,-0.0020964916469936724
1772699655028926500,4.765926513671875,0.06992693818509578,-0.009395988447312265,-0.002810164904015255
1772699655038883300,4.77588330078125,0.07965338242948054,0.002203615558077581,0.0096041079227929
1772699655048840400,4.78584033203125,0.06424129376411437,-0.0006136977518210187,-0.00340714298942039
1772699655058797600,4.795797607421875,0.06588789192736148,-0.01196517221503891,0.00571911743232049
1772699655068754400,4.80575439453125,0.08085165230333805,-0.016786016500229015,-0.0005656890396421658
1772699655078711600,4.815711669921875,0.06498948178291321,0.006019730646978132,-0.008276146683839032
1772699655088668700,4.825668701171875,0.06603752953112126,0.004755144938104786,-0.015371685873030219
1772699655098625500,4.83562548828125,0.06558803219795227,0.003579630318749696,-0.015651946994470197
1772699655108582400,4.84558251953125,0.07980302003324032,-0.004868578717322088,-0.0123034916581586
1772699655118539500,4.85553955078125,0.08878127625882624,-0.0033780022328486663,-0.0010763285611988976
1772699655128496400,4.865496337890625,0.07097440141141415,0.005248613843740895,0.006473891597177135
1772699655138453500,4.87545361328125,0.07456570390164852,0.007485949008329771,-0.0010173586365330265
1772699655148410600,4.88541064453125,0.08608721486926078,0.0025114485313883048,-0.0030954321357799927
1772699655158367500,4.895367431640625,0.07261983053088188,0.001769626321294345,-0.006160905241424916
1772699655168324400,4.905324462890625,0.06977730058133602,-0.006202421136968768,-0.00019865667115809627
1772699655178281500,4.915281494140625,0.07441606629788876,0.00015987586998380719,0.015867427792499073
1772699655188238300,4.92523828125,0.07845569707751274,-0.012900288507528602,0.0024094682987692065
1772699655198195500,4.935195556640625,0.08429097910225392,0.0007006362497573718,-0.003926257507555419
1772699655208152600,4.945152587890625,0.07411562204658985,-0.002498940676264465,0.004447023699604324
1772699655218109400,4.955109375,0.06977554701566696,-0.0027547192353522404,0.00229139116670849
1772699655228066600,4.965066650390625,0.06633329760730267,0.006686884752241894,-0.014456225270725553
1772699655238023400,4.9750234375,0.07336684950590133,0.005773162874230183,0.00983353961436078
1772699655247980500,4.98498046875,0.0730675742983818,-0.0029813767312327397,-0.013798543388349935
1772699655257937400,4.9949375,0.07800561522245407,0.0020934240487171336,-0.0019254385083360829
1772699655267894500,5.00489453125,0.07635960158109664,0.007280078572151251,0.0034919217817223395
1772699655277851600,5.0148515625,0.05496200876533985,0.017989483139012007,0.002387579552302486
1772699655287808500,5.02480859375,0.06573591623604297,-0.0033977618126664307,0.005433553373033646
1772699655297765400,5.034765380859375,0.07037526647448539,-0.0009136899119708687,0.011398495367652504
1772699655307723500,5.0447236328125,0.09012743017077446,0.007336252039065584,-0.006977430947322864
1772699655317680600,5.0546806640625,0.06648468877673148,0.004521263116993941,-0.0021181617685739184
1772699655327637500,5.064637451171875,0.05840484269559383,0.0035965403543552384,0.005251135165212326
1772699655337594600,5.0745947265625,0.06498948178291321,-0.001534132498409599,0.0009935099721871665
1772699655347551500,5.084551513671875,0.06663607994616032,0.0009008121640887111,0.0036694332022743762
1772699655357508400,5.09450830078125,0.08219839073717594,0.007358797231013886,0.005712502745154779
1772699655367465500,5.104465576171875,0.07935527626574039,0.009958928692853078,-0.008225165986095089
1772699655377422600,5.114422607421875,0.07277122170031071,0.009223458591732197,0.0007310639248840743
1772699655387379500,5.12437939453125,0.07396832253038883,-0.0059698225240688765,-0.0031863974986292305
1772699655397336600,5.134336669921875,0.05855564934313297,0.01825131241297349,0.020367012225580402
1772699655407293400,5.14429345703125,0.07591419590115547,0.012949374646530487,0.005532356980344048
1772699655417250300,5.154250244140625,0.07292144382596015,-0.008072991648665628,0.0034781053168015203
1772699655427207400,5.16420751953125,0.07516659240424632,-0.0040884657568763935,0.003316162499783968
1772699655437164500,5.17416455078125,0.08234919738471508,-0.0015226201571291312,-0.023564317279413806
1772699655447121400,5.184121337890625,0.07381985397040844,-0.0015655688162893055,-0.016537529623386216
1772699655457078500,5.19407861328125,0.07860825729072093,-0.00202513088574633,-0.007974200028620544
1772699655467035600,5.20403564453125,0.08055413066148757,0.001690715866186656,-0.001108486398286186
1772699655476992300,5.2139921875,0.06544014815986156,0.001439070059522055,-0.014068126710504293
1772699655486949400,5.223949462890625,0.07771043166816234,-0.006040988064138219,0.005335199573583668
1772699655496906500,5.233906494140625,0.08803542632758617,-0.00912409443706274,-0.006201934225668082
1772699655506863600,5.243863525390625,0.06544073268175125,-0.012401677635894157,-0.007244032294524368
1772699655516820500,5.253820556640625,0.06858370688259602,0.0013745351896388455,0.009991695026360685
1772699655526777600,5.263777587890625,0.07771160071194172,-0.002919527008780278,0.007320062951845466
1772699655536734500,5.273734375,0.08279986376166343,-0.0017568262052256613,-0.010727205085032618
1772699655546691300,5.28369140625,0.07845978873074054,-0.00005094930252525955,-0.0024870150597416795
1772699655556648400,5.2936484375,0.0712765992283821,0.00779430713802576,-0.009767482932604616
1772699655566605600,5.30360546875,0.06529109507799148,-0.002229763779486529,-0.00937692355806066
1772699655576562400,5.3135625,0.06274784033596516,-0.003459908362640999,-0.0072897385955293425
1772699655586519600,5.32351953125,0.07831073564887046,0.008780404699081555,0.0004319970674521755
1772699655596476700,5.3334765625,0.08848609270453453,-0.008404534291126765,-0.014296451007085851
1772699655606433300,5.343433349609375,0.08579261583685874,0.012400928717222995,-0.013840873276290949
1772699655616390400,5.353390380859375,0.07277531335353851,-0.0022412304549943654,-0.011292570183100177
1772699655626347500,5.363347412109375,0.0679874945551157,0.001117564753885381,-0.013067672972177388
1772699655636304400,5.373304443359375,0.07337503281235694,0.009220261987647973,0.00427643863511621
1772699655646261500,5.383261474609375,0.07142974396348,-0.0026471306750318036,-0.005053739725612104
1772699655656218600,5.393218505859375,0.07951017456650733,-0.00010805891777854412,-0.014290519023220986
1772699655666175500,5.403175537109375,0.07277706691920757,0.003726409245142713,-0.00710373277044564
1772699655676132400,5.41313232421875,0.06290098507106304,0.015374496601335703,0.009258154874955652
1772699655686089500,5.42308935546875,0.0822042359560728,0.00589823229231406,-0.0003494310672453139
1772699655696046600,5.433046630859375,0.06858662949204444,0.00880587250047829,-0.0006888416369198239
1772699655706003500,5.44300341796875,0.07367430801987647,0.0020323963101720435,-0.002190191533390316
1772699655715961000,5.452961181640625,0.07367489254176617,0.019771092159044927,-0.007999373856605962
1772699655725917700,5.462917724609375,0.07966039669215678,-0.010168004866270348,-0.011261243463074787
1772699655735874800,5.472874755859375,0.07038228073716163,-0.013979914137511514,0.0017307741673503187
1772699655745832000,5.48283203125,0.08759118969142436,0.0014291240542428567,-0.00325471891729685
1772699655755788800,5.492788818359375,0.07322597973048686,0.0011095960765611379,0.0025459795615970504
1772699655765746000,5.502745849609375,0.07756605476140975,-0.005842405885271728,-0.017342420832061906
1772699655775703000,5.512703125,0.06679214729070664,0.0029892860430525614,0.0012203507019803508
1772699655785660000,5.522659912109375,0.0694862086802721,0.004735042864992283,0.0016861552825561375
1772699655795617800,5.53261767578125,0.07023381217718123,0.004378484512283467,-0.0000383309933138662
1772699655805575000,5.542574951171875,0.07397475227117538,-0.0013078448952874167,-0.005442465048562735
1772699655815532000,5.552531982421875,0.07337620185613632,-0.0033946519735502077,-0.0019270710597076685
1772699655825489000,5.562489013671875,0.06753916626572609,-0.009249752943613566,0.024714181434281633
1772699655835445800,5.57244580078125,0.07651683796942234,-0.006232583379792049,-0.0015119828862167196
1772699655845403000,5.58240283203125,0.09282733677923678,0.0006146293335827067,-0.011543252441962248
1772699655855359700,5.59235986328125,0.0658913990586996,-0.00004649688969366252,-0.0037388771427155003
1772699655865316900,5.60231689453125,0.06858487592637538,0.0003769526867661625,0.004971061844262294
1772699655875274000,5.61227392578125,0.07427110486924648,-0.002658072194154374,-0.0048969851111876775
1772699655885230800,5.62223095703125,0.07367196993231773,0.0008719102965900674,-0.004356904580604168
1772699655895188000,5.63218798828125,0.08459609952867031,-0.005917411916819401,0.0007275014237966388
1772699655905144800,5.642144775390625,0.07232581602036953,-0.008587334378971717,-0.010341457170457579
1772699655915102000,5.65210205078125,0.05840951887071132,-0.0025525979591067877,-0.0020664435686019713
1772699655925058800,5.662058837890625,0.062300681090354915,0.0019725513151381165,-0.006702682255461695
1772699655935016000,5.672015869140625,0.06260054081976413,0.005525229694880545,0.006179892498863046
1772699655944973000,5.68197314453125,0.07696516625881195,0.009843668282730504,0.00610087530001183
1772699655954930000,5.691929931640625,0.06409750137925148,-0.003019708580779843,-0.009230157760577276
1772699655964886800,5.70188671875,0.0640969168573618,-0.006497988283750601,-0.006297548649582313
1772699655974844000,5.711843994140625,0.06723930653631686,0.00653441587057896,-0.01106552681144094
1772699655984800800,5.72180078125,0.08280220184922218,-0.003004173084930517,-0.008294080774395843
1772699655994758000,5.7317578125,0.07771510784327984,-0.004069911753456108,0.003692531520893681
1772699656004715000,5.741715087890625,0.07352525493800639,0.007488501725019887,-0.018503716271463782
1772699656014672000,5.751671875,0.07367489254176617,0.005203413861989975,-0.007097575311828404
1772699656024629000,5.76162890625,0.07472235576808452,-0.0027574591817101464,-0.009952236373873893
1772699656034585900,5.7715859375,0.07591945659816264,-0.0005298645264236256,-0.006302969747615861
1772699656044542700,5.781542724609375,0.08489829734563827,0.001889540073648095,0.00994981837121304
1772699656054499800,5.791499755859375,0.06724106010198592,-0.01908971316560637,-0.01377486682688468
1772699656064457000,5.80145703125,0.07128244444727898,-0.0057670345275430005,-0.0046393919084599475
1772699656074414000,5.8114140625,0.06769172647893429,0.0021607536638854072,-0.007074409636194468
1772699656084371000,5.821370849609375,0.07607143228948116,0.0006188990833237767,-0.00433039531418035
1772699656094327800,5.831327880859375,0.08130816389918327,0.006020735293976031,-0.012508486453146906
1772699656104285000,5.841284912109375,0.07038520334661007,0.0021124803756363687,-0.013796084286493714
1772699656114241800,5.85124169921875,0.06993570601344108,-0.010358339806599542,-0.003569160869551706
1772699656124199000,5.861198974609375,0.06649521017074585,0.0015139482269063591,-0.009285671927899239
1772699656134156000,5.871156005859375,0.08520107968449592,0.0043949104906991126,-0.014139932713034795
1772699656144113000,5.88111279296875,0.07203238603174686,0.004895717885997146,-0.010102550972712924
1772699656154070000,5.891070068359375,0.07637129201889038,-0.0031735931013943627,-0.005465679244080092
1772699656164027000,5.90102685546875,0.07741933976709842,-0.002413518281979486,-0.004391099111150833
1772699656173983700,5.910983642578125,0.06993745957911014,-0.006647909015300683,0.0017796057196697802
1772699656183940900,5.92094091796875,0.07981471047103404,0.0044937357892515135,0.002249416615560767
1772699656193898000,5.93089794921875,0.07323124042749404,-0.007178339797304943,-0.010645107158995233
1772699656203854800,5.940854736328125,0.07427870365381241,0.007771250489423983,0.005498123633890645
1772699656213812000,5.95081201171875,0.06963993793725967,0.015309687736816704,-0.0032700908725979386
1772699656223768800,5.960768798828125,0.06664777038395404,0.013449423990002832,0.009235654777957824
1772699656233725700,5.9707255859375,0.07068740116357802,0.011222610219428315,-0.008874403125466779
1772699656243682800,5.980682861328125,0.07098667637109755,-0.0027447869298048316,0.009422388972115003
1772699656253640000,5.990639892578125,0.06979016006290913,0.0017663612185511736,0.007646033799223369
1772699656263597000,6.00059716796875,0.0759258863389492,0.0030085158999077974,-0.007076042758388212
1772699656273554000,6.010553955078125,0.06634849517643451,0.005111589126382023,0.003603274057940871
1772699656283511000,6.020510986328125,0.07068798568546772,0.0017980943639529868,-0.011668647228676127
1772699656293468000,6.030468017578125,0.06410334659814834,0.0061350093234097585,-0.009278081705665681
1772699656303425800,6.04042578125,0.07128653610050678,0.000045186282019130885,0.009700455853180029
1772699656313383000,6.0503828125,0.07038812595605849,-0.0004870711308903992,0.0030427763604137
1772699656323340000,6.060340087890625,0.06844283710718155,0.00942953452388756,-0.013534257295820862
1772699656333297000,6.070296875,0.056471244284510606,0.0011204462641384453,-0.011651980363309849
1772699656343253800,6.080253662109375,0.05991232464909553,-0.01175800943749491,0.0017798132135241757
1772699656353211000,6.0902109375,0.06649579469263553,-0.0030449115206953137,-0.015436337190633639
1772699656363168000,6.10016796875,0.08295593110620975,-0.001487210917030461,-0.01849854005613597
1772699656373124900,6.110124755859375,0.06948913128972053,0.0014716708546038716,-0.007200938646536087
1772699656383082000,6.12008203125,0.06380348686873913,-0.002316560713527724,0.01550207421198138
1772699656393039000,6.1300390625,0.07592413277328014,0.0037602338829310607,-0.005225103962345747
1772699656402995700,6.13999560546875,0.07023731930851936,-0.005709335823822766,-0.013971537893166531
1772699656412952800,6.149952880859375,0.07457680981755256,0.006274038768187165,-0.010490511393971974
1772699656422910000,6.159909912109375,0.078766662722826,-0.00029392317896708846,-0.004392960276796657
1772699656432866800,6.16986669921875,0.07203297055363654,-0.009271110825473442,0.007918948439491215
1772699656442824000,6.179823974609375,0.06649637921452523,0.012379406438581644,0.003369587743419106
1772699656452781000,6.189781005859375,0.08564999249577522,0.006238401199225336,0.008039089379063807
1772699656462738000,6.199738037109375,0.07412731248438358,0.0070886065540835255,-0.006368496135587338
1772699656472694800,6.20969482421875,0.07427636556625365,0.010056795010180211,-0.007539400795195252
1772699656482652000,6.21965185546875,0.07068506307601928,0.00547578279627487,-0.0025314013345065175
1772699656492608800,6.22960888671875,0.07322773329615592,-0.0017575385912787169,-0.0004119018442055676
1772699656502566000,6.23956591796875,0.07562251947820187,-0.016632090880419125,0.005961804185216897
1772699656512523000,6.24952294921875,0.08011164759099483,-0.0036726651973323894,-0.0053769426563463635
1772699656522480000,6.259480224609375,0.08909107286036014,0.009060975206131115,-0.012671493853488936
1772699656532436700,6.269436767578125,0.06814239285588264,0.005898538252990693,0.013281357963697518
1772699656542393900,6.279393798828125,0.08026245423853397,0.008405867731687612,-0.005195015926402993
1772699656552351000,6.28935107421875,0.05766776059269905,0.005718432445731014,-0.01479007745963754
1772699656562307800,6.299307861328125,0.08549977037012577,0.020740316217113284,-0.004045896409040142
1772699656572265000,6.309264892578125,0.06275485459864139,-0.0020788840667111796,0.002793130143768212
1772699656582222000,6.31922216796875,0.06484978105127812,-0.007231937714642845,-0.014794817566836718
1772699656592179000,6.329178955078125,0.06873977422714234,0.007629800758697092,-0.005026804340447415
1772699656602135800,6.3391357421875,0.08115969533920288,0.009999046074110082,-0.014814420741383219
1772699656612093000,6.349093017578125,0.07128361349105834,0.019385079382988623,0.0037080347652910855
1772699656622049800,6.3590498046875,0.07292962713241577,0.005236900573060847,0.010619126759300707
1772699656632007000,6.3690068359375,0.08011281663477421,0.005898784848162904,-0.016466735117719507
1772699656641964000,6.378964111328125,0.06739303579330444,0.0007051343283616006,-0.011415918001555838
1772699656651921000,6.3889208984375,0.07906535340845584,0.007050311237154528,-0.003410288219510403
1772699656661877800,6.398877685546875,0.06455109036564827,0.011958203618135302,0.0006466892746699158
1772699656671835000,6.4088349609375,0.07592296372950076,0.005409549159649759,-0.002295868124892877
1772699656681791700,6.418791748046875,0.08086100465357303,-0.01267263549780473,-0.016744917304860427
1772699656691748900,6.428748779296875,0.07981295690536498,0.004824292051023803,0.003999333018565084
1772699656701706000,6.4387060546875,0.06963759984970093,0.003880923953419551,0.001274485477557755
1772699656711662800,6.448662841796875,0.08864157552719115,0.00024046682552434503,-0.017550512908078963
1772699656721620000,6.458619873046875,0.09088613958358764,0.0031075649607460944,-0.010724737991666188
1772699656731576600,6.46857666015625,0.0850496885150671,0.0015451242498820646,-0.0018682723816891666
1772699656741533700,6.47853369140625,0.0693377401202917,0.00554322200929746,-0.007423786475334782
1772699656751490800,6.48849072265625,0.06754208887517452,0.002166758712986484,-0.002900124478222278
1772699656761447700,6.49844775390625,0.09178338068425655,-0.0030083058373536913,-0.005842349373878096
1772699656771404800,6.50840478515625,0.06604512831568718,-0.00027248309871647506,0.004385347221676784
1772699656781362000,6.51836181640625,0.07262976740300654,0.01555341966508422,-0.00179917378865357
1772699656791318500,6.528318603515625,0.0850496885150671,0.0034565610615070906,-0.0016451291524237602
1772699656801275600,6.538275634765625,0.06739303579330444,0.008937257494917139,0.007065814766963012
1772699656811232800,6.548232666015625,0.0775683928489685,-0.005213437499082647,0.005186856594478013
1772699656821189600,6.558189697265625,0.07218202363550663,0.006485288632381707,0.005538972809154074
1772699656831147800,6.568147705078125,0.08086158917546271,0.004973194435844198,0.0021876853387060692
1772699656841104600,6.578104736328125,0.07712064908146858,0.003105898160045035,0.013455561469844541
1772699656851061800,6.588061767578125,0.08400339433252811,0.006281961779738776,0.005259140945976832
1772699656861018600,6.5980185546875,0.07233107671737671,0.009067615009471773,0.02683233806545613
1772699656870975700,6.607975830078125,0.05557166509628295,0.0001659996500937268,-0.007178007007986889
1772699656880932900,6.617932861328125,0.07607201681137085,0.0029472415661904957,0.0049852410666644574
1772699656890889700,6.6278896484375,0.05811550436019897,-0.005954583855741657,-0.003129326984693762
1772699656900846600,6.6378466796875,0.06290390768051148,-0.005659834126289933,-0.006502803168652462
1772699656910803700,6.6478037109375,0.058715223819017406,-0.00708070637541823,-0.008193308972285013
1772699656920760600,6.657760498046875,0.06589782879948615,0.006611750856530852,-0.019028098621882962
1772699656930717700,6.6677177734375,0.08325579083561897,0.007846356985671446,0.00859290103665553
1772699656940674800,6.6776748046875,0.066196519485116,-0.004781585420458577,-0.02021450452801073
1772699656950631700,6.687631591796875,0.08026186971664429,-0.004319045942625962,-0.012114266396104358
1772699656960588800,6.6975888671875,0.05946224279403686,0.001199018792528659,0.006524299760296707
1772699656970545700,6.707545654296875,0.07248071432113647,0.001356118183536455,0.011664947159448638
1772699656980502800,6.717502685546875,0.08520049516260624,0.015332287727692163,-0.0111036965474952
1772699656990459600,6.727459716796875,0.07337912446558476,0.008595394387841224,-0.00015275828849698882
1772699657000416800,6.737416748046875,0.07562368852198123,0.01105655577040743,0.00019802619808469897
1772699657010374000,6.747373779296875,0.07098492280542851,-0.0133685225072084,0.0036711613663574097
1772699657020330800,6.757330810546875,0.0675432579189539,0.003261805674387142,-0.006386689379403833
1772699657030287600,6.76728759765625,0.06574702215194701,-0.008212591915600932,-0.0006508134647607221
1772699657040244700,6.77724462890625,0.08145955506861209,0.00006168532567098736,-0.01966552887574071
1772699657050201600,6.78720166015625,0.07023673478662967,0.0007980961417080834,0.014904172250913688
1772699657060158700,6.79715869140625,0.07457564077377318,0.008162797957123257,0.010955744010745547
1772699657070115800,6.80711572265625,0.06814122381210327,0.001547361872741021,-0.0005297038399861776
1772699657080072700,6.81707275390625,0.07292962713241577,0.0007029926036251708,-0.01602486625186866
1772699657090029800,6.82702978515625,0.08400280981063843,-0.010781268793251364,-0.004700327459226537
1772699657099986700,6.836986572265625,0.09073650197982787,-0.004076606355723925,0.010918092581210657
1772699657109943600,6.846943603515625,0.07397650583684444,0.0004609366092132404,-0.0019973800811290856
1772699657119900700,6.856900634765625,0.07008534361720084,-0.003755525741772726,-0.0029010877406137293
1772699657129857800,6.86685791015625,0.06260346342921257,-0.016614194464124737,-0.008041084973327815
1772699657139814700,6.876814697265625,0.08504851947128772,-0.0013513963426463305,-0.005365646085841581
1772699657149771800,6.886771728515625,0.07262918288111686,-0.007001238797884434,0.005634755054782726
1772699657159728600,6.896728759765625,0.07681962030827999,0.005842698146216571,-0.0077752793522144195
1772699657169685800,6.906685791015625,0.0702355657428503,-0.0011482704194029792,0.002935961834939371
1772699657179642600,6.916642578125,0.07487550050318241,-0.006071561298915185,-0.0020165226021941632
1772699657189599700,6.926599853515625,0.06484919652938842,0.006609024609904736,-0.003883475528465351
1772699657199556900,6.936556884765625,0.05168167192041874,0.015186709811119362,0.007782869003625819
1772699657209513700,6.946513671875,0.08086100465357303,-0.0085699996516807,-0.0017751199137419462
1772699657219470800,6.956470947265625,0.07966331930160522,-0.0001906774336239323,0.006599692809267435
1772699657229427700,6.966427734375,0.09043664225041866,0.0016399172607110813,-0.0032121101827317033
1772699657239384600,6.976384521484375,0.07098316923975945,0.012477674614707938,-0.0012719319046344026
1772699657249341700,6.986341796875,0.06963643080592155,0.00766188553054817,-0.0016114994504023343
1772699657259298800,6.996298828125,0.0738256991893053,0.007230375945218838,0.0010852898982557234
1772699657269255700,7.006255615234375,0.06379939521551131,0.0062036632459843526,-0.0005422462298505707
1772699657279212800,7.016212890625,0.0673906977057457,0.0014905399518553167,0.005285221810371149
1772699657289169700,7.026169677734375,0.08489829734563827,0.0004931583783822134,-0.004657469275378389
1772699657299126500,7.03612646484375,0.07457271816432476,0.0014588159396080299,-0.014749833355861483
1772699657309083600,7.046083740234375,0.06514613364934921,0.002365834082197398,-0.007885029616046813
1772699657319040800,7.056040771484375,0.07786649901270866,0.013188311668671666,0.011643962595280026
1772699657328997600,7.06599755859375,0.06918751799464225,0.0030859239510959012,-0.0018909226049145216
1772699657338954800,7.075954833984375,0.0768190357863903,-0.014294268183154053,0.011649111411144258
1772699657348911900,7.085911865234375,0.07397533679306506,0.004630459112511016,-0.01907736285739811
1772699657358868700,7.09586865234375,0.07038461882472039,0.01652952098851092,0.00033869675656605973
1772699657368825600,7.10582568359375,0.08624620482325554,0.004757469325931743,0.00978638513754122
1772699657378782700,7.11578271484375,0.0816074391067028,0.025534194863564334,0.0031189274612101144
1772699657388739800,7.12573974609375,0.06903788039088249,0.0034660275761736557,0.0040815054368940765
1772699657398696700,7.13569677734375,0.073376786378026,-0.009098781899292953,-0.004828690806572558
1772699657408654600,7.145654541015625,0.07397533679306506,0.0015922239277744664,-0.0004602947196966852
1772699657418611700,7.15561181640625,0.08085866656601429,-0.020000955392164177,-0.004343194003193639
1772699657428568800,7.16556884765625,0.07681845126450061,0.002496282928297296,-0.0084272444506787
1772699657438525700,7.175525634765625,0.06784019503891468,0.0012227467279881238,-0.01894231660963851
1772699657448482800,7.18548291015625,0.0576654225051403,0.005683137370063923,0.003158193175807537
1772699657458440000,7.19543994140625,0.07696808886826038,-0.0007572618078207597,0.008600312591553666
1772699657468396500,7.205396484375,0.07173077273666859,-0.0017347833367763086,-0.0023885176985189898
1772699657478353700,7.215353759765625,0.08025953162908554,0.005619771543960087,0.0020983194195432586
1772699657488310800,7.225310791015625,0.07038403430283069,0.0016462602365296332,-0.01568220399377169
1772699657498267600,7.235267578125,0.0669417848944664,0.009651894870563409,-0.017553530274005604
1772699657508224800,7.245224853515625,0.07173077273666859,-0.0017874770718161017,0.013007716096000512
1772699657518182000,7.255181884765625,0.08280337089300155,0.016088353092269973,-0.01323598673529923
1772699657528138800,7.265138671875,0.07621931632757187,-0.0038723707542056215,-0.002250880774395773
1772699657538095600,7.275095703125,0.05811258175075054,-0.0007112398421624675,0.00450699655880162
1772699657548052700,7.285052734375,0.07487140884995461,0.010722547176224178,-0.0006369450550235342
1772699657558009600,7.295009521484375,0.0792114838808775,0.00041683260600548235,-0.0005996055797979352
1772699657567966700,7.304966796875,0.06155483115911484,-0.0006497554458910599,0.0032545108526202964
1772699657577923800,7.314923828125,0.059759179913997644,0.010460411941586062,-0.0013446877552356453
1772699657587881000,7.324880859375,0.08684358619451522,0.014760415257024578,-0.010909349869040305
1772699657597837600,7.334837646484375,0.058412441480159755,0.005073750467179343,0.00693168640123331
1772699657607794700,7.344794677734375,0.0851975725531578,0.0029228469104506075,0.001971803252700192
1772699657617751800,7.354751708984375,0.07008417457342148,-0.003519333232566714,0.01387110858435044
1772699657627708700,7.364708740234375,0.06589432166814804,-0.0054704810000723225,0.01098025397256133
1772699657637665800,7.374665771484375,0.06125497142970562,0.003741862542601302,-0.00617876227099041
1772699657647623000,7.384622802734375,0.060059039643406864,0.009119833820476196,0.000752923559420742
1772699657657579800,7.394579833984375,0.06619418139755726,0.006984114133147522,0.0015167635217891073
1772699657667536600,7.40453662109375,0.08100888869166374,0.003894641951518133,0.0006560259272955591
1772699657677493800,7.41449365234375,0.06948737772405147,0.006583712072134949,-0.016720760111138225
1772699657687450600,7.42445068359375,0.069786652931571,0.010984842241066507,0.002230370563440374
1772699657697407700,7.43440771484375,0.08714461496770382,0.015138326925016007,0.01677645522908424
1772699657707364900,7.44436474609375,0.0784656339496374,-0.0024827293269801885,0.00334197307988652
1772699657717321700,7.45432177734375,0.08205693643987179,-0.004677006234554574,0.0020213780154692356
1772699657727278600,7.464278564453125,0.08624620482325554,-0.004839567251969128,-0.00406158888098289
1772699657737235500,7.4742353515625,0.07846504942774772,0.016825512826978226,-0.0025735879460858993
1772699657747192600,7.484192626953125,0.06380114878118037,0.0035449608641676604,-0.011813671447755768
1772699657757149700,7.494149658203125,0.06948796224594116,-0.016976018080417998,-0.005442340609332313
1772699657767106600,7.5041064453125,0.08056114492416382,-0.005647513500833884,0.001121356154658133
1772699657777063700,7.514063720703125,0.07996259450912475,-0.000814156793942675,0.005266568483895389
1772699657787020800,7.524020751953125,0.07053484095036983,0.014363511194195598,0.007007156511195353
1772699657796977700,7.533977783203125,0.07487433145940303,0.011291981094633228,-0.014037333138374379
1772699657806934500,7.5439345703125,0.07786766805648804,0.008728546647680923,-0.009044080011901679
1772699657816891600,7.5538916015625,0.06799100168645382,-0.0024867479149717838,-0.001043793696076318
1772699657826848800,7.563848876953125,0.07068389403223992,0.0038883400748949497,-0.016661775915918404
1772699657836805600,7.5738056640625,0.07382686823308468,-0.008733725146297364,-0.003583572131161054
1772699657846762800,7.5837626953125,0.09088613958358764,-0.0034984228752786293,-0.004568166717475106
1772699657856719600,7.5937197265625,0.08430208501815796,0.00261065285585355,-0.007371598488726885
1772699657866676500,7.603676513671875,0.07098375376164913,-0.0028879673933144656,0.008226696931122568
1772699657876633600,7.613633544921875,0.08265607137680053,0.018054346802458165,-0.010533151809166884
1772699657886590700,7.6235908203125,0.07801672113835811,0.005697124796221032,-0.0017405991583320428
1772699657896547600,7.633547607421875,0.07128244444727898,-0.0019036279645049943,-0.011671161129459505
1772699657906504700,7.643504638671875,0.06993629053533076,0.0005147400225279852,-0.0041831877003467525
1772699657916461800,7.6534619140625,0.07771686140894889,0.009005089433584362,-0.006919405733328312
1772699657926418400,7.66341845703125,0.06305296076238155,0.012230823714169673,-0.00021229732285428326
1772699657936375600,7.67337548828125,0.06380231782495975,-0.0018676524688256903,-0.00811682907792565
1772699657946332700,7.683332763671875,0.07128478253483772,0.006843646216532215,-0.008989242268836824
1772699657956289500,7.69328955078125,0.07667173627018928,0.001539493660116568,0.006255290685233194
1772699657966246700,7.70324658203125,0.07891571580469608,-0.0034767772990511726,-0.017471694926160852
1772699657976203800,7.713203857421875,0.08879238217473029,0.013111538371723144,-0.0035786473629937973
1772699657986160600,7.72316064453125,0.08160977719426155,-0.006028256446728482,-0.0017971256787510355
1772699657996117500,7.733117431640625,0.0778688371002674,0.010283173944847658,-0.00815983025272435
1772699658006075600,7.74307568359375,0.08220891213119029,0.014888270287238992,-0.004767869134826469
1772699658016032800,7.75303271484375,0.07667290531396866,-0.00665576809477061,-0.009157396201754453
1772699658025989600,7.76298974609375,0.0663490796983242,-0.00003951915963552892,0.008330553456174675
1772699658035946500,7.772946533203125,0.08026596136987209,0.006966587609611451,0.0007468879713342175
1772699658045903600,7.782903564453125,0.07383154440820217,0.007080596777563914,0.006499230392766185
1772699658055860700,7.79286083984375,0.06470540414452552,0.00482536519668065,-0.0024920394363754893
1772699658065817600,7.802817626953125,0.07024258000552654,-0.0051868691525654865,-0.012972601400135318
1772699658075774700,7.812774658203125,0.069943304798007,0.006016474677389487,-0.018275784700526855
1772699658085731800,7.82273193359375,0.07622808415591717,0.012997666201088576,0.0018021606155947665
1772699658095688700,7.832688720703125,0.07772446019351482,0.009126939414697699,-0.015219932802353286
1772699658105645600,7.8426455078125,0.06425707585513592,-0.0021670281410450113,-0.0031967584916172197
1772699658115602700,7.852602783203125,0.07592822442650794,0.012740156909218057,-0.006305572125833714
1772699658125559600,7.8625595703125,0.07772446019351482,0.0035715474769938737,0.0035172411693580215
1772699658135516700,7.8725166015625,0.06440788250267505,-0.0024366616955492646,-0.0004512209306747536
1772699658145473800,7.882473876953125,0.08146715385317801,0.007760030409088358,-0.001617633505311096
1772699658155430700,7.8924306640625,0.07099310611188411,-0.00577182030051481,-0.013642521709576248
1772699658165387500,7.902387451171875,0.07069383090436458,0.01311951161562465,-0.008455674248252762
1772699658175344600,7.9123447265625,0.08685469211041927,0.003191877676756121,0.005688492823549313
1772699658185301500,7.922301513671875,0.06680383772850036,0.013300530738336964,-0.009084573564960736
1772699658195258600,7.932258544921875,0.07488309928774833,0.0014276262169005348,0.003336629042844288
1772699658205215700,7.9422158203125,0.07697802574038505,0.005559784985031001,-0.008949231060501188
1772699658215172600,7.952172607421875,0.07069383090436458,0.0002778031612280756,0.002382948472135467
1772699658225129700,7.962129638671875,0.07039397117495537,0.013245087923784739,0.0020420383526521617
1772699658235086600,7.972086669921875,0.08431085284650325,0.012528244891320355,0.003332492009254929
1772699658245043700,7.982043701171875,0.08565700675845146,-0.0009709958900464698,0.006630166720988927
1772699658255000600,7.99200048828125,0.0741349112689495,-0.007010883409064262,-0.006381309951387811
1772699658264957700,8.001957763671875,0.056627311629056924,0.009550315925921312,0.004244006232570973
1772699658274914800,8.011914794921875,0.05408347236514091,0.0022080771040637044,-0.02838106306151021
1772699658284871700,8.02187158203125,0.061115270698070524,0.004497836575633846,-0.01292071480762679
1772699658294828500,8.03182861328125,0.06291033742129802,0.0033510594269959256,-0.018771244633849708
1772699658304785700,8.04178564453125,0.07503039880394935,-0.005013247885019518,0.014756988040788564
1772699658314742500,8.051742431640625,0.07458148599267006,0.013164761829725466,0.005650607356929686
1772699658324699600,8.06169970703125,0.08236322591006755,0.018280958632566034,0.012336546827678102
1772699658334656800,8.07165673828125,0.07951952691674231,-0.0037500275827478616,0.0026248275116784498
1772699658344613600,8.081613525390624,0.07772387567162513,0.014870186641276813,0.01353021587494295
1772699658354570800,8.09157080078125,0.07143909631371498,0.015598395884549244,-0.00826994241780485
1772699658364527600,8.101527587890626,0.08430909928083419,0.0060384992795297875,0.005083038885332644
1772699658374484500,8.111484375,0.08685352306663989,-0.0037095220424234864,-0.0004058051781481481
1772699658384441600,8.121441650390626,0.08625497265160083,0.006696922089066356,0.0003265082764395629
1772699658394398700,8.131398681640626,0.07263853523135184,-0.002066695871995762,0.0055869789526332165
1772699658404355800,8.14135595703125,0.06530570812523365,0.0069054548397893085,-0.003646308911246888
1772699658414312700,8.151312744140625,0.07607961559593678,0.00562996871098876,0.00602057546377182
1772699658424269600,8.16126953125,0.07967091808617115,0.013702426070114597,-0.012282717156544094
1772699658434226700,8.171226806640625,0.08236439495384693,0.008409922852297313,-0.011787103101238608
1772699658444183600,8.18118359375,0.07697802574038505,0.008109126974549144,-0.01867701902024564
1772699658454140700,8.191140625,0.0828144768089056,0.003288205057545565,-0.009260944482841295
1772699658464097800,8.201097900390625,0.06515665504336357,0.005342036881390959,-0.009047466699764481
1772699658474054700,8.2110546875,0.09029577247500419,0.012508846071106382,-0.009697388254903488
1772699658484011800,8.22101171875,0.06470774223208427,0.0013871983083896338,0.004429910736721649
1772699658493968600,8.23096875,0.07503332141339779,0.0073212553993333125,-0.0062767958392098075
1772699658503925500,8.240925537109375,0.07967208712995053,-0.011014451928040944,-0.005162505892044283
1772699658513882600,8.250882568359375,0.07608078463971614,-0.009733851232705638,-0.009633457314863335
1772699658523839700,8.26083984375,0.06590601210594177,0.007398640617635101,-0.004786963136008126
1772699658533796600,8.270796630859374,0.06530863073468209,0.001469793991348706,-0.012184822298109065
1772699658543753700,8.280753662109374,0.07742810759544372,0.0005507200847845524,-0.007944044635663158
1772699658553710600,8.290710693359374,0.05992050795555114,0.008892646601633167,-0.010515158353105653
1772699658563667500,8.30066748046875,0.07742810759544372,0.0059725944364676245,0.0019323152028722687
1772699658573624600,8.31062451171875,0.07877484602928161,-0.00027764333102386446,0.005216522222023923
1772699658583581700,8.320581787109376,0.06635550943911075,0.01701524041253142,-0.006116143651091261
1772699658593538800,8.330538818359376,0.053336453390121455,0.0038888058657757935,-0.005003834456813638
1772699658603495700,8.34049560546875,0.07308803256452083,-0.0025694942949805407,-0.0026637644327129235
1772699658613452800,8.350452880859375,0.0558791236102581,0.01231925091629382,0.006743769463564967
1772699658623409700,8.36040966796875,0.07353694537580013,0.015420628164848313,0.0033300760044716296
1772699658633366500,8.370366455078125,0.07892389911115169,0.011357488645473495,-0.012064803514478261
1772699658643323600,8.38032373046875,0.08565759128034114,0.012597090610140003,-0.0014655230999633204
1772699658653280800,8.39028076171875,0.07742752307355404,-0.0003553345100022852,-0.0019347283535447784
1772699658663238700,8.40023876953125,0.0862561416953802,-0.0016041837936267257,-0.00586438367999508
1772699658673195500,8.410195556640625,0.07982172473371028,0.0021560729221906513,-0.024030724648188333
1772699658683152600,8.420152587890625,0.07697861026227473,-0.0012561695069773123,-0.006906239720256417
1772699658693109800,8.43010986328125,0.06695289081037044,0.0056231234116712586,0.0032842215751166803
1772699658703066600,8.440066650390625,0.07712883238792419,0.005712779023079201,0.0030886025340718334
1772699658713023200,8.450023193359375,0.06635492491722106,-0.002900297151925042,-0.003168096654835972
1772699658722980400,8.45998046875,0.06605623423159122,0.0010443944863975047,0.006159591208817437
1772699658732937200,8.469937255859374,0.07294014852643013,0.0017838557760464027,-0.006655313720332924
1772699658742894000,8.47989404296875,0.05648001211285591,0.009277056509070097,-0.008704311822145245
1772699658752851200,8.489851318359374,0.07144377248883246,0.005710345037397928,-0.008235499008797342
1772699658762808000,8.49980810546875,0.07668167314231396,-0.0019285523432074113,-0.00028130858009972143
1772699658772765200,8.50976513671875,0.060221536728739734,0.000391510935081169,-0.00035523062036954794
1772699658782722300,8.519722412109376,0.05722936917543411,0.007006467528850771,-0.012782806457567493
1772699658792679200,8.52967919921875,0.07892682172060013,-0.0068296907564159475,0.00936922031303984
1772699658802636000,8.539635986328125,0.06590951923727989,0.0025378296482376755,-0.01139864834799082
1772699658812593200,8.54959326171875,0.06231821674704551,-0.007875181221356616,0.00025169946394744327
1772699658822550000,8.559550048828125,0.06082184070944786,-0.013725039760721846,-0.012251087900775018
1772699658832507100,8.569507080078125,0.07159633270204067,0.012713821458141318,0.0014642672912159468
1772699658842464300,8.57946435546875,0.07698270191550255,0.019147484934562815,0.009220188351589604
1772699658852421000,8.589421142578125,0.08027531372010707,0.010574900600151158,0.010493761655339039
1772699658862378200,8.599378173828125,0.06576046615540981,0.006909829620807432,0.009863899361650691
1772699658872335000,8.609335205078125,0.06980068145692347,0.0049813457762589676,0.0010704276871416369
1772699658882292000,8.6192919921875,0.08446458210349082,0.010469554229266941,-0.00909743647146679
1772699658892249000,8.6292490234375,0.07039747830629349,0.007122513390262611,-0.0017163178107904968
1772699658902206200,8.639206298828125,0.06396364586651325,0.005404146898747421,-0.0069405432778352405
1772699658912163300,8.649163330078125,0.07189502338767051,0.007250774845853448,-0.0004952972490078536
1772699658922120200,8.6591201171875,0.07788052753806114,-0.005250234978669323,0.007822546280999085
1772699658932077000,8.6690771484375,0.06695698246359824,0.0019531433617696165,0.0024607292701926777
1772699658942034200,8.6790341796875,0.07608546081483364,-0.0022791513125877826,0.004371019870924647
1772699658951991000,8.688990966796876,0.07623451389670372,-0.008068429637979716,-0.002303797130077146
1772699658961948200,8.6989482421875,0.06830372089743614,0.010353773229336366,0.014532176583766704
1772699658971905300,8.7089052734375,0.07608429177105426,0.006790253795171156,0.005881244624895044
1772699658981862100,8.718862060546876,0.06830313637554646,0.0005655797271989285,0.0020562115814216665
1772699658991819300,8.7288193359375,0.07099719776511192,0.0006455039624590427,0.0075421892614365785
1772699659001776000,8.738776123046875,0.09284487243592739,0.013147842660965397,0.0005097944193519652
1772699659011733000,8.74873291015625,0.07144727962017058,-0.010752914915024302,0.0007288048961941968
1772699659021690000,8.758690185546875,0.08521452368795872,0.003121529554016888,-0.004928483077860437
1772699659031647200,8.768647216796875,0.06950199077129364,0.010852301902580075,-0.0021062164586866856
1772699659041604000,8.77860400390625,0.09134908092021941,0.007885232257912867,0.012808060771477175
1772699659051561200,8.788561279296875,0.06950257529318332,0.004849837484234012,0.005217936719331191
1772699659061518000,8.79851806640625,0.07698504000306129,0.007671132849506102,0.00103390191890212
1772699659071475000,8.808474853515625,0.08895546378195285,0.021649366486584765,0.0014965469988339464
1772699659081432000,8.81843212890625,0.08940496111512183,0.007601487979665398,-0.007964460090140346
1772699659091389200,8.82838916015625,0.08506430156230926,0.01013434005868621,0.0037167483655313844
1772699659101346300,8.83834619140625,0.07279401805400848,0.011781696273759006,-0.008809038280165986
1772699659111303200,8.84830322265625,0.06725801123678683,0.004429091321513988,0.007106540073818178
1772699659121260300,8.85826025390625,0.076086629858613,0.009276211692276411,0.0061924991062202025
1772699659131217200,8.868217041015624,0.07833119391500949,0.0007484391805483028,0.003997022901292075
1772699659141174000,8.878174072265624,0.06246960791647434,0.0011145599460462108,-0.025360185436950997
1772699659151131100,8.888131103515626,0.07489011355042458,0.018767541139689273,0.0024552416713777346
1772699659161088300,8.898088134765626,0.07563888609111309,0.01163881263777148,0.008559659208290394
1772699659171045000,8.908045166015626,0.07489069807231426,-0.004383982671308331,-0.006327342141291592
1772699659181002200,8.918002197265626,0.07653612719178199,0.015709555508289487,0.0021484533026159625
1772699659190959000,8.927958984375,0.07623626746237278,0.008176625553076154,0.016645833994692657
1772699659200916000,8.937916015625,0.0656125821173191,0.008566857846523635,0.0032020214719130306
1772699659210873000,8.947873046875,0.06680909842550754,-0.005038300127885304,-0.00015095106554508674
1772699659220830200,8.957830322265625,0.0778816965818405,0.00964712279732339,0.004470511604346393
1772699659230787000,8.967787109375,0.07084872920513152,0.0014700360199436545,-0.004445767034623713
1772699659240744200,8.977744140625,0.06995090358257293,-0.00701698892286513,-0.0018436368389986454
1772699659250701300,8.987701416015625,0.07039923187196254,0.006776334867672994,-0.006492942215874791
1772699659260658200,8.997658203125,0.08027472919821739,0.014478515875991433,-0.02235592787034111
1772699659270615000,9.007614990234375,0.07189443886578083,-0.004441466745897196,-0.000835321452502103
1772699659280572200,9.017572265625,0.06710545102357864,0.006071095508034341,0.0006359558202238986
1772699659290529300,9.027529296875,0.06815408329367638,0.0011081256386823951,-0.009352063682262086
1772699659300486100,9.037486083984374,0.08177110523581504,0.0055618947437265885,0.005019572023706859
1772699659310443300,9.047443359375,0.0781786337018013,-0.01325125736966729,0.0035114224936914976
1772699659320400100,9.057400146484374,0.06471183388531207,0.0022514550214866175,0.00539515188318328
1772699659330357000,9.06735693359375,0.06291618264019488,0.0032838028770638627,-0.0037394639478938187
1772699659340314000,9.077314208984374,0.07773030541241169,0.008238616839423776,-0.022204945409577338
1772699659350271200,9.087271240234376,0.07473755333721638,-0.004120756024704315,0.004097505011157773
1772699659360228000,9.09722802734375,0.06905190891623497,-0.0007278667499776929,0.010371830617479282
1772699659370185200,9.107185302734376,0.0620183570176363,0.017458171007595957,0.008604172490985365
1772699659380143000,9.11714306640625,0.07623392937481403,0.013585718054999597,0.0001675611341066542
1772699659390100200,9.127100341796876,0.06845218945741653,0.00040537506365217264,0.010402021401410456
1772699659400057000,9.13705712890625,0.07129588845074177,0.011290419325209222,-0.008098415496756205
1772699659410014200,9.14701416015625,0.0693505996018648,0.014327024241862817,-0.0007785574700654251
1772699659419971300,9.156971435546875,0.08251870873272418,-0.00449005056140013,0.006622121553495526
1772699659429928200,9.16692822265625,0.07129530392885208,-0.015431409853766672,0.006716305497082066
1772699659439885000,9.176885009765625,0.07563479443788527,0.014767228590301237,-0.014767048210499342
1772699659449842200,9.18684228515625,0.07668284218609332,0.011302602953347377,0.005622554872801993
1772699659459799000,9.196799072265625,0.06845277397930621,0.0041642070073634385,-0.005193300605818512
1772699659469756200,9.206756103515625,0.07129647297263145,0.00455428403718397,-0.002626433805230772
1772699659479713300,9.21671337890625,0.07967617878317833,0.00889651449257508,-0.0019502535745952627
1772699659489670100,9.226670166015625,0.06950023720562458,0.0036912237673299383,0.005417633143049897
1772699659499627000,9.236626953125,0.06800386116802692,0.0030794394113821907,0.006286991864594165
1772699659509584100,9.246584228515625,0.07638356697857379,0.011565496239811181,0.0003702412452446879
1772699659519541200,9.256541259765624,0.07174480126202105,-0.00006945764017291367,-0.005429117514044628
1772699659529498000,9.266498046875,0.07084639111757278,-0.004460733135370537,-0.022867763549729716
1772699659539455200,9.276455322265624,0.06351356401145458,0.006782371882814914,-0.01425115626885672
1772699659549412400,9.286412353515624,0.0694990681618452,-0.0075487942446256055,-0.005684412586764665
1772699659559369000,9.296368896484376,0.06411269894838333,0.007091232336009852,-0.008527717141978792
1772699659569326000,9.306326171875,0.08266834633648396,0.006977944687264971,0.010936938845575787
1772699659579283200,9.316283203125,0.07279226448833942,-0.005546788506140001,-0.005541086563604767
1772699659589240000,9.326239990234376,0.0715951636582613,0.008357019054703414,-0.008845179314271081
1772699659599197200,9.336197265625,0.083716394084692,0.0019511751669691875,0.004446660085889743
1772699659609154300,9.346154296875,0.0597743774831295,0.016097445147600954,0.003125781893682142
1772699659619111200,9.356111083984375,0.0597743774831295,0.020292188857123254,0.014699010775855276
1772699659629068000,9.366068115234375,0.0784790779531002,-0.0016521145885810256,0.004058610330962983
1772699659639025200,9.376025146484375,0.07084872920513152,0.009622403914597816,0.0038658833603811217
1772699659648982000,9.38598193359375,0.0739911188840866,0.00611314455147367,-0.00613801356042677
1772699659658939100,9.395939208984375,0.09868132350444793,0.004831329146586358,-0.005482052706857212
1772699659668896300,9.405896240234375,0.06037409694194793,0.014959298829990439,-0.0012253439688065554
1772699659678853000,9.41585302734375,0.06097323187887668,0.021396642967686057,-0.010595262968167662
1772699659688810000,9.42581005859375,0.06650982321798801,0.0062786053454503415,0.010384554243378806
1772699659698767000,9.43576708984375,0.07997720755636692,0.025486369099887086,0.003873023489343177
1772699659708724200,9.44572412109375,0.07279460257589816,0.01589881273638457,0.009355812842195154
1772699659718681600,9.455681640625,0.07683481787741184,0.0029380262132734057,0.010534237512911203
1772699659728638500,9.465638427734374,0.08192308092713356,0.00916219339116942,-0.010519232881668722
1772699659738595600,9.475595703125,0.06441548128724098,0.010144541792292147,-0.007319097120754304
1772699659748552400,9.485552490234374,0.06276946764588355,0.013531553882081061,0.0022210184986164675
1772699659758509300,9.49550927734375,0.07803191870748996,-0.0001163609552429989,-0.00676132566985325
1772699659768466400,9.505466552734376,0.07548866396546364,-0.00014747304613701997,-0.02406748331186827
1772699659778423600,9.515423583984376,0.08192308092713356,0.011579415167309343,0.008042642746996715
1772699659788380400,9.52538037109375,0.07324409990906715,0.010741676568379625,0.016917420902621234
1772699659798337500,9.535337646484376,0.076086629858613,-0.00019824881872627882,-0.0070387988958740605
1772699659808294700,9.545294677734375,0.07503975115418433,0.01281467431699857,-0.007476135433791204
1772699659818251300,9.555251220703125,0.08596388075053692,0.01221313736042939,-0.005777634695015149
1772699659828208400,9.56520849609375,0.0695037443369627,0.014353533222875556,0.0022392165944213047
1772699659838165500,9.57516552734375,0.08356967909038067,0.012740581600903533,0.01090289387043449
1772699659848122600,9.58512255859375,0.08252163134217262,-0.0066312273085582995,-0.005794423145501059
1772699659858079500,9.59507958984375,0.07518997327983379,-0.0024299625267041845,0.0006605302849435247
1772699659868036600,9.60503662109375,0.07174830839335918,0.008597189052705652,0.013637829551438335
1772699659877993500,9.614993408203125,0.06950432885885238,-0.004883095866441726,0.0035106099283497313
1772699659887950300,9.624950439453125,0.07040215448141098,0.006307219518581405,-0.028412898954900446
1772699659897907500,9.634907470703125,0.06935469125509262,0.009756629320094362,-0.006497438011190388
1772699659907864600,9.644864501953125,0.08297229771912097,0.002721579584153369,-0.0010089701195116505
1772699659917821400,9.654821533203124,0.06920563817322253,-0.00455941687002778,0.009755839302227832
1772699659927778600,9.664778564453124,0.06471709458231925,0.0038651920947479082,0.01974356254801387
1772699659937735700,9.674735595703124,0.06561433568298816,-0.008921635234099813,-0.005021684065691079
1772699659947692300,9.6846923828125,0.07653788075745105,0.015532376877055502,-0.010745617524557747
1772699659957649400,9.6946494140625,0.08791033864319324,0.011323111451836303,-0.003294858275206934
1772699659967606500,9.7046064453125,0.08701309754252433,-0.000008480133977718651,-0.0021976987009998993
1772699659977563400,9.7145634765625,0.07414484814107418,0.0036183023783029054,-0.009617079285508952
1772699659987520500,9.7245205078125,0.0714513712733984,0.009318208220077213,0.007608016472685266
1772699659997477600,9.7344775390625,0.06636369274556636,0.0073518080845125944,0.0011513240325366496
1772699660007434500,9.7444345703125,0.06217383984029293,0.00826695930120768,-0.009723205399460857
1772699660017391400,9.754391357421875,0.07773615063130855,0.01636900579771027,0.005686193551897304
1772699660027348500,9.764348388671875,0.06471767910420895,0.0027121564519708044,0.015347841489850543
1772699660037305600,9.7743056640625,0.0780348413169384,0.012390284025622532,0.0114328440201818
1772699660047262500,9.784262451171875,0.07025368592143058,0.0028667054095771164,0.003122094097131048
1772699660057219600,9.794219482421875,0.05858545995950699,0.02075392005078029,-0.01628820249632699
1772699660067176700,9.8041767578125,0.06487023931741714,-0.009955958134343381,-0.007064053209783741
1772699660077133300,9.81413330078125,0.06636603083312512,0.02769267893854994,0.0008871678020484978
1772699660087090400,9.82409033203125,0.08462006492614746,0.01795442324207397,-0.007360587329301052
1772699660097047600,9.834047607421875,0.08731178822815418,-0.0034498801589710635,-0.004415390162669064
1772699660107004400,9.84400439453125,0.055288171979784966,0.03088874873323366,-0.011965966799482702
