time,seconds_elapsed,z,y,x
1772699650369037800,0.106037841796875,-0.0006487439386546612,-0.001637183129787445,-0.0015344531275331974
1772699650378995000,0.115994873046875,0.00044075516052544117,-0.00030506961047649384,-0.0007616039365530014
1772699650388951800,0.125951904296875,-0.0015174670843407512,0.0007050670683383942,0.0012133964337408543
1772699650398909000,0.135908935546875,-0.0002814941108226776,-0.00009627779945731163,0.004496541805565357
1772699650408866000,0.145865966796875,-0.0005580596625804901,-0.0012770621106028557,0.0013034814037382603
1772699650418822700,0.15582275390625,-0.0015334918862208724,0.0005833841860294342,-0.0003426838666200638
1772699650428779800,0.16577978515625,0.0029315638821572065,-0.0006882753223180771,0.0012584086507558823
1772699650438737000,0.17573681640625,-0.002966613508760929,0.0010505365207791328,-0.0005966327153146267
1772699650448693800,0.18569384765625,0.002509644953534007,0.0010659829713404179,-0.0024336809292435646
1772699650458651000,0.19565087890625,-0.0003346344456076622,-0.0007321732118725777,-0.0009083515033125877
1772699650468608000,0.20560791015625,0.0008832293096929789,0.00035732565447688103,-0.00006812438368797302
1772699650478564900,0.21556494140625,0.0010800741147249937,0.0007336139678955078,0.0001121126115322113
1772699650488521700,0.225521728515625,-0.0006568396929651499,-0.0000189952552318573,-0.001138507854193449
1772699650498478800,0.235478759765625,0.002934741321951151,0.00008751172572374344,-0.0008514521177858114
1772699650508436000,0.24543603515625,0.0005703868810087442,-0.00034605106338858604,0.001795995980501175
1772699650518392800,0.255392822265625,-0.0003491935785859823,-0.0011790916323661804,0.0005523520521819592
1772699650528350000,0.265349853515625,-0.0009582584025338292,-0.0013708393089473248,0.0013150814920663834
1772699650538307000,0.27530712890625,0.001261407509446144,0.0007440126501023769,-0.0009724819101393223
1772699650548263700,0.285263671875,-0.0006637917831540108,0.0005605206824839115,-0.0006835288368165493
1772699650558220800,0.295220703125,-0.002436349866911769,-0.0023330221883952618,-0.001835112925618887
1772699650568178000,0.305177978515625,0.0012388124596327543,-0.0022941401693969965,0.00026159361004829407
1772699650578134800,0.315134765625,0.0028580238576978445,0.0007298756390810013,0.00020119128748774529
1772699650588092000,0.325091796875,-0.000859216321259737,-0.00004590349271893501,-0.001822012010961771
1772699650598049000,0.335049072265625,-0.0000813028309494257,-0.0002134190872311592,-0.004178883507847786
1772699650608006000,0.345005859375,-0.0014589560450986028,0.00018525635823607445,0.0008318540640175343
1772699650617963800,0.3549638671875,-0.00025679077953100204,0.0007237410172820091,-0.0007702258881181479
1772699650627921000,0.3649208984375,-0.0021239330526441336,0.00024170894175767899,0.0005714748986065388
1772699650637878000,0.3748779296875,0.0012033784296363592,0.0016207131557166576,0.001800290308892727
1772699650647835000,0.3848349609375,0.0002409119624644518,0.002608213108032942,0.0008514062501490116
1772699650657791700,0.394791748046875,-0.0012899101711809635,0.0013546794652938843,-0.00177228101529181
1772699650667748900,0.404748779296875,-0.0027533171232789755,0.0016883732751011848,-0.0006931680254638195
1772699650677705700,0.414705810546875,0.00006355484947562218,0.0009618424810469151,0.0007662368007004261
1772699650687662800,0.424662841796875,0.0008531820494681597,0.0011479975655674934,-0.00001992844045162201
1772699650697620000,0.434619873046875,-0.000233593862503767,-0.00022648833692073822,0.0034555685706436634
1772699650707577600,0.44457763671875,0.00046042585745453835,0.0005673998966813087,0.0007348833605647087
1772699650717534700,0.45453466796875,0.0017648700159043074,-0.001553820911794901,-0.0026548972819000483
1772699650727491600,0.46449169921875,-0.0004719190765172243,-0.0003572627902030945,-0.0003515291027724743
1772699650737448700,0.47444873046875,0.000008964678272604942,-0.0014035790227353573,-0.00007156748324632645
1772699650747405800,0.48440576171875,0.0015687779523432255,0.0026425612159073353,0.0001071305014193058
1772699650757363000,0.494363037109375,-0.0000035015400499105453,0.0008797915652394295,0.0015774811618030071
1772699650767319600,0.504319580078125,0.00023591681383550167,-0.0010794959962368011,-0.0037168830167502165
1772699650777276700,0.514276611328125,-0.001337249530479312,-0.0009668273851275444,0.00005767308175563812
1772699650787233800,0.52423388671875,-0.0008541521383449435,-0.0015969309024512768,-0.0011335588060319424
1772699650797190700,0.534190673828125,0.0008673197589814663,0.001157307531684637,0.00017807353287935257
1772699650807147800,0.544147705078125,-0.0010360414162278175,-0.0034430366940796375,-0.0023916105274111032
1772699650817105000,0.55410498046875,-0.001707708928734064,-0.0013865348882973194,-0.00006411084905266762
1772699650827061800,0.564061767578125,-0.000386248342692852,0.0013456018641591072,-0.0004691774956882
1772699650837018600,0.5740185546875,-0.000755124376155436,0.000999670010060072,0.000565837137401104
1772699650846975700,0.583975830078125,0.0005431666504591703,-0.00042778439819812775,-0.0006038229912519455
1772699650856932600,0.5939326171875,-0.0005518647376447916,-0.000029669608920812607,-0.0011587548069655895
1772699650866889700,0.6038896484375,0.0012673407327383757,0.00022120028734207153,0.0030807312577962875
1772699650876846800,0.613846923828125,0.0003727709408849478,0.000968223437666893,-0.0022275596857070923
1772699650886803700,0.6238037109375,0.002068405272439122,-0.00047094887122511864,-0.0013268787879496813
1772699650896760600,0.633760498046875,0.0010018651373684406,0.0010062800720334053,-0.0016267034225165844
1772699650906717700,0.6437177734375,0.0011094568762928247,-0.00030958792194724083,0.0006423098966479301
1772699650916674600,0.653674560546875,-0.0005111461505293846,-0.002462187549099326,0.0000024936161935329437
1772699650926631700,0.663631591796875,-0.0001593425404280424,-0.0008736117742955685,0.0005713445134460926
1772699650936588800,0.6735888671875,-0.0005931714549660683,0.0004395926371216774,0.000723943579941988
1772699650946546000,0.6835458984375,-0.0029615205712616444,0.003798638004809618,-0.00467641418799758
1772699650956503600,0.693503662109375,0.0021693853195756674,-0.000011042691767215729,0.00230140658095479
1772699650966460700,0.703460693359375,0.0010316830594092607,0.0007365061901509762,-0.0011385984253138304
1772699650976417800,0.713417724609375,0.001695315120741725,0.002174627035856247,0.0005129375495016575
1772699650986374700,0.723374755859375,-0.0010072606382891536,0.0030920859426259995,-0.0010436801239848137
1772699650996331800,0.733331787109375,0.00029529142193496227,0.0012438520789146423,0.0008471640758216381
1772699651006288600,0.74328857421875,-0.0005926063749939203,0.00016873376443982124,-0.0032101618126034737
1772699651016245800,0.753245849609375,0.00013502431102097034,0.0004073255695402622,0.0004163123667240143
1772699651026202600,0.76320263671875,0.0016189375892281532,0.0011151940561830997,-0.0007679953705519438
1772699651036159700,0.77315966796875,-0.00024374132044613361,0.0009948508813977242,0.0016101077198982239
1772699651046116900,0.783116943359375,-0.00018728245049715042,0.00024756789207458496,0.0003791945055127144
1772699651056073700,0.79307373046875,0.00012819888070225716,0.00022289156913757324,-0.0024715582840144634
1772699651066030800,0.80303076171875,-0.00048672500997781754,0.002693772781640291,-0.001013211440294981
1772699651075987700,0.81298779296875,0.0010759534779936075,-0.00039352569729089737,-0.000010682269930839539
1772699651085944600,0.822944580078125,0.0002535693347454071,0.0004696049727499485,-0.00011374661698937416
1772699651095901700,0.832901611328125,-0.0005323109216988087,-0.001210325863212347,-0.002213012659922242
1772699651105858800,0.84285888671875,0.003029134590178728,0.00020700832828879356,-0.0019179342780262232
1772699651115815700,0.852815673828125,0.0009805841837078333,-0.00012817326933145523,-0.002766318153589964
1772699651125772800,0.862772705078125,0.001217339187860489,0.0006209742277860641,-0.0010437853634357452
1772699651135729700,0.872729736328125,0.0013787182979285717,0.0023554363287985325,0.0019102380611002445
1772699651145686500,0.8826865234375,-0.0004266388714313507,0.002299776766449213,-0.0023454930633306503
1772699651155643600,0.8926435546875,-0.0013912729918956757,-0.0011415430344641209,0.0016343933530151844
1772699651165600800,0.902600830078125,-0.0005768781993538141,-0.00032501760870218277,-0.0003645750693976879
1772699651175557600,0.9125576171875,-0.0006684537511318922,0.00013702362775802612,-0.0020898296497762203
1772699651185514800,0.9225146484375,-0.00023276056163012981,-0.0012789792381227016,0.0029587247408926487
1772699651195472000,0.932471923828125,0.0006021286826580763,-0.0005088560283184052,-0.00016818474978208542
1772699651205428700,0.9424287109375,0.0008436774369329214,0.0008176644332706928,-0.00009814323857426643
1772699651215385600,0.952385498046875,-0.0020692695397883654,0.001570264808833599,0.001285739243030548
1772699651225342700,0.9623427734375,0.00032890704460442066,0.0007097977213561535,0.00044710980728268623
1772699651235299800,0.9722998046875,-0.0006820289418101311,-0.00044441642239689827,-0.0014434682670980692
1772699651245256700,0.982256591796875,-0.00022396515123546124,-0.000780241098254919,0.001242329366505146
1772699651255213800,0.9922138671875,0.001805946696549654,0.002137494273483753,-0.0018173546995967627
1772699651265170700,1.002170654296875,-0.0009056837297976017,-0.0022948049008846283,0.0009134504944086075
1772699651275127600,1.01212744140625,-0.0005682979244738817,-0.001561618410050869,0.001714053563773632
1772699651285085700,1.022085693359375,0.0030615907162427902,-0.000740033108741045,0.0011835522018373013
1772699651295042800,1.032042724609375,-0.000509628327563405,-0.0014538699761033058,0.0020985212177038193
1772699651305000000,1.042,0.0018038598354905844,0.00006120232865214348,0.0013107582926750183
1772699651314956500,1.05195654296875,-0.0036671548150479794,-0.0010082353837788105,-0.0024955307599157095
1772699651324913700,1.06191357421875,0.0006671398878097534,-0.001386670395731926,0.0003713620826601982
1772699651334870800,1.071870849609375,-0.00005043833516538143,-0.0005411063320934772,-0.00023468025028705597
1772699651344827600,1.08182763671875,0.0020316210575401783,-0.00044150417670607567,0.001157886814326048
1772699651354784800,1.09178466796875,0.000828080577775836,-0.00404027896001935,0.0013890741392970085
1772699651364742000,1.101741943359375,0.0010533840395510197,-0.0034027183428406715,-0.005055243149399757
1772699651374698800,1.11169873046875,0.0006076174322515726,-0.0013992437161505222,-0.0005851341411471367
1772699651384655600,1.121655517578125,-0.0029628826305270195,-0.0002575465478003025,-0.001037605106830597
1772699651394612700,1.13161279296875,0.0010830601677298546,-0.0004378766752779484,0.0007718717679381371
1772699651404569600,1.141569580078125,0.0025576523039489985,0.00023137591779232025,0.0003508259542286396
1772699651414526700,1.151526611328125,0.002023638691753149,0.0008793487213551998,0.0006165886297821999
1772699651424483800,1.16148388671875,-0.0017697680741548538,-0.00105996523052454,-0.00033362722024321556
1772699651434440700,1.171440673828125,0.001005939207971096,-0.0003377883695065975,0.0015553971752524376
1772699651444397600,1.1813974609375,0.000049598049372434616,-0.000015811994671821594,-0.0006446400657296181
1772699651454354700,1.191354736328125,-0.0011487776646390557,0.00039789173752069473,0.0008017146028578281
1772699651464311800,1.201311767578125,0.000049644848331809044,0.0006700665690004826,-0.002212983788922429
1772699651474268700,1.2112685546875,-0.00027498998679220676,0.0010712509974837303,-0.0017827018164098263
1772699651484225800,1.221225830078125,0.0008975998498499393,0.0018552858382463455,0.0003156028687953949
1772699651494183000,1.231182861328125,-0.0018660007044672966,0.0012071272358298302,0.0016150265000760555
1772699651504139800,1.241139892578125,0.0005657316651195288,-0.0005143401212990284,0.00013883598148822784
1772699651514096600,1.2510966796875,-0.000039303675293922424,0.0002310420386493206,-0.0014569403138011694
1772699651524053800,1.2610537109375,-0.0005386464763432741,0.00011333031579852104,-0.0006292299367487431
1772699651534010600,1.2710107421875,0.0014397664926946163,-0.0012775976210832596,-0.004055860452353954
1772699651543967700,1.2809677734375,-0.0005125969182699919,-0.0010562888346612453,-0.0015375753864645958
1772699651553924900,1.2909248046875,-0.0033840052783489227,0.0013645496219396591,-0.0028649542946368456
1772699651563881700,1.3008818359375,-0.0008524043951183558,-0.001028833445161581,0.0005249832756817341
1772699651573838600,1.310838623046875,0.0008502553682774305,0.00015385402366518974,-0.000018623191863298416
1772699651583795700,1.320795654296875,-0.0003785272128880024,-0.000449351966381073,0.000973937101662159
1772699651593752600,1.330752685546875,-0.0002896145451813936,-0.0013875295408070087,0.0024924809113144875
1772699651603709700,1.340709716796875,0.0029178964905440807,-0.0015651620924472809,0.0006066961213946342
1772699651613667800,1.350667724609375,0.0022021899931132793,0.00024062953889369965,-0.0029805777594447136
1772699651623624700,1.360624755859375,0.0013632941991090775,-0.00001982739195227623,-0.0036450366023927927
1772699651633581600,1.37058154296875,-0.001644380739890039,0.002209925092756748,0.00014822650700807571
1772699651643538700,1.38053857421875,-0.0003479539882391691,0.0011369376443326473,0.003478508908301592
1772699651653495800,1.390495849609375,-0.0020979559049010277,-0.0004979623481631279,0.0016711056232452393
1772699651663452700,1.40045263671875,0.000014197081327438354,0.0012000692076981068,0.001199193298816681
1772699651673409800,1.410409912109375,-0.0008249523816630244,0.0015755160711705685,-0.0015450238715857267
1772699651683366700,1.42036669921875,-0.00043000560253858566,-0.001249298918992281,-0.0009159850887954235
1772699651693323500,1.430323486328125,0.0009705489501357079,-0.0020645163021981716,0.0043823677115142345
1772699651703279900,1.44027978515625,0.0017436647322028875,0.00012833019718527794,0.000837966799736023
1772699651713236700,1.45023681640625,-0.0006083478219807148,-0.001204090192914009,0.0030986755155026913
1772699651723193900,1.46019384765625,-0.0007556205382570624,-0.000737770926207304,-0.0033544301986694336
1772699651733151000,1.47015087890625,0.0010836776345968246,0.00041720597073435783,0.0015557114966213703
1772699651743107800,1.48010791015625,-0.0027137238066643476,0.0012145563960075378,0.0010558362118899822
1772699651753065000,1.49006494140625,0.00004646647721529007,0.00047215819358825684,0.00034313416108489037
1772699651763021800,1.500021728515625,0.0039485301822423935,0.001009318046271801,-0.0021391981281340122
1772699651772978700,1.509978759765625,-0.0005200407467782497,0.0010637925006449223,0.0016342969611287117
1772699651782935800,1.519935791015625,-0.002020732033997774,0.0012749810703098774,-0.001631803810596466
1772699651792893000,1.529892822265625,-0.0013936974573880434,0.00045794062316417694,0.0012175729498267174
1772699651802850000,1.53985009765625,-0.0010959560750052333,0.000998029951006174,-0.0035388327669352293
1772699651812807000,1.549806884765625,-0.004032480530440807,0.00023131398484110832,0.0010360358282923698
1772699651822764000,1.559763916015625,-0.000006845919415354729,-0.0004573790356516838,0.0011297790333628654
1772699651832721000,1.569720947265625,0.00006235972978174686,-0.0027556961867958307,0.0015011993236839771
1772699651842677800,1.579677734375,0.0003321380354464054,0.0005844403058290482,0.0006718910299241543
1772699651852635000,1.589634765625,-0.0017112235073000193,-0.00026209093630313873,0.00035260245203971863
1772699651862592000,1.599592041015625,0.0020209301728755236,0.0011579063721001148,-0.0003432817757129669
1772699651872548900,1.609548828125,0.0006280557718127966,0.00015630247071385384,-0.0028376455884426832
1772699651882506000,1.619506103515625,0.0001846393570303917,-0.00011107884347438812,0.00040768226608633995
1772699651892462800,1.629462890625,0.0008170113433152437,-0.00012967921793460846,0.0006605507805943489
1772699651902419700,1.639419677734375,0.0011014367919415236,-0.0009446064941585064,0.0017583058215677738
1772699651912376800,1.649376953125,-0.0006701282691210508,0.0011039949022233486,0.00003387965261936188
1772699651922334000,1.659333984375,0.0016332396771758795,0.0027226638048887253,0.002053088042885065
1772699651932290800,1.669290771484375,0.0003889412619173527,0.0024968143552541733,-0.0009902715682983398
1772699651942248000,1.679248046875,0.0019516840111464262,0.0002254038117825985,0.0014379988424479961
1772699651952205000,1.689205078125,-0.0008538435213267803,-0.0012838542461395264,-0.0015810360200703144
1772699651962161700,1.69916162109375,-0.0013507893308997154,-0.0005387016572058201,-0.00032695336267352104
1772699651972119800,1.709119873046875,0.0005946033634245396,0.00006364937871694565,-0.0016377901192754507
1772699651982077000,1.719076904296875,-0.00032471981830894947,-0.0015582158230245113,0.003392921295017004
1772699651992034000,1.729033935546875,0.00027572945691645145,0.0021958635188639164,-0.0028837674763053656
1772699652001991000,1.738990966796875,-0.000987407867796719,-0.0009400090202689171,-0.000024064909666776657
1772699652011947800,1.74894775390625,-0.0007113378960639238,0.00014162622392177582,-0.00273531349375844
1772699652021905000,1.75890478515625,0.0008921513799577951,0.0010332525707781315,0.0010812627151608467
1772699652031861800,1.76886181640625,-0.000782837625592947,0.0002553989179432392,0.000978877767920494
1772699652041819000,1.77881884765625,0.0020052255131304264,-0.0014961622655391693,0.0002808631397783756
1772699652051776000,1.78877587890625,0.0005987666081637144,-0.00038371700793504715,-0.0012614608276635408
1772699652061733000,1.798733154296875,0.0037373017985373735,0.0007214951328933239,0.00029062945395708084
1772699652071689700,1.808689697265625,0.0014526413287967443,0.002735584508627653,-0.0006314837373793125
1772699652081646800,1.818646728515625,0.002353322459384799,-0.0007552872411906719,0.0013967794366180897
1772699652091604000,1.82860400390625,0.0017564019653946161,0.0001568240113556385,-0.0006393692456185818
1772699652101560800,1.838560791015625,0.002012331737205386,0.002439419273287058,-0.0022481847554445267
1772699652111518000,1.84851806640625,0.0034830947406589985,0.00009060697630047798,0.004100373480468988
1772699652121475000,1.85847509765625,0.0023986557498574257,-0.0012854482047259808,0.00020203832536935806
1772699652131432000,1.868431884765625,0.002431481843814254,-0.0020815636962652206,0.0020670918747782707
1772699652141388800,1.878388916015625,0.00042186048813164234,-0.00033825822174549103,0.0011477689258754253
1772699652151346000,1.888345947265625,-0.0003726240247488022,-0.0011741849593818188,0.002197031397372484
1772699652161302800,1.898302734375,0.0008817247580736876,-0.00021491432562470436,-0.001657095504924655
1772699652171260000,1.908260009765625,-0.0024606306105852127,0.00018415646627545357,-0.004766982980072498
1772699652181217000,1.918217041015625,-0.0005524756852537394,-0.00146194314584136,0.0005667959339916706
1772699652191174000,1.928173828125,-0.0012350254692137241,0.00011672545224428177,0.003808473702520132
1772699652201130800,1.938130859375,-0.0002701622433960438,0.00004135817289352417,-0.001590552506968379
1772699652211088000,1.948087890625,0.0013052287977188826,0.0008445349521934986,0.0003993925638496876
1772699652221044700,1.958044677734375,-0.0008268979145213962,0.00005304347723722458,-0.002889078576117754
1772699652231001900,1.968001953125,-0.0009880735306069255,-0.00036256294697523117,0.0003594127483665943
1772699652240959000,1.977958984375,-0.002128971740603447,-0.0009276857599616051,0.0027208374813199043
1772699652250916000,1.987916015625,-0.0010374003322795033,-0.0006378833204507828,-0.0001538158394396305
1772699652260873000,1.997873046875,-0.0010086381807923317,0.00010487250983715057,0.00013087596744298935
1772699652270829800,2.007829833984375,-0.000290886964648962,0.00375308096408844,-0.0033695946913212538
1772699652280787000,2.017786865234375,-0.002090651309117675,-0.0003985203802585602,-0.0025000725872814655
1772699652290743800,2.027743896484375,0.0004057090263813734,0.00042954646050930023,-0.0028520647902041674
1772699652300701000,2.037700927734375,0.0013849532697349787,-0.0012794039212167263,-0.002077084966003895
1772699652310658000,2.047657958984375,0.0004056571051478386,0.00010349787771701813,-0.0018481204751878977
1772699652320615000,2.057614990234375,0.0006205742247402668,0.0015653069131076336,0.0002669617533683777
1772699652330572800,2.06757275390625,0.0021762254182249308,-0.00002626236528158188,0.000054413918405771255
1772699652340530000,2.077530029296875,-0.00027361628599464893,-0.0014166985638439655,0.0004408382810652256
1772699652350487000,2.087487060546875,-0.001075353124178946,0.00046104704961180687,0.0020924690179526806
1772699652360444000,2.09744384765625,0.0010445232037454844,0.0005947379395365715,-0.00028360355645418167
1772699652370401000,2.107401123046875,-0.0014107591705396771,0.0002862950786948204,-0.0015763670671731234
1772699652380358000,2.11735791015625,0.0019789121579378843,-0.0023763333447277546,-0.001403261674568057
1772699652390314800,2.127314697265625,0.002010608557611704,-0.000889296643435955,0.002215051092207432
1772699652400272000,2.13727197265625,-0.0012578892055898905,0.0010771816596388817,-0.0033938325941562653
1772699652410229000,2.14722900390625,0.0018213477451354265,0.0002871798351407051,-0.0007770056836307049
1772699652420185900,2.157185791015625,-0.0005707035306841135,-0.0016531995497643948,0.0028755194507539272
1772699652430143000,2.16714306640625,0.0007077387999743223,-0.00032592378556728363,0.001887606456875801
1772699652440099800,2.177099853515625,-0.0011069391621276736,0.00040484732016921043,0.000246566254645586
1772699652450056700,2.187056640625,0.001026760321110487,-0.0013691377826035023,0.0002848431468009949
1772699652460013800,2.197013916015625,0.001978307729586959,-0.000131300650537014,-0.0005007893778383732
1772699652469971000,2.206970947265625,0.0009616757743060589,0.0011845650151371956,-0.00006706081330776215
1772699652479928000,2.216927978515625,0.0029798191972076893,-0.000484970398247242,-0.0011070254258811474
1772699652489885000,2.226885009765625,-0.0006219169590622187,-0.00040132831782102585,-0.0030910633504390717
1772699652499842000,2.236842041015625,0.0026830658316612244,-0.004336947575211525,0.001465072389692068
1772699652509799000,2.246798828125,-0.0018153332639485598,-0.0033212394919246435,-0.0007563172839581966
1772699652519755800,2.256755859375,-0.0016723214648663998,0.0022114780731499195,-0.0033523666206747293
1772699652529713000,2.266712890625,-0.000979253905825317,-0.00021227123215794563,-0.0035248512867838144
1772699652539670000,2.276669921875,0.0021694013848900795,-0.00017498666420578957,-0.000575666781514883
1772699652549627000,2.286626953125,-0.0010723151499405503,-0.00011331960558891296,-0.0005520591512322426
1772699652559584000,2.296583984375,0.0006004162132740021,0.0004512704908847809,-0.0016282426659017801
1772699652569540900,2.306540771484375,0.0004904202651232481,-0.0007921936921775341,-0.00026581063866615295
1772699652579497700,2.316497802734375,0.0014888392761349678,-0.0005162903107702732,0.0022338321432471275
1772699652589454800,2.326454833984375,-0.0005240379832684994,0.0006712246686220169,0.00019452394917607307
1772699652599412000,2.336411865234375,0.00008129840716719627,-0.0000334479846060276,-0.0008150804787874222
1772699652609368800,2.346368896484375,-0.0010393690317869186,-0.0007910057902336121,-0.00047325296327471733
1772699652619326000,2.356325927734375,-0.00021911528892815113,-0.0012434772215783596,0.0011552702635526657
1772699652629283000,2.366282958984375,0.0020347158424556255,0.0006359098479151726,0.0014157514087855816
1772699652639239700,2.37623974609375,-0.0017861214000731707,-0.001879978459328413,-0.0009003998711705208
1772699652649196800,2.38619677734375,-0.0009991739643737674,-0.0007262500002980232,0.00294902129098773
1772699652659154000,2.39615380859375,0.002177977003157139,-0.0011654053814709187,0.0011673667468130589
1772699652669111000,2.406111083984375,-0.0028873872943222523,-0.0003512757830321789,0.0006929370574653149
1772699652679068000,2.41606787109375,0.0010386446956545115,0.0005400842055678368,-0.0030219065956771374
1772699652689025000,2.42602490234375,-0.00047241663560271263,-0.0008734227158129215,0.00196828693151474
1772699652698982000,2.43598193359375,0.0005092243663966656,0.0012959879823029041,-0.0022371108643710613
1772699652708939300,2.445939208984375,0.0006762668490409851,0.0004539173096418381,0.00031816912814974785
1772699652718896000,2.455896240234375,0.0002775916364043951,0.00043847085908055305,-0.0014206089545041323
1772699652728854300,2.465854248046875,-0.0009499219013378024,0.0000359266996383667,-0.000663016689941287
1772699652738811100,2.47581103515625,0.0017571814823895693,-0.00037473253905773163,-0.000051554758101701736
1772699652748768300,2.485768310546875,0.0007197726517915726,0.0000309869647026062,0.00023128371685743332
1772699652758725000,2.49572509765625,-0.0007945006946101785,0.00004084082320332527,0.002116535324603319
1772699652768682200,2.50568212890625,-0.0009690450970083475,0.0009296308271586895,-0.0013970748987048864
1772699652778639400,2.515639404296875,-0.002556022722274065,0.00007315864786505699,0.0010303966701030731
1772699652788596200,2.52559619140625,0.00027425563894212246,-0.0004191235639154911,-0.0009089724626392126
1772699652798553300,2.53555322265625,-0.0006975317373871803,-0.0010518906638026237,0.0005637556314468384
1772699652808510200,2.54551025390625,-0.0009610578417778015,-0.0001693633385002613,-0.0002507050521671772
1772699652818467000,2.555467041015625,0.002737540053203702,0.0001890980638563633,0.0005402537062764168
1772699652828424200,2.565424072265625,-0.0014633749378845096,0.0006948276422917843,0.0011840220540761948
1772699652838381300,2.57538134765625,0.00007859524339437485,0.0005744528025388718,-0.0015760778915137053
1772699652848338200,2.585338134765625,0.0006888548377901316,0.00005424441769719124,-0.0034892254043370485
1772699652858295300,2.59529541015625,0.0010369301307946444,0.001446811482310295,0.0003766193985939026
1772699652868252200,2.605252197265625,0.0012214458547532558,0.000047991517931222916,-0.002593090757727623
1772699652878209000,2.615208984375,0.0004115784540772438,-0.0006497567519545555,-0.0003014407120645046
1772699652888166100,2.625166259765625,0.0017981862183660269,-0.0009248168207705021,-0.0010938188061118126
1772699652898123300,2.635123291015625,0.0001259874552488327,-0.003090765792876482,0.0022718841210007668
1772699652908080400,2.645080322265625,-0.00039730919525027275,0.0014752736315131187,-0.0019560731016099453
1772699652918037200,2.655037353515625,0.00035450118593871593,-0.00022914959117770195,-0.0001784129999577999
1772699652927994400,2.664994384765625,-0.0005913244094699621,0.00043947063386440277,-0.0001285737380385399
1772699652937951200,2.674951171875,0.0003277324140071869,0.0010171104222536087,-0.0004473542794585228
1772699652947908000,2.684908203125,-0.0018356145592406392,0.0015394515357911587,0.0010383310727775097
1772699652957865200,2.694865234375,-0.00019697146490216255,-0.00007309252396225929,-0.0017686409410089254
1772699652967822300,2.704822265625,-0.0010073899757117033,0.0008437563665211201,-0.002177465008571744
1772699652977779200,2.714779296875,0.00249626487493515,-0.00010193232446908951,0.00024840841069817543
1772699652987736300,2.724736328125,0.0030118476133793592,-0.0002650143578648567,-0.0001456737518310547
1772699652997693200,2.734693115234375,-0.00007875077426433563,0.000009823590517044067,-0.0014370407443493605
1772699653007650000,2.744650146484375,-0.00038676499389111996,0.0019460925832390785,-0.00192862912081182
1772699653017607200,2.754607177734375,-0.001991053344681859,0.0002720290794968605,-0.003796836594119668
1772699653027564300,2.764564208984375,-0.0008765527745708823,0.0026394654996693134,0.0015371586196124554
1772699653037521200,2.774521240234375,-0.0009045159677043557,0.001136111095547676,0.00081251235678792
1772699653047478300,2.784478271484375,-0.003105712356045842,-0.002228387864306569,0.0017645619809627533
1772699653057435400,2.794435302734375,0.0016656070947647095,0.00130908889696002,0.0008260640315711498
1772699653067392300,2.804392333984375,-0.0004014784935861826,-0.0021286257542669773,-0.00036506541073322296
1772699653077349000,2.81434912109375,0.0014938930980861187,-0.00004816427826881409,-0.003833033610135317
1772699653087306200,2.82430615234375,-0.0008020652458071709,0.00006500538438558578,-0.001382316928356886
1772699653097263400,2.834263427734375,0.00037957937456667423,0.0013577034696936607,0.0022145481780171394
1772699653107220200,2.84422021484375,0.001053321873769164,-0.00022579776123166084,-0.0002118963748216629
1772699653117178000,2.85417822265625,-0.0018511214293539524,-0.0006665508262813091,-0.0027650692500174046
1772699653127135200,2.86413525390625,0.0010639363899827003,0.0022704354487359524,-0.0015170916449278593
1772699653137092000,2.874092041015625,-0.002542782574892044,0.0001873113214969635,0.0005095740780234337
1772699653147049200,2.88404931640625,-0.0015275714686140418,-0.00012588268145918846,-0.003913326188921928
1772699653157006300,2.89400634765625,-0.0021603386849164963,0.0015836004167795181,0.001331237144768238
1772699653166963500,2.90396337890625,-0.00027965614572167397,0.0011553829535841942,-0.0012272277381271124
1772699653176920000,2.913920166015625,0.00034512137062847614,0.0014073178172111511,0.0008154166862368584
1772699653186877200,2.923877197265625,-0.00014507933519780636,0.0013449438847601414,-0.00019965274259448051
1772699653196834300,2.933834228515625,-0.002732606837525964,-0.0016215508803725243,-0.00034479517489671707
1772699653206791200,2.943791259765625,-0.0010004648938775063,0.0015235119499266148,0.002571309916675091
1772699653216748300,2.953748291015625,0.0017756144516170025,-0.0005236598663032055,0.003282906487584114
1772699653226705400,2.963705322265625,0.0001478218473494053,0.0012645800597965717,0.0009381631389260292
1772699653236662300,2.973662353515625,-0.0010082564549520612,-0.001218817662447691,0.0012923632748425007
1772699653246619100,2.983619140625,0.0028170435689389706,0.00004956172779202461,-0.0023504518903791904
1772699653256576300,2.993576171875,0.0002321791835129261,-0.0020585963502526283,-0.0005293823778629303
1772699653266533000,3.003533203125,0.0014166694600135088,-0.00031566526740789413,0.0031268238089978695
1772699653276490200,3.013490234375,0.0015602137427777052,-0.00004508811980485916,-0.0025718084070831537
1772699653286447400,3.023447265625,-0.002694765105843544,0.0009949244558811188,-0.0005475098732858896
1772699653296404200,3.033404296875,0.0004600156098604202,0.0011310121044516563,0.0005766102112829685
1772699653306361000,3.043361083984375,-0.0009648794075474143,0.0016804174520075321,-0.0012862212024629116
1772699653316318200,3.053318115234375,-0.0012013680534437299,0.0012117009609937668,0.0011375215835869312
1772699653326275300,3.063275390625,0.00021534576080739498,-0.000868192408233881,0.0006402852013707161
1772699653336232200,3.073232177734375,0.003002610057592392,-0.000356865581125021,0.0023742695339024067
1772699653346189300,3.083189208984375,0.001932258252054453,0.0015395786613225937,-0.002300990279763937
1772699653356146400,3.093146484375,-0.0003940130118280649,-0.0010484810918569565,-0.002592340111732483
1772699653366103300,3.103103271484375,0.0012218211777508259,0.0022157523781061172,-0.0010201199911534786
1772699653376060200,3.11306005859375,0.0002939759287983179,-0.00021065399050712585,0.0006211861036717892
1772699653386017300,3.123017333984375,0.0004962016828358173,-0.001345424447208643,-0.0009538431186228991
1772699653395974100,3.13297412109375,0.0004365467466413975,0.002270615193992853,-0.00027207378298044205
1772699653405931300,3.14293115234375,-0.002139718970283866,0.0011057010851800442,0.003224319778382778
1772699653415888400,3.152888427734375,0.00045846099965274334,0.00042313290759921074,0.002707932610064745
1772699653425845200,3.16284521484375,0.0017336024902760983,-0.00012422585859894753,-0.0011096922680735588
1772699653435802000,3.172802001953125,0.0010851225815713406,0.0014020316302776337,0.0008410732261836529
1772699653445759200,3.18275927734375,-0.0008534749504178762,0.001822794321924448,0.00050704600289464
1772699653455716000,3.192716064453125,0.0007249806076288223,-0.0005372990854084492,0.0005299490876495838
1772699653465673200,3.202673095703125,0.0006766912993043661,-0.00041969073936343193,0.00021087471395730972
1772699653475630300,3.21263037109375,-0.00021626660600304604,-0.0007840110920369625,-0.001016576075926423
1772699653485587200,3.222587158203125,0.001273561269044876,0.0005346578545868397,0.00117802107706666
1772699653495544300,3.23254443359375,0.0018341564573347569,-0.00019371695816516876,0.0013995957560837269
1772699653505501200,3.242501220703125,0.0021106209605932236,0.0014434587210416794,-0.0010169213637709618
1772699653515458300,3.252458251953125,0.0018267277628183365,-0.0008186302147805691,0.0015335879288613796
1772699653525415200,3.262415283203125,0.0004123703110963106,0.0013968488201498985,-0.002154726069420576
1772699653535373300,3.272373291015625,0.000999597366899252,0.0014061694964766502,-0.0024950779043138027
1772699653545330200,3.282330078125,0.001936689019203186,-0.002142540644854307,0.0006940499879419804
1772699653555287000,3.292287109375,-0.0004143493715673685,0.00031156232580542564,-0.00003672158345580101
1772699653565244200,3.302244140625,0.0013467734679579735,-0.0016567669808864594,0.0009438418783247471
1772699653575201300,3.312201171875,-0.0006575214210897684,-0.0006074812263250351,0.0013411855325102806
1772699653585158400,3.322158447265625,-0.001993899466469884,0.002339709550142288,-0.0038289560470730066
1772699653595115300,3.332115234375,-0.00034566898830235004,-0.0012931087985634804,-0.0012960236053913832
1772699653605072400,3.342072265625,0.0018900181166827679,0.001426955685019493,-0.0008648745715618134
1772699653615029200,3.352029296875,-0.00010655354708433151,0.0015265578404068947,-0.0016739428974688053
1772699653624986000,3.361986083984375,-0.0017436197958886623,0.0005314876325428486,-0.0022637418005615473
1772699653634943200,3.371943115234375,-0.00014465791173279285,0.000044395215809345245,0.0030138446018099785
1772699653644900400,3.381900390625,-0.0006803101859986782,-0.002205789089202881,-0.0009956927970051765
1772699653654857200,3.391857177734375,0.000742883188650012,-0.0012406595051288605,0.00355644803494215
1772699653664814300,3.401814453125,0.000963596161454916,0.00019147247076034546,0.0016809138469398022
1772699653674771200,3.411771240234375,-0.002216218039393425,0.0002806880511343479,-0.0036861547268927097
1772699653684728000,3.42172802734375,0.003339388407766819,-0.00008755270391702652,-0.0018045247998088598
1772699653694685200,3.431685302734375,0.00009858794510364532,-0.00023136334493756294,-0.0020529977045953274
1772699653704642300,3.441642333984375,0.00006581610068678856,-0.0012416294775903225,-0.00034260330721735954
1772699653714599200,3.45159912109375,0.0011151013895869255,0.0027144961059093475,-0.000754061620682478
1772699653724556300,3.461556396484375,0.002269785152748227,0.0015821079723536968,0.000058228615671396255
1772699653734513200,3.47151318359375,-0.0006264026742428541,0.0006121844053268433,-0.0006171492859721184
1772699653744470000,3.481469970703125,0.002142143901437521,-0.0005832202732563019,-0.0008102860301733017
1772699653754427100,3.49142724609375,0.000648643122985959,-0.0007720384746789932,0.00018600234761834145
1772699653764384000,3.501384033203125,-0.00015627755783498287,-0.0013526352122426033,0.0023264908231794834
1772699653774341000,3.511341064453125,-0.0017347332322970033,0.0005315509624779224,-0.001581964548677206
1772699653784298200,3.52129833984375,-0.002130860695615411,0.0026225713081657887,-0.0015610968694090843
1772699653794255000,3.531255126953125,-0.0011841069208458066,0.0021661058999598026,-0.003741160500794649
1772699653804212000,3.5412119140625,0.0008345465175807476,-0.0009880820289254189,0.0013841097243130207
1772699653814169000,3.551169189453125,0.00005850126035511494,0.00044576404616236687,0.002121272962540388
1772699653824126000,3.5611259765625,-0.0017303162021562457,0.0011212276294827461,-0.0011814443860203028
1772699653834083000,3.5710830078125,-0.0007625236175954342,-0.00014297524467110634,0.0006276406347751617
1772699653844040200,3.581040283203125,-0.0018350858008489013,-0.0007697814144194126,-0.0009351179469376802
1772699653853997000,3.5909970703125,-0.0005618284922093153,-0.000660591758787632,-0.0009084863122552633
1772699653863954200,3.6009541015625,-0.003905944526195526,0.001471913419663906,-0.0018666540272533894
1772699653873911000,3.6109111328125,0.0015229096170514822,0.0018748496659100056,0.000004482921212911606
1772699653883868200,3.6208681640625,0.0002966469619423151,0.0014188527129590511,0.0011647697538137436
1772699653893825000,3.630824951171875,-0.001983019057661295,-0.001752439420670271,0.0025639948435127735
1772699653903782100,3.6407822265625,-0.00039729452691972256,-0.00026144087314605713,-0.00006738957017660141
1772699653913739300,3.6507392578125,-0.0008553583174943924,-0.000583150889724493,-0.0024434621445834637
1772699653923696000,3.660696044921875,0.0012903211172670126,0.0004772990942001343,0.0011946223676204681
1772699653933654000,3.670654052734375,-0.00007534795440733433,0.0016477582976222038,0.00285909790545702
1772699653943610000,3.680610107421875,-0.00192067283205688,0.00021063676103949547,0.00010276958346366882
1772699653953568300,3.690568359375,-0.0002902855630964041,-0.0003203973174095154,0.0020234412513673306
1772699653963525000,3.700525146484375,-0.0020883451215922832,-0.001796993426978588,-0.0004013008438050747
1772699653973482200,3.710482177734375,0.001249927096068859,-0.0012449203059077263,-0.0012838724069297314
1772699653983439000,3.720439208984375,0.0017568266484886408,-0.0005038385279476643,0.00017961161211133003
1772699653993396000,3.73039599609375,-0.003913043066859245,0.001295925583690405,0.00030291592702269554
1772699654003353000,3.74035302734375,-0.0005115813110023737,-0.0005901944823563099,-0.0014139353297650814
1772699654013310200,3.750310302734375,-0.0013025401858612895,-0.000057295896112918854,-0.00041631516069173813
1772699654023267000,3.76026708984375,-0.0006681745871901512,0.0035718209110200405,-0.0007905745878815651
1772699654033224200,3.77022412109375,0.0014791321009397507,0.0013675219379365444,-0.0033261701464653015
1772699654043181000,3.78018115234375,0.00011832057498395443,-0.0008545080199837685,0.0022601322270929813
1772699654053138000,3.790137939453125,-0.003176542464643717,0.0015676370821893215,-0.0007710778154432774
1772699654063095000,3.800094970703125,-0.0020592263899743557,-0.0012406227178871632,0.0017076591029763222
1772699654073052200,3.81005224609375,0.002802906557917595,-0.002445703139528632,0.0008996562100946903
1772699654083009000,3.820009033203125,0.000624809879809618,0.0006685112603008747,-0.0006175569724291563
1772699654092966100,3.829966064453125,0.0005379908252507448,0.0017974250949919224,0.001046918798238039
1772699654102923300,3.83992333984375,0.002030781237408519,-0.0015306677669286728,-0.0006199541967362165
1772699654112879900,3.8498798828125,-0.0006313144695013762,0.0005290210247039795,-0.0008732208516448736
1772699654122837000,3.8598369140625,0.001780244754627347,-0.0014713085256516933,-0.0018364312127232552
1772699654132794000,3.869794189453125,-0.001566549763083458,-0.0007567824795842171,0.0010821269825100899
1772699654142751200,3.879751220703125,-0.0012140852632001042,0.00002114567905664444,0.0021293344907462597
1772699654152708000,3.8897080078125,0.001288487110286951,-0.0012459862045943737,0.0022414536215364933
1772699654162665200,3.899665283203125,0.0017133350484073162,0.0005974378436803818,-0.0013699126429855824
1772699654172622000,3.9096220703125,0.0009008045308291912,0.0001039537601172924,-0.0016181191895157099
1772699654182579000,3.919578857421875,-0.0009951537940651178,0.00044607697054743767,-0.0011323660146445036
1772699654192536000,3.9295361328125,0.0002932834904640913,0.00010998640209436417,0.0008599446155130863
1772699654202493200,3.9394931640625,0.0011180564761161804,-0.000532079953700304,0.002573831472545862
1772699654212450000,3.949449951171875,0.00008395127952098846,-0.0012181098572909832,-0.0011508653406053782
1772699654222407200,3.9594072265625,0.0002820624504238367,0.00004059122875332832,0.0019525028765201569
1772699654232364300,3.9693642578125,-0.0011243530316278338,-0.002420968608930707,0.0006584725342690945
1772699654242321000,3.97932080078125,0.0003889952786266804,-0.000976483803242445,0.0018958309665322304
1772699654252278000,3.989278076171875,0.0025975548196583986,0.0005423165857791901,-0.00011379038915038109
1772699654262235100,3.999235107421875,-0.000528308330103755,0.0006534517742693424,0.0010222997516393661
1772699654272192000,4.00919189453125,-0.0032460642978549004,-0.00109171774238348,0.0011717029847204685
1772699654282149000,4.019149169921875,-0.00045541045255959034,0.0015951045788824558,0.00016929535195231438
1772699654292106200,4.029106201171875,0.000503593822941184,-0.0017120088450610638,0.0030308617278933525
1772699654302063000,4.03906298828125,-0.0016054006991907954,0.0002658967860043049,-0.0001426786184310913
1772699654312020000,4.04902001953125,0.0014926546718925238,-0.0010233395732939243,-0.00032750237733125687
1772699654321977000,4.05897705078125,-0.0008425011765211821,0.0016360487788915634,-0.0005596233531832695
1772699654331934200,4.068934326171875,-0.001594844157807529,0.00004401104524731636,-0.0019998608622699976
1772699654341891000,4.07889111328125,0.0019820404704660177,-0.0018504774197936058,0.00047470396384596825
1772699654351848200,4.08884814453125,0.00016576447524130344,-0.0008717654272913933,0.0014566113241016865
1772699654361805300,4.098805419921875,0.0008593413513153791,0.000767330639064312,0.0030292109586298466
1772699654371762000,4.108761962890625,-0.0001832861453294754,0.00032897433266043663,-0.00005952315405011177
1772699654381720000,4.118719970703125,-0.0002675177529454231,-0.0011477665975689888,-0.0007242686115205288
1772699654391677200,4.12867724609375,0.0002525977324694395,-0.00048437342047691345,0.0015298309735953808
1772699654401634300,4.13863427734375,-0.004254416096955538,0.00034518446773290634,-0.0006857616826891899
1772699654411591200,4.148591064453125,-0.0013499727938324213,-0.00019064359366893768,-0.0019688725005835295
1772699654421548000,4.158548095703125,-0.003217941615730524,0.0015355483628809452,0.00019638892263174057
1772699654431505200,4.168505126953125,0.001709705451503396,-0.0014791502617299557,0.002319727558642626
1772699654441462000,4.1784619140625,-0.00007800501771271229,0.0009138756431639194,0.0006768684834241867
1772699654451419100,4.188419189453125,0.0009510403033345938,0.0012853867374360561,-0.0019926843233406544
1772699654461376300,4.198376220703125,0.00042852945625782013,0.0012717228382825851,0.0006878087297081947
1772699654471333000,4.2083330078125,-0.000005299458280205727,0.00036864494904875755,-0.0010757364798337221
1772699654481290000,4.2182900390625,0.002737515140324831,0.0004848111420869827,0.0029356349259614944
1772699654491247000,4.2282470703125,-0.0021773488260805607,-0.002174088731408119,-0.0024309009313583374
1772699654501204000,4.238203857421875,-0.00039994879625737667,-0.0005144011229276657,0.0023500649258494377
1772699654511161000,4.2481611328125,-0.0021067687775939703,-0.0002576722763478756,0.0013782773166894913
1772699654521118200,4.2581181640625,0.001373122213408351,0.0010577775537967682,0.00006923172622919083
1772699654531075000,4.268074951171875,0.000974713359028101,-0.0016053835861384869,-0.00002158200368285179
1772699654541032200,4.2780322265625,0.0010101667139679193,0.0005863294936716557,0.0014094826765358448
1772699654550989000,4.287989013671875,-0.001537679578177631,0.001245994120836258,-0.002351433504372835
1772699654560946000,4.29794580078125,0.0018596507143229246,0.001043825875967741,0.0017925319261848927
1772699654570903000,4.307903076171875,-0.0009973886189982295,0.0005815010517835617,0.0018282183445990086
1772699654580860200,4.317860107421875,0.0021713613532483578,-0.0004455437883734703,0.0013992334716022015
1772699654590817300,4.3278173828125,0.001875218003988266,0.0006799078546464443,0.0029965979047119617
1772699654600774100,4.337774169921875,0.00012580608017742634,-0.0004917909391224384,0.0012996518053114414
1772699654610731000,4.34773095703125,-0.0016896709566935897,0.0004746699705719948,-0.00004124967381358147
1772699654620688100,4.357688232421875,0.0025046304799616337,-0.002421629149466753,0.001985446084290743
1772699654630645000,4.36764501953125,0.0027565653435885906,-0.0005145394243299961,0.0028501744382083416
1772699654640602000,4.37760205078125,0.00046062120236456394,0.0013140016235411167,-0.00167711335234344
1772699654650559200,4.387559326171875,-0.0018672479782253504,-0.000007991679012775421,0.00037431949749588966
1772699654660516000,4.39751611328125,-0.000022793887183070183,0.00010604457929730415,0.003110078629106283
1772699654670473200,4.40747314453125,-0.001295252121053636,-0.0004968950524926186,-0.0026721765752881765
1772699654680430000,4.41743017578125,-0.0013282272266224027,-0.0008261059410870075,0.0006339643150568008
1772699654690387000,4.427386962890625,0.0006201413925737143,0.00001438753679394722,0.001311472151428461
1772699654700344000,4.437343994140625,0.0028461564797908068,0.0005046399310231209,0.0033261114731431007
1772699654710301400,4.447301513671875,-0.0014149009948596358,-0.000635725911706686,-0.0002553076483309269
1772699654720258600,4.457258544921875,-0.0002686812076717615,0.0007798699662089348,-0.001199149526655674
1772699654730215400,4.46721533203125,-0.00017573684453964233,-0.00018046563491225243,-0.0004995372146368027
1772699654740172300,4.47717236328125,0.0037908770609647036,-0.0018418282270431519,0.002526665572077036
1772699654750129400,4.48712939453125,0.00037270993925631046,-0.00045911502093076706,0.000004651956260204315
1772699654760086500,4.49708642578125,-0.00038439175114035606,-0.0020438185892999172,0.0017405604012310505
1772699654770043400,4.50704345703125,-0.0006826657336205244,0.002888888120651245,-0.00003097439184784889
1772699654780000500,4.51700048828125,-0.000018916092813014984,-0.00023738201707601547,0.001417673658579588
1772699654789957600,4.52695751953125,0.002002423396334052,0.00026702089235186577,0.002296250779181719
1772699654799914500,4.53691455078125,0.0001497443299740553,-0.0007140468806028366,0.0013201846741139889
1772699654809871400,4.546871337890625,-0.00111552351154387,-0.0012671854346990585,-0.0008564167656004429
1772699654819828500,4.556828369140625,0.0014448296278715134,0.00034689949825406075,0.001633241306990385
1772699654829786600,4.56678662109375,0.00023681996390223503,-0.000012893229722976685,-0.0009209963027387857
1772699654839743500,4.576743408203125,-0.00008722278289496899,-0.00011735456064343452,-0.0004630107432603836
1772699654849700400,4.586700439453125,0.0008792383596301079,0.0006312597543001175,-0.001398312859237194
1772699654859657500,4.596657470703125,0.002092519775032997,0.0012911292724311352,0.003298059105873108
1772699654869614300,4.6066142578125,-0.0014137979596853256,-0.000026869121938943863,-0.0016341153532266617
1772699654879571500,4.616571533203125,-0.0010497745824977756,0.0001794476993381977,-0.0006388446781784296
1772699654889528600,4.626528564453125,-0.0024985342752188444,-0.002045090775936842,-0.003548614215105772
1772699654899485700,4.636485595703125,-0.0006123243365436792,-0.0009092292748391628,-0.0023435354232788086
1772699654909442300,4.6464423828125,0.0008380331564694643,0.00013393070548772812,0.0003641005605459213
1772699654919399400,4.6563994140625,-0.000540650449693203,0.0003694910556077957,-0.0013173611368983984
1772699654929356500,4.6663564453125,-0.0017380076460540295,-0.00041427742689847946,-0.00013545015826821327
1772699654939313400,4.6763134765625,0.00007885764352977276,-0.0003983844071626663,-0.001535867340862751
1772699654949270500,4.6862705078125,-0.0014756293967366219,-0.0012175729498267174,-0.0009963109623640776
1772699654959227600,4.6962275390625,-0.0008774899179115891,0.0006657023914158344,0.0010246168822050095
1772699654969184500,4.7061845703125,-0.00009931414388120174,-0.0027580575551837683,-0.0024944841861724854
1772699654979141400,4.716141357421875,-0.002033489989116788,0.0012920876033604145,-0.0012414318043738604
1772699654989098500,4.726098388671875,0.000628339359536767,0.0010100589133799076,-0.00047896895557641983
1772699654999055400,4.736055419921875,-0.00003851624205708504,-0.001447735819965601,0.0005720467306673527
1772699655009012500,4.746012451171875,0.000734865665435791,0.0005243346095085144,-0.0024647556710988283
1772699655018969600,4.755969482421875,-0.00007275003008544445,-0.00017911521717905998,0.001084120012819767
1772699655028926500,4.765926513671875,0.002316105645149946,-0.00009708991274237633,0.003441017121076584
1772699655038883300,4.77588330078125,-0.0006337165832519531,0.001727331429719925,0.0018026172183454037
1772699655048840400,4.78584033203125,0.0027415738441050053,-0.0008716476149857044,0.002275328151881695
1772699655058797600,4.795797607421875,-0.0008626390481367707,-0.0009865034371614456,-0.000458430964499712
1772699655068754400,4.80575439453125,-0.0032541577238589525,0.001249752938747406,-0.003642240073531866
1772699655078711600,4.815711669921875,0.0017594071105122566,-0.00007329368963837624,0.00013857148587703705
1772699655088668700,4.825668701171875,-0.00023716501891613007,0.0008854442276060581,-0.000045719556510448456
1772699655098625500,4.83562548828125,0.0025496568996459246,0.0007360978052020073,-0.0002230633981525898
1772699655108582400,4.84558251953125,0.0008119444828480482,-0.0014610104262828827,0.00044246064499020576
1772699655118539500,4.85553955078125,-0.0004430478438735008,-0.0013747038319706917,-0.0023281171452254057
1772699655128496400,4.865496337890625,-0.0020361507777124643,-0.0009283577091991901,0.0004429020918905735
1772699655138453500,4.87545361328125,0.0015889429487287998,0.000056584831327199936,-0.00031380215659737587
1772699655148410600,4.88541064453125,-0.001594599918462336,0.0016952278092503548,-0.0010408451780676842
1772699655158367500,4.895367431640625,0.000016893725842237473,0.00038132350891828537,0.0031694662757217884
1772699655168324400,4.905324462890625,0.0017426221165806055,-0.00013373186811804771,-0.00047427043318748474
1772699655178281500,4.915281494140625,0.0030114734545350075,-0.0016908496618270874,0.0001905849203467369
1772699655188238300,4.92523828125,-0.000010947929695248604,0.0008793668821454048,-0.0006917202845215797
1772699655198195500,4.935195556640625,0.0014757418539375067,-0.00009281095117330551,-0.00169044965878129
1772699655208152600,4.945152587890625,0.00031007640063762665,-0.0006648576818406582,-0.0012534249108284712
1772699655218109400,4.955109375,-0.0014991833595559,0.0015431717038154602,0.0003199167549610138
1772699655228066600,4.965066650390625,0.0008531869389116764,0.003692076075822115,-0.0004521333612501621
1772699655238023400,4.9750234375,-0.001011604443192482,0.0007667411118745804,-0.0004832758568227291
1772699655247980500,4.98498046875,0.0009191874414682388,-0.0007182378321886063,0.000585450790822506
1772699655257937400,4.9949375,0.0009831730276346207,0.0000051246024668216705,-0.0011951278429478407
1772699655267894500,5.00489453125,0.001970672979950905,-0.0004140567034482956,0.001170292031019926
1772699655277851600,5.0148515625,-0.0007833029376342893,-0.002231846796348691,0.00008374173194169998
1772699655287808500,5.02480859375,-0.0017423073295503855,0.00011093588545918465,0.004317368846386671
1772699655297765400,5.034765380859375,0.0009024557657539845,0.0028671319596469402,-0.003166814800351858
1772699655307723500,5.0447236328125,0.0004925951361656189,-0.0029952842742204666,0.0013789348304271698
1772699655317680600,5.0546806640625,0.0014503260608762503,0.002090434543788433,0.0013090306892991066
1772699655327637500,5.064637451171875,0.002862334018573165,-0.001819618046283722,0.0015082350000739098
1772699655337594600,5.0745947265625,0.0006680763326585293,-0.001018999144434929,0.0019840626046061516
1772699655347551500,5.084551513671875,0.0009045649785548449,0.0003589200787246227,0.0010538208298385143
1772699655357508400,5.09450830078125,-0.002187261590734124,-0.000006454531103372574,-0.0011429600417613983
1772699655367465500,5.104465576171875,0.0008737756870687008,0.0015088841319084167,0.000405934639275074
1772699655377422600,5.114422607421875,-0.0006694311741739511,0.00016554398462176323,-0.001702812034636736
1772699655387379500,5.12437939453125,-0.0005173648241907358,0.0017192321829497814,-0.0001091761514544487
1772699655397336600,5.134336669921875,-0.0016403896734118462,0.0005228500813245773,0.0014435146003961563
1772699655407293400,5.14429345703125,0.0018321059178560972,-0.00152245769277215,0.0032238378189504147
1772699655417250300,5.154250244140625,0.002539154374971986,-0.001682874746620655,0.0010515074245631695
1772699655427207400,5.16420751953125,0.0003596232272684574,-0.0018415991216897964,0.0012744138948619366
1772699655437164500,5.17416455078125,-0.001137099345214665,0.0008714948780834675,0.00001180870458483696
1772699655447121400,5.184121337890625,0.0004876952152699232,-0.0004438403993844986,-0.0016827608924359083
1772699655457078500,5.19407861328125,0.0010452661663293839,-0.0015325862914323807,0.0032501397654414177
1772699655467035600,5.20403564453125,0.00016269460320472717,0.002227263990789652,-0.002533180871978402
1772699655476992300,5.2139921875,0.000807702774181962,-0.001058556605130434,-0.00018915580585598946
1772699655486949400,5.223949462890625,0.0009848030749708414,-0.0004327138885855675,0.0014481553807854652
1772699655496906500,5.233906494140625,0.0010327061172574759,-0.00045246072113513947,-0.0013465690426528454
1772699655506863600,5.243863525390625,-0.001923668896779418,0.0002844361588358879,0.0016718576662242413
1772699655516820500,5.253820556640625,-0.0011450237361714244,-0.0018981965258717537,0.0009796731173992157
1772699655526777600,5.263777587890625,-0.0031658303923904896,-0.0016268203034996986,-0.0005790749564766884
1772699655536734500,5.273734375,-0.0007039133924990892,-0.0011554677039384842,0.0026498176157474518
1772699655546691300,5.28369140625,0.0004955742042511702,0.000623257365077734,-0.0012660946231335402
1772699655556648400,5.2936484375,0.0002884259447455406,-0.0011602779850363731,-0.0011938449461013079
1772699655566605600,5.30360546875,-0.0009115944849327207,0.0016781194135546684,0.00007621664553880692
1772699655576562400,5.3135625,0.0006973578128963709,-0.0012312857434153557,0.0010501164942979813
1772699655586519600,5.32351953125,0.0000036044511944055557,0.001565566286444664,0.0000658123753964901
1772699655596476700,5.3334765625,-0.0018310106825083494,-0.0006794575601816177,0.0019383132457733154
1772699655606433300,5.343433349609375,0.0011610507499426603,0.001768520101904869,0.0006677191704511642
1772699655616390400,5.353390380859375,-0.00034048897214233875,0.0005483529530465603,0.003650886006653309
1772699655626347500,5.363347412109375,-0.0022166860289871693,-0.002282320987433195,-0.0007284155581146479
1772699655636304400,5.373304443359375,0.0007850970141589642,0.002218035515397787,0.00019277911633253098
1772699655646261500,5.383261474609375,-0.0010753872338682413,0.0029677157290279865,-0.002714593894779682
1772699655656218600,5.393218505859375,-0.0011346505489200354,0.000796404667198658,0.0014841719530522823
1772699655666175500,5.403175537109375,0.0015130641404539347,0.0025279917754232883,0.0011480809189379215
1772699655676132400,5.41313232421875,0.001122595276683569,-0.0016623688861727715,-0.0006312180776149035
1772699655686089500,5.42308935546875,-0.0009165870724245906,0.00030783796682953835,-0.0014887559227645397
1772699655696046600,5.433046630859375,0.0013129746075719595,0.000176107045263052,-0.0018073574174195528
1772699655706003500,5.44300341796875,-0.0012615033192560077,0.0005830381996929646,0.0004952116869390011
1772699655715961000,5.452961181640625,0.002264505485072732,-0.00036546913906931877,-0.0016954101156443357
1772699655725917700,5.462917724609375,0.00008737156167626381,0.002710748463869095,-0.0008722271304577589
1772699655735874800,5.472874755859375,-0.0014026598073542118,-0.00121378805488348,0.0008998680859804153
1772699655745832000,5.48283203125,0.002008050447329879,0.0009915758855640888,0.0019851066172122955
1772699655755788800,5.492788818359375,-0.0008988905465230346,-0.0022695919033139944,-0.0016676427330821753
1772699655765746000,5.502745849609375,0.001500084763392806,0.0005791913717985153,0.000525736715644598
1772699655775703000,5.512703125,-0.0015451789367944002,-0.00076653016731143,0.005616704002022743
1772699655785660000,5.522659912109375,0.0004473982844501734,0.0008225776255130768,0.00041581643745303154
1772699655795617800,5.53261767578125,-0.000037120888009667397,-0.00024662865325808525,0.0018391241319477558
1772699655805575000,5.542574951171875,0.0022678449749946594,0.00273424806073308,-0.0031806682236492634
1772699655815532000,5.552531982421875,-0.0007415446452796459,0.0015715942718088627,-0.004955202806740999
1772699655825489000,5.562489013671875,0.0014315950684249401,0.0012839729897677898,-0.0024976376444101334
1772699655835445800,5.57244580078125,-0.001424411078915,0.0008445666171610355,-0.0003674495965242386
1772699655845403000,5.58240283203125,-0.0013210803736001253,0.0008640075102448463,0.00016891071572899818
1772699655855359700,5.59235986328125,0.0008568314369767904,-0.0017464924603700638,-0.0007259519770741463
1772699655865316900,5.60231689453125,0.00022539612837135792,0.0009187995456159115,-0.0025334395468235016
1772699655875274000,5.61227392578125,0.0007270888891071081,0.0005297008901834488,0.0005917046219110489
1772699655885230800,5.62223095703125,0.00011562695726752281,0.001793636940419674,0.00013710279017686844
1772699655895188000,5.63218798828125,0.00035506836138665676,0.0014767460525035858,0.0025649783201515675
1772699655905144800,5.642144775390625,-0.002095572417601943,0.0010562329553067684,0.0024571199901401997
1772699655915102000,5.65210205078125,-0.00023132259957492352,-0.0012710131704807281,-0.0008871646132320166
1772699655925058800,5.662058837890625,-0.0011328025721013546,-0.0002329126000404358,0.0014572162181138992
1772699655935016000,5.672015869140625,-0.0007549296133220196,-0.00038540875539183617,0.0004601352848112583
1772699655944973000,5.68197314453125,0.0006722584366798401,-0.0001515829935669899,-0.00010552024468779564
1772699655954930000,5.691929931640625,-0.0013136954512447119,0.0004321066662669182,0.0031175133772194386
1772699655964886800,5.70188671875,-0.0011440521338954568,-0.000053653959184885025,0.00008763512596487999
1772699655974844000,5.711843994140625,-0.0025332262739539146,0.00038969703018665314,0.0009083990007638931
1772699655984800800,5.72180078125,-0.000573938712477684,0.0009260578081011772,0.0010471497662365437
1772699655994758000,5.7317578125,0.0006085988134145737,0.0013077096082270145,-0.0006929519586265087
1772699656004715000,5.741715087890625,-0.00257947132922709,0.0001942422240972519,0.0010314448736608028
1772699656014672000,5.751671875,0.001608709106221795,0.0016668555326759815,-0.002517328131943941
1772699656024629000,5.76162890625,-0.0004224840085953474,0.0010892157442867756,-0.001223298255354166
1772699656034585900,5.7715859375,0.000041081104427576065,0.0017261668108403683,0.004690271336585283
1772699656044542700,5.781542724609375,0.00021019182167947292,-0.0020355484448373318,-0.0005303230136632919
1772699656054499800,5.791499755859375,0.0016608617734164,-0.000574938952922821,0.003491557203233242
1772699656064457000,5.80145703125,-0.0011455772910267115,0.0002442491240799427,0.0018281466327607632
1772699656074414000,5.8114140625,0.00009662937372922897,0.00048802467063069344,-0.0003624148666858673
1772699656084371000,5.821370849609375,0.002952337032184005,-0.000127431470900774,-0.00016960175707936287
1772699656094327800,5.831327880859375,-0.0005193788092583418,0.00048126792535185814,0.00011165440082550049
1772699656104285000,5.841284912109375,-0.0007824990898370743,-0.00044418079778552055,-0.0010851703118532896
1772699656114241800,5.85124169921875,0.0013247039169073105,0.0007601650431752205,-0.0016436059959232807
1772699656124199000,5.861198974609375,0.00025890697725117207,-0.0004441165365278721,0.0013061114586889744
1772699656134156000,5.871156005859375,0.0013473285362124443,-0.0008471147157251835,-0.000390687957406044
1772699656144113000,5.88111279296875,0.0005595653783529997,-0.0011656288988888264,-0.002220812486484647
1772699656154070000,5.891070068359375,0.0009837527759373188,0.00027194852009415627,0.0013894415460526943
1772699656164027000,5.90102685546875,0.002364335348829627,-0.00030968617647886276,-0.0005093920044600964
1772699656173983700,5.910983642578125,-0.0017455151537433267,-0.00028137722983956337,0.002154652029275894
1772699656183940900,5.92094091796875,0.0007197731174528599,-0.0010704719461500645,0.002490476705133915
1772699656193898000,5.93089794921875,-0.0005783746019005775,-0.0016650417819619179,0.0005866363644599915
1772699656203854800,5.940854736328125,0.00014227675274014473,0.000494515523314476,0.0011136760003864765
1772699656213812000,5.95081201171875,-0.0006548217497766018,-0.0016937190666794777,-0.00015590153634548187
1772699656223768800,5.960768798828125,-0.0009499001316726208,-0.0004119393415749073,-0.0021546040661633015
1772699656233725700,5.9707255859375,0.004158070310950279,-0.000582265667617321,0.001096505206078291
1772699656243682800,5.980682861328125,0.0006219251081347466,-0.00046455394476652145,0.0005992930382490158
1772699656253640000,5.990639892578125,0.0013333635870367289,-0.0029504031408578157,0.0009943707846105099
1772699656263597000,6.00059716796875,0.00022575492039322853,-0.0008025635033845901,-0.0004964666441082954
1772699656273554000,6.010553955078125,-0.0034570007119327784,0.0005968604236841202,-0.0012640925124287605
1772699656283511000,6.020510986328125,-0.0006971668917685747,0.0005750227719545364,-0.0010049669072031975
1772699656293468000,6.030468017578125,0.00011322903446853161,-0.000288473442196846,-0.002226002514362335
1772699656303425800,6.04042578125,-0.0010561649687588215,0.0004987567663192749,0.000931441318243742
1772699656313383000,6.0503828125,0.00016265781596302986,-0.0011808564886450768,-0.00023641204461455345
1772699656323340000,6.060340087890625,0.00003535882569849491,0.00043488340452313423,-0.0007810285314917564
1772699656333297000,6.070296875,-0.000754654174670577,0.001319006085395813,-0.0024094758555293083
1772699656343253800,6.080253662109375,-0.0009666418191045523,0.001321669202297926,0.00046780332922935486
1772699656353211000,6.0902109375,-0.002047307323664427,-0.0024312352761626244,0.002771992702037096
1772699656363168000,6.10016796875,0.0005071968771517277,0.0011280793696641922,0.002515530213713646
1772699656373124900,6.110124755859375,-0.003123275004327297,-0.0006341594271361828,0.0038546849973499775
1772699656383082000,6.12008203125,-0.0004507929552346468,-0.0013865027576684952,-0.0014945403672754765
1772699656393039000,6.1300390625,-0.0009295531781390309,-0.0012814821675419807,-0.0021467639598995447
1772699656402995700,6.13999560546875,0.0016771487426012754,-0.00039571477100253105,-0.0002551209181547165
1772699656412952800,6.149952880859375,0.0015245538670569658,-0.0011071572080254555,0.0004000985063612461
1772699656422910000,6.159909912109375,0.0007210783660411835,0.001954945269972086,-0.00019378634169697762
1772699656432866800,6.16986669921875,-0.001346896286122501,-0.0007159332744777203,-0.003853590227663517
1772699656442824000,6.179823974609375,-0.0010757864220067859,-0.003378828288987279,0.0006615328602492809
1772699656452781000,6.189781005859375,0.0003159900661557913,0.0006143702194094658,-0.0014837828930467367
1772699656462738000,6.199738037109375,0.0007716570980846882,0.0002673603594303131,0.001181508880108595
1772699656472694800,6.20969482421875,0.0012877683620899916,0.0013188845477998257,-0.0024167310912162066
1772699656482652000,6.21965185546875,-0.003015367081388831,0.0015833363868296146,-0.0035946471616625786
1772699656492608800,6.22960888671875,-0.0012415241217240691,-0.0010662199929356575,0.0032464289106428623
1772699656502566000,6.23956591796875,-0.0021118451841175556,0.00019611837342381477,-0.0004308638162910938
1772699656512523000,6.24952294921875,0.0005994376260787249,0.0036574052646756172,0.0013172212056815624
1772699656522480000,6.259480224609375,-0.003241106867790222,0.001406768336892128,0.0023864801041781902
1772699656532436700,6.269436767578125,0.0008880198001861572,-0.0004527592100203037,0.0005852347239851952
1772699656542393900,6.279393798828125,-0.000671793706715107,-0.0012634252198040485,0.0005551413632929325
1772699656552351000,6.28935107421875,-0.0006296092178672552,0.0007332717068493366,0.002451465465128422
1772699656562307800,6.299307861328125,0.0009320685639977455,0.0006893295794725418,-0.00017174845561385155
1772699656572265000,6.309264892578125,0.0018248879350721836,-0.0022227568551898003,0.0010171160101890564
1772699656582222000,6.31922216796875,-0.001280091586522758,0.002494234126061201,0.00023361388593912125
1772699656592179000,6.329178955078125,-0.0012070292141288519,0.0019725640304386616,-0.002307600574567914
1772699656602135800,6.3391357421875,-0.0018605689983814955,0.0015672305598855019,0.002307391259819269
1772699656612093000,6.349093017578125,0.0017819420900195837,-0.00099995918571949,-0.002617435296997428
1772699656622049800,6.3590498046875,0.0002740600612014532,0.0009598610922694206,0.00021883100271224976
1772699656632007000,6.3690068359375,0.0006634443998336792,0.00015578093007206917,0.000162576325237751
1772699656641964000,6.378964111328125,0.0019606698770076036,-0.002404316095635295,-0.00043663475662469864
1772699656651921000,6.3889208984375,0.0016719512641429901,-0.00012675579637289047,0.0001598196104168892
1772699656661877800,6.398877685546875,-0.0014860251685604453,0.00015926780179142952,0.0016123075038194656
1772699656671835000,6.4088349609375,-0.0012116958387196064,0.00021679513156414032,-0.002490409417077899
1772699656681791700,6.418791748046875,0.001050126738846302,0.0015260051004588604,0.002480913419276476
1772699656691748900,6.428748779296875,0.0014781453646719456,-0.00047235796228051186,-0.00018081488087773323
1772699656701706000,6.4387060546875,-0.00010084290988743305,-0.00013466877862811089,-0.0017233178950846195
1772699656711662800,6.448662841796875,-0.0001829399261623621,0.0023517701774835587,0.0014752713032066822
1772699656721620000,6.458619873046875,-0.00109906739089638,-0.001236040610820055,0.0021559749729931355
1772699656731576600,6.46857666015625,-0.0013129820581525564,0.0005725319497287273,-0.002381525468081236
1772699656741533700,6.47853369140625,0.0023272926919162273,-0.0027207331731915474,0.000553544145077467
1772699656751490800,6.48849072265625,-0.0015190555714070797,-0.0003480520099401474,-0.00207269168458879
1772699656761447700,6.49844775390625,-0.0018271832959726453,0.0027444111183285713,-0.0009227388072758913
1772699656771404800,6.50840478515625,0.00016517401672899723,0.0006379433907568455,0.0011497670784592628
1772699656781362000,6.51836181640625,-0.0035563274286687374,-0.00018603866919875145,-0.0013533378951251507
1772699656791318500,6.528318603515625,0.0012485559564083815,0.0022869068197906017,0.0021934108808636665
1772699656801275600,6.538275634765625,0.0002956769894808531,0.0018615997396409512,0.001753722783178091
1772699656811232800,6.548232666015625,0.0008121738210320473,-0.00041709281504154205,-0.00022415351122617722
1772699656821189600,6.558189697265625,-0.0006219383794814348,-0.0027588102966547012,0.0007441719062626362
1772699656831147800,6.568147705078125,0.0008593571837991476,-0.0013021253980696201,0.00022520916536450386
1772699656841104600,6.578104736328125,0.00018291431479156017,-0.0012725642882287502,-0.00167788565158844
1772699656851061800,6.588061767578125,-0.0033532995730638504,-0.001407888252288103,-0.0013900564517825842
1772699656861018600,6.5980185546875,0.002488610567525029,-0.0008480916731059551,-0.0017120325937867165
1772699656870975700,6.607975830078125,-0.0002626543864607811,-0.0016480274498462677,0.0005777538754045963
1772699656880932900,6.617932861328125,-0.0002173807006329298,0.0014329836703836918,-0.00022811861708760262
1772699656890889700,6.6278896484375,0.0026579839177429676,-0.0006004222668707371,-0.0012760099489241838
1772699656900846600,6.6378466796875,0.001538657583296299,-0.0030824881978332996,0.002339231316000223
1772699656910803700,6.6478037109375,-0.00040400843136012554,0.0007543237879872322,0.004511571489274502
1772699656920760600,6.657760498046875,-0.0021185516379773617,0.0005250256508588791,0.002281706780195236
1772699656930717700,6.6677177734375,-0.0015747759025543928,-0.0024045950267463923,-0.00086791324429214
1772699656940674800,6.6776748046875,-0.0019335036631673574,-0.003398220520466566,0.002498854883015156
1772699656950631700,6.687631591796875,0.0004974713083356619,0.00012959260493516922,-0.00023509236052632332
1772699656960588800,6.6975888671875,0.00162185775116086,0.0020297584123909473,-0.002721153199672699
1772699656970545700,6.707545654296875,0.0022582688834518194,-0.001308792270720005,0.001811475958675146
1772699656980502800,6.717502685546875,-0.000020331470295786858,-0.0003053131513297558,-0.000335032120347023
1772699656990459600,6.727459716796875,-0.0019094606395810843,0.0012413146905601025,-0.001349249854683876
1772699657000416800,6.737416748046875,-0.0020822996739298105,0.0007201340049505234,-0.00030768755823373795
1772699657010374000,6.747373779296875,-0.00074932468123734,0.0033619715832173824,-0.0026122836861759424
1772699657020330800,6.757330810546875,-0.0013021968770772219,0.0018591494299471378,-0.001369918929412961
1772699657030287600,6.76728759765625,0.0024661882780492306,-0.0014578797854483128,-0.0021390090696513653
1772699657040244700,6.77724462890625,0.0016211671754717827,-0.00007463386282324791,0.001553996466100216
1772699657050201600,6.78720166015625,0.0005753242876380682,0.00006971880793571472,-0.00033719977363944054
1772699657060158700,6.79715869140625,-0.0009938102448359132,-0.0007204408757388592,0.0005411109887063503
1772699657070115800,6.80711572265625,-0.001417938037775457,-0.000008791685104370117,-0.0037416587583720684
1772699657080072700,6.81707275390625,0.0004337579011917114,0.0005443468689918518,0.0021577756851911545
1772699657090029800,6.82702978515625,0.00016812654212117195,-0.0023207676131278276,0.0017312108539044857
1772699657099986700,6.836986572265625,0.0007076829206198454,0.0005120369605720043,0.0023187040351331234
1772699657109943600,6.846943603515625,-0.0006853283848613501,-0.000782904215157032,-0.0008352294098585844
1772699657119900700,6.856900634765625,0.00029498105868697166,0.000027495436370372772,-0.0012317739892750978
1772699657129857800,6.86685791015625,0.0012635397724807262,0.00121591379866004,0.001077259425073862
1772699657139814700,6.876814697265625,-0.0011516808299347758,0.0008143093436956406,-0.0038647684268653393
1772699657149771800,6.886771728515625,-0.0009485710179433227,-0.0023800365161150694,0.004484495148062706
1772699657159728600,6.896728759765625,-0.001303570345044136,0.0008892598561942577,-0.0014040207024663687
1772699657169685800,6.906685791015625,-0.0004923383239656687,0.001581158023327589,-0.000621456652879715
1772699657179642600,6.916642578125,0.0024086427874863148,-0.0008665532805025578,0.001288562547415495
1772699657189599700,6.926599853515625,-0.002998622367158532,0.0016751540824770927,0.00041628675535321236
1772699657199556900,6.936556884765625,0.0007337979041039944,0.00041760969907045364,0.0016469336114823818
1772699657209513700,6.946513671875,-0.001093773520551622,0.002031626645475626,-0.0019715663511306047
1772699657219470800,6.956470947265625,0.0006745655555278063,-0.0014640390872955322,-0.002317511010915041
1772699657229427700,6.966427734375,0.0019127365667372942,-0.0007949261926114559,-0.00009265681728720665
1772699657239384600,6.976384521484375,0.0004586505237966776,-0.0009286166168749332,-0.0016167836729437113
1772699657249341700,6.986341796875,-0.00003325170837342739,0.0010163653641939163,0.001321632880717516
1772699657259298800,6.996298828125,0.0012802195269614458,-0.0014353408478200436,-0.0026275687851011753
1772699657269255700,7.006255615234375,-0.0007661225972697139,-0.0015991264954209328,-0.0005188696086406708
1772699657279212800,7.016212890625,-0.0005828971043229103,-0.002356263343244791,-0.0009273984469473362
1772699657289169700,7.026169677734375,-0.0010087384143844247,0.00024810899049043655,-0.0006167716346681118
1772699657299126500,7.03612646484375,-0.0006066011264920235,-0.00042513804510235786,-0.002068727044388652
1772699657309083600,7.046083740234375,0.001608951948583126,-0.0012607667595148087,0.003142022527754307
1772699657319040800,7.056040771484375,-0.002121071331202984,0.00004764413461089134,-0.00005110772326588631
1772699657328997600,7.06599755859375,0.001831697067245841,-0.0012598107568919659,-0.000003655906766653061
1772699657338954800,7.075954833984375,0.0012580521870404482,0.000006522517651319504,-0.0014630681835114956
1772699657348911900,7.085911865234375,0.0017663377802819014,-0.0013903798535466194,-0.0017521795816719532
1772699657358868700,7.09586865234375,0.0008456830400973558,-0.0005245860666036606,0.0006209635175764561
1772699657368825600,7.10582568359375,0.001911176135763526,0.0025760717689990997,0.002765511628240347
1772699657378782700,7.11578271484375,-0.002447619568556547,0.0006644544191658497,-0.00005530845373868942
1772699657388739800,7.12573974609375,0.0006378013640642166,0.0013503758236765862,-0.0002473792992532253
1772699657398696700,7.13569677734375,-0.0023433410096913576,0.0022686333395540714,-0.002879914129152894
1772699657408654600,7.145654541015625,0.0002028173767030239,0.0004721502773463726,0.0020435266196727753
1772699657418611700,7.15561181640625,0.0008150781504809856,0.0005182228051126003,-0.0009365505538880825
1772699657428568800,7.16556884765625,-0.0016958171036094427,0.002637790981680155,-0.0007817256264388561
1772699657438525700,7.175525634765625,0.00047652353532612324,0.0013770507648587227,-0.0016525792889297009
1772699657448482800,7.18548291015625,-0.0005801601801067591,-0.0008205017074942589,0.002452349755913019
1772699657458440000,7.19543994140625,-0.002335716038942337,0.0004407712258398533,-0.002387678949162364
1772699657468396500,7.205396484375,0.0012056254781782627,-0.0010584313422441483,0.00024467241019010544
1772699657478353700,7.215353759765625,-0.0016998832579702139,0.000696591567248106,-0.0008592079393565655
1772699657488310800,7.225310791015625,-0.0012442447477951646,0.0003316733054816723,-0.0007723427843302488
1772699657498267600,7.235267578125,-0.0019196223001927137,0.0013157115317881107,-0.0022714361548423767
1772699657508224800,7.245224853515625,0.003105281386524439,-0.0009017679840326309,0.0012327679432928562
1772699657518182000,7.255181884765625,0.00027913483791053295,0.0012750998139381409,-0.002168355043977499
1772699657528138800,7.265138671875,0.001156727783381939,0.0011378619819879532,0.0005359579809010029
1772699657538095600,7.275095703125,0.0011250362731516361,-0.00006215833127498627,-0.0020979084074497223
1772699657548052700,7.285052734375,0.00028811837546527386,-0.001151183620095253,-0.00034643011167645454
1772699657558009600,7.295009521484375,0.0011429931037127972,0.001535679679363966,0.0052834926173090935
1772699657567966700,7.304966796875,0.0003378521651029587,-0.00037582218647003174,0.002510818187147379
1772699657577923800,7.314923828125,0.0013149662408977747,0.0002561458386480808,0.0012655239552259445
1772699657587881000,7.324880859375,-0.0005367912817746401,0.0002768319100141525,0.002565696369856596
1772699657597837600,7.334837646484375,-0.0008875296916812658,0.0013958918862044811,-0.0017033510375767946
1772699657607794700,7.344794677734375,0.0010892758145928383,-0.0004888768307864666,-0.0002331361174583435
1772699657617751800,7.354751708984375,-0.0002966332249343395,0.0002980874851346016,-0.0025692610070109367
1772699657627708700,7.364708740234375,0.001961324829608202,-0.0016729491762816906,0.0015887245535850525
1772699657637665800,7.374665771484375,-0.0005841245874762535,-0.0006510941311717033,-0.0024576822761446238
1772699657647623000,7.384622802734375,-0.0005429200828075409,-0.00011692708358168602,0.0033718706108629704
1772699657657579800,7.394579833984375,-0.0004771400708705187,0.0006087846122682095,-0.00035575591027736664
1772699657667536600,7.40453662109375,-0.0004398312885314226,0.0012953057885169983,0.0018372321501374245
1772699657677493800,7.41449365234375,-0.0005820440128445625,-0.001275709830224514,-0.0005787876434624195
1772699657687450600,7.42445068359375,-0.00020292610861361027,-0.00010306760668754578,0.00031435443088412285
1772699657697407700,7.43440771484375,-0.0007576625794172287,0.0005475422367453575,0.00029011955484747887
1772699657707364900,7.44436474609375,0.0031831120140850544,-0.0022453810088336468,0.0005213082768023014
1772699657717321700,7.45432177734375,0.0012262212112545967,-0.00023123202845454216,0.0004816269502043724
1772699657727278600,7.464278564453125,0.00010043848305940628,0.0009038439020514488,0.0011445237323641777
1772699657737235500,7.4742353515625,0.0009696942288428545,0.0006388598121702671,-0.000523147638887167
1772699657747192600,7.484192626953125,-0.003736487589776516,0.0007064510136842728,0.0006973515264689922
1772699657757149700,7.494149658203125,0.0011426897253841162,0.002080642618238926,0.00019827531650662422
1772699657767106600,7.5041064453125,-0.0003260425291955471,-0.00037735747173428535,0.0009386013261973858
1772699657777063700,7.514063720703125,-0.0031830817461013794,-0.0006364830769598484,-0.0008467817679047585
1772699657787020800,7.524020751953125,0.0002152684610337019,-0.00029508769512176514,0.0006627799011766911
1772699657796977700,7.533977783203125,0.0012954466510564089,-0.0007416997104883194,-0.0003007519990205765
1772699657806934500,7.5439345703125,-0.00043575093150138855,-0.0008292361162602901,0.0016183587722480297
1772699657816891600,7.5538916015625,-0.0005982036236673594,-0.0000774255022406578,-0.0047431341372430325
1772699657826848800,7.563848876953125,-0.0038936350028961897,-0.0005714674480259418,0.0015750527381896973
1772699657836805600,7.5738056640625,0.0009834119118750095,-0.0009190100245177746,0.0031465841457247734
1772699657846762800,7.5837626953125,0.0005818374920636415,0.0013930886052548885,-0.0007952789310365915
1772699657856719600,7.5937197265625,-0.0002860866952687502,0.0014897612854838371,-0.0013007468078285456
1772699657866676500,7.603676513671875,-0.00045913364738225937,-0.00026836106553673744,0.0007411963306367397
1772699657876633600,7.613633544921875,0.003851991379633546,-0.0008412068709731102,0.001200858037918806
1772699657886590700,7.6235908203125,-0.0012862817384302616,0.0003726612776517868,-0.0019122783560305834
1772699657896547600,7.633547607421875,0.0021337494254112244,-0.0014840946532785892,-0.0007956149056553841
1772699657906504700,7.643504638671875,0.0017673701513558626,-0.0000275271013379097,-0.0006403098814189434
1772699657916461800,7.6534619140625,0.0007820005994290113,-0.0009236806072294712,-0.00027519045397639275
1772699657926418400,7.66341845703125,-0.0008860405068844557,-0.002176037523895502,0.0024603516794741154
1772699657936375600,7.67337548828125,-0.0013976338086649776,-0.00007533608004450798,0.00170587794855237
1772699657946332700,7.683332763671875,0.00013855937868356705,-0.0011459831148386002,0.0012127850204706192
1772699657956289500,7.69328955078125,-0.0007930143037810922,0.001807196531444788,-0.0004903064109385014
1772699657966246700,7.70324658203125,0.00015141465701162815,-0.0011313650757074356,0.002119037788361311
1772699657976203800,7.713203857421875,0.0010212031193077564,0.0014606895856559277,0.0014268825761973858
1772699657986160600,7.72316064453125,-0.0006553018465638161,0.001523955725133419,0.0003347713500261307
1772699657996117500,7.733117431640625,0.002920524450019002,-0.0003152233548462391,-0.0025622150860726833
1772699658006075600,7.74307568359375,-0.0005582419689744711,-0.0008179456926882267,0.002576804719865322
1772699658016032800,7.75303271484375,-0.000030403491109609604,-0.000041900668293237686,0.003138731699436903
1772699658025989600,7.76298974609375,0.000029295682907104492,0.000297564547508955,0.0022131172008812428
1772699658035946500,7.772946533203125,-0.0022082922514528036,0.0004166080616414547,0.002678637858480215
1772699658045903600,7.782903564453125,0.0013949498534202576,0.0003862096928060055,0.000012937933206558228
1772699658055860700,7.79286083984375,0.00004818919114768505,0.0004442669451236725,0.0017804782837629318
1772699658065817600,7.802817626953125,-0.0006666975095868111,-0.00010726554319262505,0.0013875928707420826
1772699658075774700,7.812774658203125,-0.0011966666206717491,0.0007619899697601795,-0.0013432123232632875
1772699658085731800,7.82273193359375,0.0029769944958388805,0.00043234415352344513,0.0023948797024786472
1772699658095688700,7.832688720703125,0.0004627038724720478,-0.0005178716965019703,-0.0025578010827302933
1772699658105645600,7.8426455078125,-0.0012185031082481146,-0.0006646420806646347,0.0026978827081620693
1772699658115602700,7.852602783203125,0.00028192182071506977,-0.0023267208598554134,0.0003361916169524193
1772699658125559600,7.8625595703125,-0.0026910179294645786,0.000769859179854393,0.0013223933055996895
1772699658135516700,7.8725166015625,-0.0018995263380929828,-0.0012608012184500694,0.006089184898883104
1772699658145473800,7.882473876953125,-0.0012395461089909077,-0.0008028983138501644,0.0003268015570938587
1772699658155430700,7.8924306640625,0.001998591236770153,0.0035058297216892242,-0.0005829343572258949
1772699658165387500,7.902387451171875,0.0016468665562570095,-0.00008964911103248596,-0.0003199349157512188
1772699658175344600,7.9123447265625,0.0026404918171465397,-0.0005056345835328102,-0.00021394109353423119
1772699658185301500,7.922301513671875,0.0005832589231431484,-0.000042617786675691605,-0.001812382135540247
1772699658195258600,7.932258544921875,0.0014695588033646345,0.0010700509883463383,-0.0011985234450548887
1772699658205215700,7.9422158203125,-0.002475644228979945,0.001107619609683752,-0.0006433757953345776
1772699658215172600,7.952172607421875,0.0004634205251932144,0.0011656763963401318,-0.0003991639241576195
1772699658225129700,7.962129638671875,-0.0003131651319563389,0.00044670188799500465,0.00028197653591632843
1772699658235086600,7.972086669921875,0.002703131176531315,-0.0003980528563261032,0.0018931888043880463
1772699658245043700,7.982043701171875,-0.0019075678428635001,0.0007352195680141449,0.00025507714599370956
1772699658255000600,7.99200048828125,0.0020442968234419823,-0.0007660044357180595,-0.0027303267270326614
1772699658264957700,8.001957763671875,0.001671606209129095,0.000640008132904768,0.002230965532362461
1772699658274914800,8.011914794921875,0.00022870558314025402,-0.0013722763396799564,0.0006527760997414589
1772699658284871700,8.02187158203125,0.00024223257787525654,-0.0014647385105490685,-0.0005179662257432938
1772699658294828500,8.03182861328125,-0.00045365141704678535,0.0022232066839933395,-0.0024892380461096764
1772699658304785700,8.04178564453125,-0.0029318335000425577,-0.00005369400605559349,-0.002449209336191416
1772699658314742500,8.051742431640625,0.003117004409432411,-0.0007932540029287338,0.0004445817321538925
1772699658324699600,8.06169970703125,0.000077009666711092,0.00023773405700922012,0.0006861337460577488
1772699658334656800,8.07165673828125,-0.0016713556833565235,-0.0005593500100076199,-0.001501919236034155
1772699658344613600,8.081613525390624,-0.0011181581066921353,-0.0013703512959182262,0.002627795562148094
1772699658354570800,8.09157080078125,-0.0005431815516203642,-0.0002648732624948025,0.001853880938142538
1772699658364527600,8.101527587890626,-0.0006173707079142332,0.001200379803776741,0.0036388044245541096
1772699658374484500,8.111484375,-0.0016309699276462197,-0.00040816934779286385,0.0008659213781356812
1772699658384441600,8.121441650390626,0.003227519104257226,-0.002434427384287119,0.0009061074815690517
1772699658394398700,8.131398681640626,0.0014818168710917234,0.0005986467003822327,0.0004578973166644573
1772699658404355800,8.14135595703125,0.0006359601393342018,-0.00033108843490481377,0.0013508670963346958
1772699658414312700,8.151312744140625,0.0021406461019068956,-0.001291690394282341,0.0014952104538679123
1772699658424269600,8.16126953125,0.000012017320841550827,0.000007085036486387253,0.0014180159196257591
1772699658434226700,8.171226806640625,-0.0006244780961424112,-0.0028124034870415926,-0.000053913332521915436
1772699658444183600,8.18118359375,-0.0021127741783857346,-0.0018290099687874317,0.00267959525808692
1772699658454140700,8.191140625,0.00023586745373904705,-0.0018801428377628326,-0.0004184599965810776
1772699658464097800,8.201097900390625,-0.00012697023339569569,0.0004565916024148464,-0.0015305886045098305
1772699658474054700,8.2110546875,0.0008312352001667023,-0.000039555132389068604,-0.00030420301482081413
1772699658484011800,8.22101171875,0.0004562297835946083,0.003220857586711645,-0.0023101367987692356
1772699658493968600,8.23096875,-0.0007413936546072364,0.0007576998323202133,0.00259727006778121
1772699658503925500,8.240925537109375,0.0008933497592806816,0.0013898876495659351,0.00023798411712050438
1772699658513882600,8.250882568359375,0.0006584587972611189,-0.0029380153864622116,-0.0015825526788830757
1772699658523839700,8.26083984375,0.00135400565341115,-0.00184949254617095,0.001992366276681423
1772699658533796600,8.270796630859374,0.0014581349678337574,-0.00036691082641482353,0.0021143388003110886
1772699658543753700,8.280753662109374,-0.00018272409215569496,0.00016353419050574303,-0.00017140619456768036
1772699658553710600,8.290710693359374,0.0008630992379039526,-0.000633549876511097,0.00010689441114664078
1772699658563667500,8.30066748046875,0.002069484442472458,-0.0015046754851937294,0.0005343593657016754
1772699658573624600,8.31062451171875,0.00024015922099351883,-0.0002513919025659561,0.0019162734970450401
1772699658583581700,8.320581787109376,-0.0011862932005897164,0.001957231666892767,-0.0002223351038992405
1772699658593538800,8.330538818359376,0.0016987090930342674,0.0015495019033551216,-0.0014061101246625185
1772699658603495700,8.34049560546875,0.002541187684983015,0.0026532039046287537,-0.002658239798620343
1772699658613452800,8.350452880859375,0.0018828539177775383,-0.0003654886968433857,0.001984715461730957
1772699658623409700,8.36040966796875,0.0016011972911655903,-0.0005230889655649662,0.0005515022203326225
1772699658633366500,8.370366455078125,-0.0021772957406938076,-0.00111750653013587,-0.0005529106128960848
1772699658643323600,8.38032373046875,-0.0035922005772590637,0.0006418619304895401,0.0006115012802183628
1772699658653280800,8.39028076171875,0.001734387595206499,0.00043653231114149094,0.001112175639718771
1772699658663238700,8.40023876953125,-0.0007255817763507366,-0.0003033336251974106,0.0012220432981848717
1772699658673195500,8.410195556640625,0.00008029071614146233,0.0017145434394478798,-0.0009351170156151056
1772699658683152600,8.420152587890625,0.0011194131802767515,-0.0016275933012366295,0.0013518291525542736
1772699658693109800,8.43010986328125,-0.0011410779552534223,0.0022917804308235645,0.0024714223109185696
1772699658703066600,8.440066650390625,0.0003344512078911066,-0.002101197838783264,0.0017331778071820736
1772699658713023200,8.450023193359375,-0.0017843598034232855,-0.000532329548150301,0.0014876346103847027
1772699658722980400,8.45998046875,-0.00036854599602520466,-0.002412401605397463,-6.579793989658356e-7
1772699658732937200,8.469937255859374,-0.0019030594266951084,0.00022066570818424225,0.0025352039374411106
1772699658742894000,8.47989404296875,0.0011734380386769772,0.0023205303587019444,-0.0025216012727469206
1772699658752851200,8.489851318359374,-0.0010236698435619473,0.0011335592716932297,0.0017778058536350727
1772699658762808000,8.49980810546875,-0.0004929685965180397,-0.0006680656224489212,-0.0014401138760149479
1772699658772765200,8.50976513671875,0.003002696670591831,0.0006776298396289349,0.0002765594981610775
1772699658782722300,8.519722412109376,-0.0016145092668011785,-0.0019902545027434826,-0.0014730931725353003
1772699658792679200,8.52967919921875,0.0006347966846078634,0.0015890337526798248,0.002572248689830303
1772699658802636000,8.539635986328125,0.0007793931290507317,0.00155292684212327,0.0008951043710112572
1772699658812593200,8.54959326171875,-0.0017239783192053437,0.0026930258609354496,0.000619200523942709
1772699658822550000,8.559550048828125,-0.0026768851093947887,-0.0013960502110421658,-0.0014933282509446144
1772699658832507100,8.569507080078125,0.00005178968422114849,0.0003312760964035988,-0.0016773524694144726
1772699658842464300,8.57946435546875,-0.0023496034555137157,-0.0005954927764832973,-0.0021307189017534256
1772699658852421000,8.589421142578125,-0.0009218828054144979,0.0002439357340335846,0.0020477809011936188
1772699658862378200,8.599378173828125,-0.0005257795564830303,-0.0012000049464404583,0.0005565052852034569
1772699658872335000,8.609335205078125,-0.00007490650750696659,0.0005249246023595333,-0.001608644612133503
1772699658882292000,8.6192919921875,-0.0012442643055692315,0.00014396244660019875,-0.000869915122166276
1772699658892249000,8.6292490234375,0.00041328719817101955,0.0009330571629106998,-0.002472338965162635
1772699658902206200,8.639206298828125,-0.0042014652863144875,-0.0013463874347507954,0.0015239100903272629
1772699658912163300,8.649163330078125,-0.0002424099948257208,-0.0025783658493310213,0.0007899426855146885
1772699658922120200,8.6591201171875,-0.00008244370110332966,-0.0012501156888902187,-0.0011568954214453697
1772699658932077000,8.6690771484375,-0.002722435165196657,0.0006351359188556671,0.0003137020394206047
1772699658942034200,8.6790341796875,0.0023230162914842367,-0.000173110980540514,0.0013126772828400135
1772699658951991000,8.688990966796876,-0.0009050011867657304,-0.0006823074072599411,-0.001373120816424489
1772699658961948200,8.6989482421875,-0.0014307412784546614,-0.00013601547107100487,-0.00011345930397510529
1772699658971905300,8.7089052734375,0.0026305795181542635,-0.0010835682041943073,-0.0023449216969311237
1772699658981862100,8.718862060546876,0.001953631406649947,-0.0007390249520540237,0.0021354625932872295
1772699658991819300,8.7288193359375,-0.0008261759066954255,-0.0003699110820889473,0.00032797548919916153
1772699659001776000,8.738776123046875,0.0015112238470464945,-0.0008182474412024021,-0.003334109205752611
1772699659011733000,8.74873291015625,0.0020036420319229364,-0.0014416933991014957,0.002697417978197336
1772699659021690000,8.758690185546875,0.0008563820738345385,0.0001913011074066162,0.0009026005864143372
1772699659031647200,8.768647216796875,-0.002018233761191368,0.0002980940043926239,0.0013635940849781036
1772699659041604000,8.77860400390625,0.00195657298900187,0.00047434261068701744,0.00008923094719648361
1772699659051561200,8.788561279296875,-0.0005294876173138618,-0.00014937017112970352,0.00036460207775235176
1772699659061518000,8.79851806640625,-0.00006006099283695221,-0.00022946251556277275,0.0002071429044008255
1772699659071475000,8.808474853515625,-0.0020827320404350758,0.0002493741922080517,0.0016830670647323132
1772699659081432000,8.81843212890625,0.0016931591089814901,0.0013473695144057274,-0.00015577953308820724
1772699659091389200,8.82838916015625,-0.0021817402448505163,0.00040088221430778503,-0.002651161514222622
1772699659101346300,8.83834619140625,-0.002178891096264124,-0.0007317271083593369,0.0004145009443163872
1772699659111303200,8.84830322265625,-0.0005463734269142151,-0.0007562283426523209,-0.0006427739281207323
1772699659121260300,8.85826025390625,-0.0015668775886297226,-0.0005658194422721863,0.00003776606172323227
1772699659131217200,8.868217041015624,0.0004315583501011133,0.0012035844847559929,-0.0014514736831188202
1772699659141174000,8.878174072265624,-0.00011571170762181282,0.000056024640798568726,0.00007243826985359192
1772699659151131100,8.888131103515626,-0.0008352977456524968,-0.0022034011781215668,0.0028509143739938736
1772699659161088300,8.898088134765626,0.001684038434177637,0.0014722999185323715,0.0018308470025658607
1772699659171045000,8.908045166015626,0.00007761968299746513,-0.001353314146399498,0.00010964600369334221
1772699659181002200,8.918002197265626,0.0010301938746124506,0.000742075964808464,0.00055365776643157
1772699659190959000,8.927958984375,-0.0007346828933805227,-0.001097103115171194,0.0008260989561676979
1772699659200916000,8.937916015625,-0.002919146092608571,0.002139650285243988,-0.0036491856444627047
1772699659210873000,8.947873046875,0.0004729221109300852,-0.002301437547430396,-0.0011143889278173447
1772699659220830200,8.957830322265625,-0.002369535621255636,0.0016981260851025581,-0.0033960118889808655
1772699659230787000,8.967787109375,0.0001404937356710434,0.0014986549504101276,-0.00019462592899799347
1772699659240744200,8.977744140625,-0.00042944145388901234,0.0024446179158985615,0.0002753199078142643
1772699659250701300,8.987701416015625,-0.0006776482332497835,-0.0008393260650336742,-0.0036211509723216295
1772699659260658200,8.997658203125,-0.0022879650350660086,-0.0002905973233282566,-0.0006057051941752434
1772699659270615000,9.007614990234375,0.0008745386730879545,-0.00008659902960062027,0.0005186814814805984
1772699659280572200,9.017572265625,0.0014952663332223892,0.0012196698226034641,0.00023390259593725204
1772699659290529300,9.027529296875,0.0007921918295323849,-0.0020546866580843925,0.0005673305131494999
1772699659300486100,9.037486083984374,-0.00007552397437393665,0.00028055859729647636,-0.0017625922337174416
1772699659310443300,9.047443359375,-0.000003885012120008469,0.0010472829453647137,0.000996708869934082
1772699659320400100,9.057400146484374,-0.002152475994080305,0.0016326266340911388,0.0009104115888476372
1772699659330357000,9.06735693359375,0.00019297003746032715,-0.00010215677320957184,-0.0022089488338679075
1772699659340314000,9.077314208984374,0.0015820534899830818,-0.0002084658481180668,0.002277097199112177
1772699659350271200,9.087271240234376,0.000852879835292697,0.0001497291959822178,-0.0008148327469825745
1772699659360228000,9.09722802734375,-0.001728822011500597,-0.0011109979823231697,0.001197273377329111
1772699659370185200,9.107185302734376,0.0028936266899108887,-0.0007738419808447361,-0.0005311178974807262
1772699659380143000,9.11714306640625,0.0008027795702219009,-0.001402849331498146,-0.0010345764458179474
1772699659390100200,9.127100341796876,-0.00027819746173918247,0.0014113127253949642,0.0013076737523078918
1772699659400057000,9.13705712890625,0.000904179411008954,0.0014744559302926064,0.001507854089140892
1772699659410014200,9.14701416015625,0.0018871519714593887,0.000998815055936575,0.0009776190854609013
1772699659419971300,9.156971435546875,0.0013785602059215307,-0.00038819247856736183,0.0004295371472835541
1772699659429928200,9.16692822265625,-0.00014982814900577068,-0.0009477226994931698,-0.0006373249925673008
1772699659439885000,9.176885009765625,-0.0016502721700817347,-0.003326983191072941,0.002491254359483719
1772699659449842200,9.18684228515625,-0.0007080456707626581,-0.0015844767913222313,-0.00040679750964045525
1772699659459799000,9.196799072265625,-0.0012262493837624788,0.0025750957429409027,0.000494138803333044
1772699659469756200,9.206756103515625,0.0008938931860029697,-0.0011980710551142693,0.0012515420094132423
1772699659479713300,9.21671337890625,-0.0013319863937795162,0.00027073873206973076,-0.0011985425371676683
1772699659489670100,9.226670166015625,-0.0023652929812669754,-0.00009198393672704697,-0.00012928340584039688
1772699659499627000,9.236626953125,-0.0006023147143423557,0.0005687819793820381,0.0005016140639781952
1772699659509584100,9.246584228515625,-0.0011400068178772926,0.0006891568191349506,-0.0016014843713492155
1772699659519541200,9.256541259765624,-0.002952314680442214,0.00090066809207201,0.0012076199054718018
1772699659529498000,9.266498046875,0.0009585372172296047,0.0010870895348489285,-0.0033040412236005068
1772699659539455200,9.276455322265624,-0.0011717801680788398,-0.0008116820827126503,-0.002305773552507162
1772699659549412400,9.286412353515624,0.001633593812584877,-0.0009224698878824711,-0.00039522210136055946
1772699659559369000,9.296368896484376,0.0027816121000796556,-0.0001689838245511055,0.0019138110801577568
1772699659569326000,9.306326171875,0.0013184717390686274,-0.0022028395906090736,0.0015100757591426373
1772699659579283200,9.316283203125,0.00016561499796807766,0.0016169650480151176,-0.00159038370475173
1772699659589240000,9.326239990234376,0.00036322162486612797,0.0017447969876229763,-0.0005988888442516327
1772699659599197200,9.336197265625,0.001378890359774232,0.0005619046278297901,-0.00046552158892154694
1772699659609154300,9.346154296875,-0.00023791473358869553,0.0001280754804611206,0.0008064042776823044
1772699659619111200,9.356111083984375,0.00036687497049570084,-0.0006328104063868523,-0.001825172919780016
1772699659629068000,9.366068115234375,0.0005548940971493721,-0.0003177584148943424,0.0003785928711295128
1772699659639025200,9.376025146484375,0.0028600613586604595,-0.0008040498942136765,0.003426238428801298
1772699659648982000,9.38598193359375,-0.00016848533414304256,0.0016612387262284756,-0.0016686548478901386
1772699659658939100,9.395939208984375,-0.00013846135698258877,-0.000970983412116766,0.00009612273424863815
1772699659668896300,9.405896240234375,0.0007624861318618059,-0.0013962904922664165,0.0021273158490657806
1772699659678853000,9.41585302734375,0.0019170362502336502,0.0019243485294282436,-0.0018928325735032558
1772699659688810000,9.42581005859375,-0.0014087194576859474,-0.00006716372445225716,0.002408705186098814
1772699659698767000,9.43576708984375,0.0006721317768096924,-0.0024314522743225098,0.0029623745940625668
1772699659708724200,9.44572412109375,-0.0035018406342715025,0.0012554279528558254,-0.00273332791402936
1772699659718681600,9.455681640625,0.000534397317096591,-0.0009419661946594715,0.005398724228143692
1772699659728638500,9.465638427734374,-0.0013860079925507307,0.0009083980694413185,0.0003032982349395752
1772699659738595600,9.475595703125,-0.001075283158570528,-0.00028849905356764793,0.0035293730907142162
1772699659748552400,9.485552490234374,-0.001893406268209219,0.00045052822679281235,-0.003856371156871319
1772699659758509300,9.49550927734375,-0.0018128262599930167,0.0017708768136799335,0.004472331143915653
1772699659768466400,9.505466552734376,0.0005946713499724865,-0.0001021246425807476,-0.0014779693447053432
1772699659778423600,9.515423583984376,0.00028538075275719166,0.001040569506585598,0.0018415027298033237
1772699659788380400,9.52538037109375,0.0003074849955737591,0.0014075529761612415,-0.002413430018350482
1772699659798337500,9.535337646484376,-0.0013370623346418142,0.0024700607173144817,-0.0012292000465095043
1772699659808294700,9.545294677734375,0.0010664404835551977,0.0016921511851251125,0.0026353131979703903
1772699659818251300,9.555251220703125,-0.0000743200071156025,-0.0005736597813665867,0.003474296536296606
1772699659828208400,9.56520849609375,0.0026626107282936573,-0.004365734755992889,0.0007845037616789341
1772699659838165500,9.57516552734375,-0.001000148942694068,-0.001625223085284233,0.00007322756573557854
1772699659848122600,9.58512255859375,0.00048110121861100197,0.0002959812991321087,-0.0022503803484141827
1772699659858079500,9.59507958984375,-0.002221562433987856,0.0009289025329053402,0.003653903491795063
1772699659868036600,9.60503662109375,-0.0011437812354415655,-0.00041972193866968155,0.001510324887931347
1772699659877993500,9.614993408203125,0.0012895313557237387,-0.0008021751418709755,-0.000004490837454795837
1772699659887950300,9.624950439453125,0.0004543638788163662,-0.0022099222987890244,-0.00025109946727752686
1772699659897907500,9.634907470703125,-0.0032501257956027985,0.0015252609737217426,-0.001495524775236845
1772699659907864600,9.644864501953125,0.0013448921963572502,-0.0006236438639461994,0.0022997460328042507
1772699659917821400,9.654821533203124,-0.0029173162765800953,0.00020483462139964104,0.0010423744097352028
1772699659927778600,9.664778564453124,-0.0030246416572481394,0.0007441248744726181,-0.0008788297418504953
1772699659937735700,9.674735595703124,-0.002172555308789015,0.0016649411991238594,-0.0019091921858489513
1772699659947692300,9.6846923828125,-0.0008223325712606311,0.000939762219786644,-0.00022634072229266167
1772699659957649400,9.6946494140625,-0.0002678793389350176,-0.0006172005087137222,-0.001185533357784152
1772699659967606500,9.7046064453125,0.0018330884631723166,-0.0010542254894971848,0.004166887607425451
1772699659977563400,9.7145634765625,0.0018486813642084599,-0.0010270867496728897,-0.0007456359453499317
1772699659987520500,9.7245205078125,0.00021882681176066399,-0.0004497133195400238,-0.0015248768031597137
1772699659997477600,9.7344775390625,0.0024188135284930468,0.0006437008269131184,-0.0002849772572517395
1772699660007434500,9.7444345703125,-0.0018646146636456251,0.0026429356075823307,0.00033873505890369415
1772699660017391400,9.754391357421875,0.0004112923052161932,0.00032955920323729515,0.002377232536673546
1772699660027348500,9.764348388671875,-0.00023265997879207134,-0.00048723258078098297,-0.0022401560563594103
1772699660037305600,9.7743056640625,0.0008418161887675524,0.0002008727751672268,0.0023432006128132343
1772699660047262500,9.784262451171875,0.00001943204551935196,-0.0007882253266870975,0.00017378991469740868
1772699660057219600,9.794219482421875,-0.0006094980053603649,0.013029059395194054,0.0081101655960083
1772699660067176700,9.8041767578125,-0.0009261479135602713,0.000652817077934742,-0.00477260909974575
1772699660077133300,9.81413330078125,0.0006499553564935923,-0.0030997854191809893,-0.003588590305298567
1772699660087090400,9.82409033203125,-0.0004238311666995287,-0.01269222516566515,-0.007568418048322201
1772699660097047600,9.834047607421875,0.0019060771446675062,0.0004898891784250736,-0.0016687177121639252
1772699660107004400,9.84400439453125,0.002218998735770583,0.00029068486765027046,-0.0005959963891655207
