time,seconds_elapsed,z,y,x
1772699420124769800,0.073769775390625,-0.11535546799488365,0.24081074359118937,0.1595336324173957
1772699420134726700,0.0837265625,-0.11987966742105781,0.24893267524838447,0.1832899171885103
1772699420144683800,0.093683837890625,-0.11062719736397265,0.2707739201784134,0.1523485432188958
1772699420154642000,0.103641845703125,-0.12860997676756233,0.2773924615353346,0.05666837429180741
1772699420164598800,0.113598876953125,-0.14281447974145411,0.35192601673305035,-0.005702011033892631
1772699420174556000,0.123555908203125,-0.05940316955056041,0.4170645515978336,0.009433014255762099
1772699420184513800,0.133513671875,-0.020939327654242515,0.3580412847429514,0.2578608087219298
1772699420194471000,0.143470947265625,-0.16622688297834246,0.13804945729672907,0.40929508664011954
1772699420204428800,0.1534287109375,-0.14948321691565214,-0.027952421286702153,0.29899054535925385
1772699420214385700,0.1633857421875,-0.10585223804712295,-0.11139759721457958,0.16286423814482986
1772699420224342800,0.1733427734375,-0.09343122095651923,-0.21883798123598097,0.06830963918156921
1772699420234301000,0.183301025390625,-0.0823199530239217,-0.2728688466310501,0.024832827961444853
1772699420244257800,0.1932578125,-0.09449030155539512,-0.2501502343446016,-0.024964491517096756
1772699420254214700,0.203214599609375,-0.12264962532473728,-0.25699089401960373,-0.014728490315377712
1772699420264172800,0.2131728515625,-0.1719592891504988,-0.28698621931076046,0.02928206245526671
1772699420274130000,0.2231298828125,-0.18451251778602598,-0.2445481765538454,-0.03298099003843963
1772699420284087600,0.233087646484375,-0.21681610175324603,-0.16097382128834722,-0.036363472083583474
1772699420294044700,0.243044677734375,-0.2347878300398588,-0.11665887874364853,-0.033887218163162466
1772699420304001800,0.253001708984375,-0.2216384256094694,-0.15059446609318256,-0.07105367719270289
1772699420313960000,0.2629599609375,-0.1880172927702777,-0.1675976233422756,-0.10963219497725367
1772699420323916800,0.272916748046875,-0.1900192985087633,-0.13649638263583183,-0.09686557931937277
1772699420333873700,0.282873779296875,-0.1847013366227038,-0.08466098145842552,-0.12330021645426749
1772699420343831800,0.292831787109375,-0.14730653046369552,-0.044270518881082535,-0.08830730207152664
1772699420353789000,0.302788818359375,-0.13061375433802605,-0.04811667291522026,-0.08374189385212957
1772699420363745800,0.312745849609375,-0.13009234254611654,-0.04298164811432361,-0.04205320815779268
1772699420373703700,0.32270361328125,-0.07786704700198024,-0.019055413603782653,-0.056460357564315194
1772699420383660800,0.332660888671875,-0.00488892281902954,-0.012649053692817687,-0.1239955783072859
1772699420393619000,0.342618896484375,0.08704349268078804,-0.01568272230029106,-0.08227489003948867
1772699420403575600,0.352575439453125,0.1142027542958036,-0.13074410271942616,-0.06343991425335407
1772699420413532700,0.36253271484375,0.12959261286305263,-0.24045886141359804,-0.06282185542024672
1772699420423490800,0.37249072265625,0.21140521915303542,-0.38318566287159916,0.1135701920133084
1772699420433448000,0.382447998046875,0.3985258553445339,-0.6969026527196168,0.10418225900828838
1772699420443404800,0.39240478515625,0.4127513645738363,-0.47326750033497805,-0.10762085515484213
1772699420453362700,0.40236279296875,0.25296644254280254,-0.08807166668474674,0.19961926682926714
1772699420463319800,0.41231982421875,0.20282208145856856,-0.06407412050366401,0.15563881693594156
1772699420473277700,0.422277587890625,0.17336804170357062,0.024388006803393363,0.052358182942494745
1772699420483233800,0.43223388671875,0.16575345678031445,0.29055297188162804,0.06688070235699414
1772699420493190700,0.442190673828125,0.1638251190662384,0.44960137806534767,0.0695422497164458
1772699420503148800,0.452148681640625,0.2201268520027399,0.46072073797285557,0.10784019699394702
1772699420513106000,0.46210595703125,0.17241466823518276,0.4204980331778526,0.2421834932491183
1772699420523062800,0.472062744140625,0.17906243568658828,0.24899755717813968,0.2722188582897186
1772699420533020700,0.482020751953125,0.24408874234855174,0.1180278290092945,0.17734065339528024
1772699420542977800,0.491977783203125,0.35435178257524963,0.022699907585978507,-0.04436959534138441
1772699420552936000,0.50193603515625,0.5565297209113836,-0.22867548463940618,-0.5970286122992634
1772699420562892800,0.511892822265625,0.591240384286642,-0.6004173779547214,-0.5917280216731131
1772699420572849700,0.521849609375,0.41273090630769727,-1.0202928953200578,-0.10807327509745955
1772699420582807800,0.531807861328125,0.23340892463577909,-0.5285439818769693,0.5076859758306295
1772699420592765000,0.541764892578125,0.15853285787701607,0.23634616539776324,0.3527237429820001
1772699420602721800,0.5517216796875,-0.011519209412671625,0.4053986637234688,0.12945983506254852
1772699420612679700,0.5616796875,0.09794131879210471,0.22879881875813007,0.10247830463461577
1772699420622636800,0.57163671875,0.09542904371023178,0.28781448682844635,0.17767814172133803
1772699420632594000,0.581593994140625,-0.059684361112117765,0.49577217760980125,0.22751053251326084
1772699420642551600,0.591551513671875,-0.08734623848702758,0.6957160732835531,0.21218056917339562
1772699420652508700,0.6015087890625,0.03419105994794518,0.9853156899631023,0.12864574220068753
1772699420662466800,0.611466796875,0.21357089102063326,1.2722282595157623,0.14865538778938353
1772699420672424000,0.621423828125,0.21733283737003803,1.1182271998494864,0.3027423721734434
1772699420682380800,0.631380859375,0.45854927568528797,0.9674176297008991,0.3934359117943793
1772699420692338700,0.641338623046875,0.44649468075428156,0.8647896143972873,0.509381600767374
1772699420702295800,0.6512958984375,0.5759966379255056,0.5813952820986509,0.7270831253193318
1772699420712253000,0.6612529296875,0.7798468933880328,0.8101005773544311,0.8444737524036318
1772699420722210800,0.6712109375,1.0055424854338169,1.260404550731182,0.6941314344406128
1772699420732167700,0.681167724609375,0.6422024366956204,1.6264420949250458,-1.0402287450201808
1772699420742125800,0.691125732421875,1.3814122723340987,1.6549644250541924,-1.2243102509777992
1772699420752083000,0.7010830078125,-0.9027461278259754,2.530863462486863,0.4870093177005648
1772699420762039600,0.71103955078125,-2.4149469265431165,2.1022838296622037,1.284312372802198
1772699420771997700,0.720997802734375,-0.99741229740493,1.1342951220750808,0.5875169798493385
1772699420781954800,0.730954833984375,-0.3160912446986884,0.7394342189788818,0.21988091441765426
1772699420791912000,0.740911865234375,0.22070202154219148,0.4876379709929228,-0.27697971601597965
1772699420801869800,0.750869873046875,0.3638899377059191,0.5536638100862503,-0.8528727474365383
1772699420811826700,0.76082666015625,0.28903906018733977,0.7656535328626632,-1.0296420306846499
1772699420821784800,0.770784912109375,0.24573585196845232,0.987723920148611,-0.8218279130924493
1772699420831741700,0.78074169921875,0.12174604581482708,1.0365408502876758,-0.38079562592990696
1772699420841698600,0.790698486328125,0.08698562501370906,1.180615559223294,0.011569112969003616
1772699420851656700,0.80065673828125,0.14916180294156073,1.3547861312150955,0.18012754416745155
1772699420861613800,0.81061376953125,0.18202888427674768,1.3612515278369188,0.2061862606620416
1772699420871571000,0.820571044921875,0.23933767536394296,1.4496972885310648,0.19122385199293493
1772699420881528800,0.83052880859375,0.22715338963866233,1.387916831922531,0.351023076543957
1772699420891485700,0.840485595703125,-0.015127353439852595,1.1340455312281845,0.6380842607870698
1772699420901442800,0.85044287109375,-0.3469370493393391,0.9863380187481641,0.9046516691863536
1772699420911400700,0.860400634765625,-0.6144084208410233,0.9395493795663118,1.1500980366889386
1772699420921357800,0.87035791015625,-0.5688367562334984,1.073491986066103,1.1449130352664738
1772699420931315700,0.880315673828125,-0.1448099644076079,1.2801070300668478,0.8529108144246041
1772699420941272800,0.89027294921875,0.5246949052333831,1.5169909556031227,0.27534895474268123
1772699420951229700,0.900229736328125,1.0700433799821882,1.7932511982381343,-0.2957477823120542
1772699420961187800,0.910187744140625,1.126760707982257,1.9963427442878483,-0.6533207006245851
1772699420971144700,0.920144775390625,0.7863374244511127,2.460037529635429,-0.6980192356593906
1772699420981101800,0.930101806640625,0.3475356728196144,3.238264128345251,-0.5299765354307369
1772699420991059700,0.940059814453125,0.07936462861597537,3.806795837217569,-0.14956903203558175
1772699421001016800,0.950016845703125,0.13988609813936054,4.0501176868468525,0.28071389757562426
1772699421010975000,0.95997509765625,0.5425316637624055,3.7905677559942004,0.3954381184622645
1772699421020931800,0.969931884765625,0.8828063326030969,3.10734233097136,0.1924590928763151
1772699421030888700,0.979888671875,0.6712724638354033,2.2718618131667374,0.20046247618775814
1772699421040846800,0.989846923828125,-0.22496961585879324,1.700637211948633,0.2893560537146404
1772699421050803700,0.9998037109375,-1.4157932653635739,1.617456239914894,0.0711833679869771
1772699421060760800,1.0097607421875,-2.2286773359566925,1.5713707805663346,-0.3366040905691683
1772699421070718700,1.01971875,-2.237334105142951,1.200720774140954,-0.31769915481936184
1772699421080675800,1.02967578125,-2.0215964280098677,0.3863122704595327,0.06357364190192893
1772699421090634000,1.039634033203125,-2.080652428090572,-0.9027344373881816,0.1264958158914931
1772699421100590600,1.049590576171875,-2.266911497282982,-2.125791546499729,-0.29490174167566
1772699421110547700,1.059547607421875,-2.1402444347441194,-3.2861165973663327,-0.6255244197476655
1772699421120505900,1.069505859375,-1.0042027612626552,-4.214196488413214,-0.5716865927066653
1772699421130462700,1.079462646484375,0.7557295202195644,-6.0871852402329445,-0.40374242094904184
1772699421140419800,1.089419921875,2.3547931943535803,-9.048899203085899,-0.0012734905345365404
1772699421150377700,1.099377685546875,3.172339411538839,-12.311583486938476,0.7047208521898836
1772699421160334800,1.1093349609375,2.8748271220386026,-15.096444506847858,1.0620532580111175
1772699421170291700,1.119291748046875,1.3947592451632023,-17.15975300142765,0.3409913292100653
1772699421180249600,1.12924951171875,-0.5475087580552325,-18.62489920350313,-1.3913896225996314
1772699421190206700,1.139206787109375,-2.097493672776222,-18.990957205963134,-3.537072010613978
1772699421200164900,1.149164794921875,-2.466969959247112,-18.8701318551898,-5.425493601626157
1772699421210122000,1.1591220703125,-1.7493348996222018,-18.30961978664398,-6.007488603183627
1772699421220078600,1.16907861328125,-0.41755441747400907,-17.085048765838145,-4.768398643159866
1772699421230036700,1.17903662109375,1.2041267831921576,-15.095048668575286,-2.520243868795037
1772699421239993900,1.188993896484375,2.175373031270504,-12.759133193171024,-0.473006511311233
1772699421249950700,1.19895068359375,1.968838066768646,-11.570807205700874,1.5057466541416942
1772699421259908600,1.20890869140625,1.514022753447294,-11.441880381536484,2.6445325117647647
1772699421269865700,1.21886572265625,0.22599369820952414,-10.730000524437427,2.5281992117136713
1772699421279824000,1.228823974609375,-1.7138836470127106,-8.630553964027762,1.8818743613258002
1772699421289780700,1.23878076171875,-2.9808956331849097,-5.283462965738773,1.5560951777622103
1772699421299737600,1.248737548828125,-2.6749381714224816,-1.57947342300117,1.9515828344546258
1772699421309695700,1.25869580078125,-1.0926292327344418,1.7846265777558088,2.7637343529894944
1772699421319652900,1.26865283203125,0.47718964221477506,4.733792024680972,3.3004914519384503
1772699421329610000,1.27860986328125,1.2245640065431593,7.208672318661213,2.9732071245089173
1772699421339567600,1.288567626953125,0.989337200564146,9.02073518487513,2.0499647366210816
1772699421349524700,1.298524658203125,0.509823499315977,9.660100425383447,1.102724583356455
1772699421359481900,1.30848193359375,0.12984919970631598,10.028431633472442,-0.16242325291167944
1772699421369439700,1.318439697265625,-0.565667551612854,10.31915177861452,-1.497004252498597
1772699421379396600,1.328396728515625,-1.0612748940497636,10.390966137981414,-2.5109759819731114
1772699421389354800,1.338354736328125,-1.0155763881921767,10.521948141109943,-3.068199822628498
1772699421399312000,1.348311767578125,-0.4673153139322996,10.575389808440208,-2.998262363049388
1772699421409268700,1.358268798828125,0.23389057067288085,10.405855079555511,-2.5777774816140533
1772699421419226600,1.3682265625,0.8127993149191141,10.17481929552555,-2.0618924903020264
1772699421429183700,1.378183837890625,0.9530869065314531,9.713220021152496,-1.5155658912360668
1772699421439140900,1.388140869140625,1.3945757052898407,9.011500323539972,-0.9621293140344321
1772699421449098800,1.3980986328125,1.8282471082955598,8.297810786670446,-0.5080284325927495
1772699421459055600,1.4080556640625,1.9584025974720716,7.698414568457007,0.046511995931249106
1772699421469012700,1.4180126953125,2.0700445248365402,7.092161323955654,0.46125868077445775
1772699421478971000,1.427970947265625,2.175887410533428,6.589727350369095,0.758977123838663
1772699421488928000,1.437927978515625,2.100733093088865,6.223255506411195,0.9936721610285341
1772699421498886000,1.447885986328125,1.9474796369194984,6.035336979573965,1.1458188249997794
1772699421508843000,1.457843017578125,1.8058733639240263,5.978856382939219,1.2506233075596391
1772699421518800100,1.467800048828125,1.7065648484319447,6.015582477790117,1.2853707958139478
1772699421528758000,1.477758056640625,1.5906833838015795,6.187671567332744,1.1465268271386622
1772699421538715000,1.48771484375,1.5003583852320908,6.559716242986917,0.9762015323981642
1772699421548672000,1.497672119140625,1.515115809381008,6.992333168503642,0.733574825426191
1772699421558630000,1.5076298828125,1.5492489651292563,7.379110133865475,0.506384793571569
1772699421568587000,1.5175869140625,1.5790572434157133,7.760786561217904,0.47808618919569995
1772699421578543900,1.5275439453125,1.4261428099423645,8.139616951489447,0.6140246091552078
1772699421588502000,1.537501953125,1.1072913798153399,8.417302258491516,0.9864839300248771
1772699421598459000,1.547458984375,0.8296639404803514,8.690148308768867,1.0447840702369808
1772699421608417000,1.5574169921875,0.625174218070507,8.846589162802696,0.8564660226881503
1772699421618374000,1.567373779296875,0.42863223979473114,8.966189940217136,0.5330721633585169
1772699421628331000,1.5773310546875,0.1384825788838323,9.118317022705078,0.2684785757828504
1772699421638289000,1.587288818359375,-0.04624972826587036,9.252886821192503,0.04944397599622607
1772699421648246000,1.59724609375,-0.14834816673742607,9.141931707048416,-0.023176585187017915
1772699421658203000,1.607202880859375,-0.33931619907207783,8.799495987716316,0.08056209477223455
1772699421668161000,1.6171611328125,-0.6295943726003169,8.448922554636,0.32458712423481045
1772699421678118000,1.627117919921875,-1.0028256276905536,7.871359398046136,0.42756402604132887
1772699421688076000,1.637075927734375,-1.5175322228729724,6.997534828799963,0.4985772981584072
1772699421698033000,1.647032958984375,-2.064787334960699,5.689046922901272,0.5246029891662299
1772699421707990000,1.656989990234375,-2.5939959182262418,3.8018805926471946,-0.0688638389982283
1772699421717948000,1.666947998046875,-2.840004814982414,1.6007763232707977,-1.2636368106506763
1772699421727905000,1.676905029296875,-2.8641385547637936,-0.7361503750026226,-2.10220696503371
1772699421737862000,1.68686181640625,-2.2727406418278813,-2.494775665539503,-2.7169489286780357
1772699421747819800,1.69681982421875,-0.497776649300009,-3.9054537798464297,-3.3934202032655474
1772699421757777000,1.70677685546875,2.0975312283076346,-6.124105980873107,-3.654494274945557
1772699421767734000,1.716734130859375,4.275631492584943,-9.368318788489699,-3.5367306498304005
1772699421777692200,1.726692138671875,5.278139140367507,-13.249168288433552,-2.601157480418682
1772699421787649000,1.73664892578125,6.126584353685379,-18.725545689600704,-1.2775704973265527
1772699421797607000,1.74660693359375,5.797490346485376,-25.265441964352128,0.10261968586668371
1772699421807564000,1.75656396484375,3.3145617706060406,-29.277644638824462,0.8258214397080242
1772699421817521000,1.76652099609375,-1.9384148714542389,-28.452189840471743,0.7746604306608438
1772699421827478800,1.776478759765625,-6.594930179709196,-24.03537643778324,1.0077403608042745
1772699421837436000,1.786435791015625,-7.385054136961698,-17.980379648971557,0.9258225405741483
1772699421847393000,1.79639306640625,-4.21758028563261,-11.777123559015989,0.5855043979179114
1772699421857351200,1.80635107421875,1.0655096090100704,-6.248032804793119,0.0005101414792239666
1772699421867307800,1.816307861328125,5.856703582954406,-2.506422264191508,-0.8592796188041567
1772699421877265000,1.826264892578125,7.7638009406030175,-0.7497948694735765,-1.4156881975539028
1772699421887223000,1.83622314453125,6.230487795752286,-0.7910024936527014,-1.0800400925353169
1772699421897180200,1.84618017578125,2.384816576695442,-1.3492746743172406,-0.2721417744655162
1772699421907137800,1.8561376953125,-1.0853801383890211,-1.4847721090435981,0.017444544341042638
1772699421917095000,1.866094970703125,-2.6375053896069525,-1.11712011539042,-0.3324935865104198
1772699421927052000,1.876052001953125,-2.3479203859746454,-0.41981180447936056,-1.2342545026913285
1772699421937010200,1.88601025390625,-0.91655026983805,0.4080068003952503,-2.093303235349059
1772699421946966800,1.895966796875,0.3880500540375709,1.3728273993402718,-2.4360823612913487
1772699421956924000,1.905923828125,0.8115479266185313,2.5603373942524192,-2.2359341752171513
1772699421966882000,1.915882080078125,0.43914895763397216,3.5387568949609993,-1.6069325078129768
1772699421976839200,1.925839111328125,-0.2575462263474241,4.109319817399978,-0.7275562227237969
1772699421986795800,1.935795654296875,-0.696769966250658,4.5191023952960965,-0.022787658934667707
1772699421996754000,1.94575390625,-0.7618062097847461,4.661254611736536,0.4368056093782186
1772699422006711000,1.9557109375,-0.7373918994963169,4.558763959077,0.6216919289126992
1772699422016669000,1.9656689453125,-0.5983551847279072,4.7551978008031845,0.531729187784344
1772699422026625800,1.975625732421875,-0.34585575690865517,5.206542223143577,0.34122115591056645
1772699422036583000,1.9855830078125,-0.08039521377272904,5.75893411359787,0.2350273378841579
1772699422046541000,1.995541015625,0.042947234388068314,6.3073489171147346,0.3280156373787671
1772699422056498200,2.005498291015625,-0.08382036591582,6.709598761418461,0.5124800782393664
1772699422066454800,2.015454833984375,-0.36235571387596427,7.067202239266037,0.7390095638260245
1772699422076413000,2.025412841796875,-0.6084020200330764,7.35787679170072,0.7724049068190157
1772699422086370000,2.0353701171875,-0.7208440847992896,7.550651526397466,0.6304517200820148
1772699422096327200,2.0453271484375,-0.6794097391922026,7.61761669216752,0.41090675962045786
1772699422106284800,2.055284912109375,-0.6671814681947231,7.598898547694087,0.12948555402569473
1772699422116242000,2.065241943359375,-0.8818646678388118,7.419134101217985,-0.16669731350168585
1772699422126200000,2.075199951171875,-1.1814379815220832,7.247125091174245,-0.284818592948094
1772699422136157000,2.085156982421875,-1.2850140913307666,7.041848017778992,-0.21822620601318776
1772699422146113800,2.09511376953125,-1.0778208821158854,6.817934048452973,0.010321414462849498
1772699422156072000,2.105072021484375,-0.8872785826463252,6.357002298077941,0.39340179032906886
1772699422166029000,2.115029052734375,-0.7263678166568279,5.64298601347208,0.6899283567275851
1772699422175986200,2.124986083984375,-0.7242938599269837,4.640711005401611,0.9470838667243718
1772699422185944000,2.134944091796875,-0.9230617706239223,3.4246734196633097,0.9857136032395064
1772699422195901000,2.14490087890625,-1.0836754533629864,1.8037047877132892,0.8374591974664479
1772699422205858000,2.154858154296875,-1.051243913900852,-0.5798235027372837,0.6659118135850877
1772699422215816000,2.16481591796875,-1.1090227336525917,-3.395575335472822,0.3222788472924381
1772699422225772800,2.174772705078125,-1.4324164833843707,-6.217224994075298,-0.19204788172692058
1772699422235731000,2.18473095703125,-1.4455284784138203,-8.992418021929264,-0.6699819856334477
1772699422245688000,2.19468798828125,-0.4249894263129681,-11.479516576969623,-1.2350230028457938
1772699422255645000,2.20464501953125,1.5128268216609955,-14.284941076958178,-1.4609128022894262
1772699422265603000,2.21460302734375,3.5083623412191867,-17.943531389045713,-0.9692212450567632
1772699422275560000,2.224559814453125,4.603751686316729,-21.978602897930145,-0.33167693636529144
1772699422285517000,2.23451708984375,4.166496579605341,-25.43519413537979,-0.1039251424420625
1772699422295475000,2.244474853515625,2.2982944775402543,-27.357670263946055,-0.17330920592211185
1772699422305432000,2.25443212890625,-0.06884973740763962,-26.963468701541423,-0.5963406300351023
1772699422315389000,2.264388916015625,-1.4541221192359923,-24.36311084706783,-1.4259915649034083
1772699422325347000,2.27434716796875,-0.7435071675062179,-20.223239239537715,-2.119666195487231
1772699422335304000,2.284303955078125,1.806361878093332,-15.987622946476936,-2.295045120355487
1772699422345262000,2.294261962890625,5.174932448393106,-12.772483673131465,-1.9474879663564264
1772699422355219000,2.304218994140625,7.60954093773961,-10.48094276150465,-0.9027622021779418
1772699422365176000,2.314176025390625,7.776942161726951,-9.0217230268687,0.5631702549044042
1772699422375134000,2.324134033203125,5.383023410165309,-7.901314975848794,2.6112875370278954
1772699422385091000,2.334091064453125,0.985687445884943,-7.309135264885425,4.719292082424461
1772699422395048000,2.3440478515625,-3.5485458830475807,-6.164487675622105,5.654357302314042
1772699422405005800,2.354005859375,-6.61327481469512,-3.8701585945814845,4.66611491124928
1772699422414963000,2.363962890625,-7.444536253499984,-0.8614128314405679,3.0224966405957936
1772699422424920000,2.373920166015625,-6.232039116847515,2.843013349148631,1.3997668441921471
1772699422434878000,2.3838779296875,-4.091676608681679,6.732436031648517,0.05767499405108392
1772699422444835000,2.3938349609375,-1.7289117047965525,10.438086785596608,-1.217967896213755
1772699422454793000,2.40379296875,0.1680324345629662,13.56845986354351,-2.237001512187719
1772699422464750000,2.41375,1.2278443433880806,15.423047281754016,-2.6721988095864653
1772699422474707000,2.42370703125,1.2716753018081188,16.053829402834175,-2.307114328333735
1772699422484664800,2.433664794921875,0.46100766515545544,16.20640013743639,-1.3405423556767404
1772699422494622000,2.4436220703125,-0.4318834236104041,16.199353141534328,-0.10117197127640247
1772699422504578800,2.453578857421875,-0.6697802525162696,15.904591612046955,1.182252001318708
1772699422514537000,2.463536865234375,-0.13508300870656967,15.335471874153614,2.2641139755189417
1772699422524493800,2.473493896484375,0.8393629121959209,14.530828393161295,2.9839731409341095
1772699422534451000,2.483450927734375,1.6160288374602794,13.730540769290924,3.0588007106423376
1772699422544408800,2.493408935546875,1.7801017938077448,12.809398568552732,2.6788056605055925
1772699422554366000,2.503365966796875,1.448313140696287,11.703672538357972,1.886970223160088
1772699422564323800,2.51332373046875,1.0158931990563869,10.489619404435157,1.061617131616175
1772699422574281000,2.523281005859375,0.8115876010417937,9.287426804175972,0.4293732308877632
1772699422584237800,2.53323779296875,0.7696820577263832,8.01980516167283,-0.10082096588164567
1772699422594196000,2.543196044921875,0.5342015327146277,7.004156292766332,-0.325324462066032
1772699422604152800,2.55315283203125,0.08954641541242599,6.37524230364561,-0.3020713775767013
1772699422614110000,2.56310986328125,-0.4591513332316652,6.153257256555557,-0.2276750023599714
1772699422624067800,2.57306787109375,-0.7359434542536735,6.407980790165066,-0.19924458829797803
1772699422634025000,2.58302490234375,-0.4870318583259359,6.860533419251442,-0.22928367966562507
1772699422643981800,2.59298193359375,0.0036906712114810943,7.200501287165284,-0.3513133281948045
1772699422653940000,2.60293994140625,0.3522188621997833,7.438851778122782,-0.39786143661905077
1772699422663896800,2.612896728515625,0.4866507500538602,7.82858642424643,-0.21822887289430945
1772699422673854000,2.62285400390625,0.46225857853200286,8.042275352156162,-0.016492869639396668
1772699422683811800,2.632811767578125,0.30907643403317775,8.013469528910518,0.08127484615147114
1772699422693769000,2.64276904296875,-0.03634093145821243,7.881077658984065,0.07928264942094683
1772699422703727000,2.65272705078125,-0.37187867143750186,7.814574850028753,0.020494652626663445
1772699422713684000,2.66268408203125,-0.4876163436830043,7.993470696976781,0.004591529041342437
1772699422723640800,2.672640869140625,-0.4710614416580647,8.167368297246098,0.049886203338392075
1772699422733599000,2.682598876953125,-0.5436217605540529,8.152692706161737,0.28311708625983445
1772699422743555800,2.692555908203125,-0.6882243292886764,8.241170031037926,0.2807635819362476
1772699422753513000,2.702512939453125,-0.8470856884676963,8.239509404349327,0.07919241385422647
1772699422763470800,2.712470947265625,-0.8663467807114124,8.070815802463889,-0.08499635089263319
1772699422773428000,2.722427978515625,-0.9074678956508636,7.678578233608603,-0.034549408398941155
1772699422783384800,2.732384765625,-1.1079296777188776,7.144523379355668,0.23860293134860694
1772699422793342700,2.7423427734375,-1.4502280344069003,6.378385277846455,0.4375595695506781
1772699422803299800,2.7522998046875,-1.9015911614477634,5.395656097245216,0.33870946535058316
1772699422813257000,2.762257080078125,-2.3047160350203515,3.846591256511211,0.053547684988006945
1772699422823215000,2.772215087890625,-2.8053520192742347,1.5745587629526852,-0.12346673212759196
1772699422833172000,2.782171875,-3.473825280845165,-1.002132969251275,0.031750133069232106
1772699422843129900,2.7921298828125,-3.6497301292836664,-2.858369323712587,-0.1719506309200078
1772699422853087000,2.8020869140625,-1.7686394656814635,-3.5971705054849386,-1.4088096900865434
1772699422863043800,2.8120439453125,2.9416192693293093,-4.1736704167574645,-3.2286578033491966
1772699422873001700,2.822001708984375,9.429052366393805,-6.158236798533797,-4.926244103294611
1772699422882958800,2.831958740234375,13.97118726223111,-13.702857812595367,-4.995806884342432
1772699422892916000,2.841916015625,13.036238654458522,-25.975547212994098,-2.0487135675162076
1772699422902874000,2.8518740234375,5.821022028720378,-34.8995948785305,2.414751257840544
1772699422912830700,2.861830810546875,-4.546473217302561,-36.39139294068813,5.929952359038591
1772699422922788900,2.871788818359375,-11.988614100098609,-31.024593520092964,6.83711104260981
1772699422932746000,2.88174609375,-12.963468017280102,-22.173751376020906,4.365152189034223
1772699422942703000,2.891703125,-7.642057890462875,-14.514270057070254,1.4216317622587085
1772699422952660700,2.90166064453125,0.9096972621381282,-9.553018353280425,-0.5460166563339531
1772699422962617900,2.911617919921875,8.481901279652119,-6.387020419722795,-1.4672218393057583
1772699422972575000,2.921574951171875,11.49763091033101,-4.6398318844795226,-1.461947552164644
1772699422982532900,2.931532958984375,9.420899455076455,-3.6497821517318485,-0.7276480657257139
1772699422992489700,2.94148974609375,4.1412019793510435,-2.9367116235435007,0.21374953552316872
1772699423002446800,2.95144677734375,-0.06509359974451363,-2.688376914188266,0.6093477399179712
1772699423012405000,2.961405029296875,-1.8412077121555803,-2.6792648024499415,0.4300364075042307
1772699423022362000,2.971362060546875,-2.355765838778019,-2.8153555268943307,0.06093717418480664
1772699423032318700,2.981318603515625,-2.175570599669218,-2.489663437092304,-0.5080176189377904
1772699423042276900,2.99127685546875,-1.651957059931755,-1.4206640862703324,-1.3655264286771416
1772699423052234000,3.00123388671875,-1.0246049133002757,-0.3644622577011585,-1.8174024736762047
1772699423062191900,3.01119189453125,-0.6146282010715455,0.4480775294989347,-1.64935535300076
1772699423072148700,3.021148681640625,-0.562879382199049,1.4450573537707327,-1.0992461666561661
1772699423082105900,3.03110595703125,-0.5180723452884703,2.6131717433393,-0.37973829889670013
1772699423092064000,3.04106396484375,-0.26082652665972705,3.7820109400510784,0.4391122058201581
1772699423102020900,3.051020751953125,0.20560791278481483,4.613000576177239,1.2157213593959808
1772699423111977700,3.060977783203125,0.3795101161640137,5.162962024614215,1.7331326834924519
1772699423121936000,3.070935791015625,-0.018057123281434176,5.4820957788139575,1.7716602748073635
1772699423131893000,3.08089306640625,-0.695846348599717,5.78770895718336,1.264502779830247
1772699423141850000,3.09085009765625,-1.205148600520566,6.081047760391235,0.515896791347675
1772699423151807700,3.100807861328125,-1.4284581011474131,6.2489066650182,-0.24213296863827852
1772699423161764900,3.110764892578125,-1.482979964929819,6.094385965391993,-0.7672722201056777
1772699423171722000,3.120721923828125,-1.4842659130871294,5.716943230086565,-0.954604179226607
1772699423181679900,3.130679931640625,-1.445885036766529,5.167752181500196,-0.8334891247916966
1772699423191636700,3.14063671875,-1.1962123568058014,4.8685927093148225,-0.543015976680629
1772699423201595000,3.150594970703125,-0.762761318552494,4.575784067460894,-0.26584640064835546
1772699423211552000,3.160552001953125,-0.09613405017443001,4.304137456101179,-0.31809473000820726
1772699423221508900,3.1705087890625,0.5929892007153481,3.90959336386919,-0.4506384660281241
1772699423231467000,3.180467041015625,1.0443372763175516,3.3179543356537815,-0.32420013421121985
1772699423241424000,3.190423828125,1.360094759017229,2.7880706296056506,-0.21006142159495503
1772699423251381000,3.200381103515625,1.5560557225346565,2.1493273203879593,-0.26563447493072595
1772699423261339000,3.2103388671875,1.7155659010112285,1.4365893851548432,-0.3916992972601205
1772699423271295700,3.220295654296875,1.9480992301225661,0.38315935938656326,-0.48195210737623273
1772699423281252900,3.2302529296875,2.105916633206606,-1.3772130670785903,-0.2915519928563386
1772699423291211000,3.2402109375,1.4540052148580551,-3.8293653964221477,0.355408598151803
1772699423301167900,3.25016796875,-0.47441082515120503,-6.053969783851504,1.005429891904816
1772699423311126000,3.2601259765625,-2.9539632025957108,-6.91242142739892,1.1688391236465423
1772699423321083000,3.270082763671875,-4.785097264504432,-6.257903625944256,0.7502763693802058
1772699423331040000,3.2800400390625,-5.2104830697238445,-4.481873027098179,0.04630933123230934
1772699423340998000,3.289997802734375,-3.964025211280584,-2.3616619110792874,-0.6761299868691713
1772699423350955000,3.299955078125,-1.7106687766194342,-0.4653238478541374,-1.0200697540886698
1772699423360912000,3.309911865234375,0.3894705152947455,1.0364666160076856,-0.7631328552786261
1772699423370869800,3.319869873046875,1.7355226473689078,2.2532465445458887,-0.02912833319827914
1772699423380827000,3.329826904296875,2.2418097892522812,3.078571579039097,0.904053630227968
1772699423390783700,3.33978369140625,2.0461749889492986,3.313823519459367,1.5921774217516182
1772699423400742000,3.349741943359375,1.2915525531888008,2.964076600331068,1.6745036766521633
1772699423410699000,3.359698974609375,0.45577634037323295,2.2463316505908963,1.2451932453349233
1772699423420655900,3.36965576171875,0.037465515041351316,1.4522528182327747,0.42540224489755923
1772699423430614000,3.379614013671875,-0.15398527757525443,0.7723597525030375,-0.689627474084869
1772699423440571000,3.38957080078125,-0.27747487912178037,0.2856143464356661,-1.700920997326076
1772699423450528800,3.39952880859375,-0.35237902119755743,-0.13883271662890911,-2.2065162114225325
1772699423460486000,3.40948583984375,-0.346271936494112,-0.49537645629048344,-2.223536758197844
1772699423470442800,3.41944287109375,-0.43908824042268096,-0.8601660462498665,-1.9249448567673564
1772699423480401000,3.42940087890625,-0.8165245459873228,-1.3950257871448992,-1.2785785053253174
1772699423490357800,3.439357666015625,-1.2172890471041202,-1.591525095322728,-0.5923918193440884
1772699423500315000,3.44931494140625,-1.3309306238532066,-1.4694851080626248,0.03751023096591234
1772699423510273000,3.45927294921875,-0.94367435054183,-1.1050725347220898,0.43207207805030046
1772699423520230100,3.469230224609375,-0.20540570474360137,-0.6637859805375337,0.608615735848993
1772699423530187000,3.47918701171875,0.2744354383606464,-0.20240940900444984,0.7003581269357353
1772699423540145000,3.489144775390625,0.1385878019571304,0.12991525067985057,0.604755261028558
1772699423550102000,3.49910205078125,-0.4192565086841583,0.45571606155335903,0.3553472964186221
1772699423560059100,3.50905908203125,-0.8756897785961627,0.7217793198227882,-0.18182218272350728
1772699423570016800,3.519016845703125,-0.5157691829126327,0.7546662749022245,-0.7692572564430534
1772699423579974000,3.528973876953125,0.30001981534175576,0.8074947787702084,-1.1173698523677884
1772699423589931000,3.538930908203125,0.6138051211856306,0.9001146102786064,-1.1633652222800999
1772699423599889200,3.54888916015625,0.25751689065508543,0.842225315889716,-0.8716641763418912
1772699423609845800,3.558845703125,0.06545834140367805,0.6532751079171896,-0.5113363150317222
1772699423619804000,3.568803955078125,0.08906593841910362,0.31679975829422474,-0.2979390635449439
1772699423629761000,3.578760986328125,0.1732932046353817,0.03372574399113655,-0.2668201775839552
1772699423639718100,3.58871826171875,0.10477087255120276,0.028138883769512176,0.5417660862173885
1772699423649676000,3.598676025390625,-0.4058862280447036,0.21300503729879855,2.5521891591101884
1772699423659633000,3.6086328125,1.8655004418909549,-0.729463444584608,-0.2763765624910593
1772699423669590000,3.618590087890625,0.05561608875989914,-0.7888561292737722,-0.6345433002445846
1772699423679548000,3.6285478515625,0.7059446948964149,-0.4534340880960226,-0.4673790268182754
1772699423689504800,3.6385048828125,0.7154572041291744,-0.13807634530365467,-0.05740355669856071
1772699423699462000,3.6484619140625,0.4116274020452052,0.08394377309978007,-0.11279482372663914
1772699423709420000,3.658419921875,0.483745712794736,0.3224392254859209,-0.18948365726210176
1772699423719377200,3.668377197265625,0.49172085639238355,0.6701607762664556,-0.21634280341938136
1772699423729335000,3.6783349609375,0.6730313632667064,1.1198638611406087,-0.6487981086336075
1772699423739292000,3.6882919921875,0.6924550256609916,1.3703174623459577,-0.761632533718273
1772699423749249000,3.6982490234375,0.7459352714359759,1.3181518063008784,-0.8191830976720899
1772699423759207000,3.70820703125,0.5341886367004365,1.11907826372087,-0.6826458715692162
1772699423769164000,3.7181640625,0.2733376331865787,0.9276584507644176,-0.08577588389776647
1772699423779121000,3.728120849609375,-0.23983638213369993,-0.246952899608016,0.7287601916860789
1772699423789079000,3.7380791015625,0.10764083849694579,-1.1586346135616301,0.3935801425706595
1772699423799036000,3.748035888671875,-0.016374832750298083,-1.4539748197197913,-0.08113646059408783
1772699423808992800,3.75799267578125,0.008099098770879208,-1.3313579093545675,0.2643086696870625
1772699423818951000,3.767950927734375,0.029729915820620952,-1.8292402109861372,0.012789704272523522
1772699423828908000,3.777907958984375,0.11206453669071197,-1.3368202664136886,-0.5354633328113705
1772699423838865200,3.787865234375,-0.011416845016740262,-0.8586439512491225,0.011633300779014826
1772699423848823000,3.797822998046875,-0.00519055438041687,-0.429792515745759,0.07928732559606433
1772699423858780000,3.80777978515625,-0.03222582428958267,-0.0968354033768177,0.054406932165846224
1772699423868738000,3.817738037109375,0.003328304172493517,0.12522387799322604,0.10948306883014738
1772699423878695000,3.82769482421875,0.011114117476809768,0.19164836101531982,0.11580299256667494
1772699423888652000,3.837652099609375,0.05616203220486641,0.21961013465225696,0.07868008041791617
1772699423898610000,3.84760986328125,0.07011807684302329,0.19694822098910808,-0.13457118672691284
1772699423908567000,3.857567138671875,0.05683305420107208,0.19560265159904955,-0.1269032093822956
1772699423918524000,3.86752392578125,-0.047397710990905756,0.1793096884459257,0.023574936854839322
1772699423928482000,3.87748193359375,-0.008286182308197021,0.18960428796708584,-0.007438041046261787
1772699423938439000,3.88743896484375,0.014324284295504912,0.16939269006550312,0.0206246356818825
1772699423948396000,3.89739599609375,-0.004996493113040924,0.08821429002583027,0.028746128947660324
1772699423958354000,3.90735400390625,-0.010307463569310494,0.05016776022613048,0.048559521311894054
1772699423968311000,3.91731103515625,-0.07673370472365058,0.001983282771706581,0.11139474767036735
1772699423978268000,3.927267822265625,-0.05554595069971401,-0.01321837801337242,0.0626367811769247
1772699423988226000,3.93722607421875,-0.018742100737756118,0.07984452108740805,0.00013129822947084902
1772699423998183000,3.947182861328125,0.04388239634633064,0.19030922136604786,-0.10753339606709778
1772699424008140000,3.95714013671875,0.06384966409802437,0.2485954061180353,-0.07798172289021313
1772699424018098000,3.967097900390625,0.005011690682172775,0.18564006051123141,-0.012350070746243
1772699424028055000,3.977054931640625,-0.011672893003886565,0.11036007086038589,-0.053545931422337885
1772699424038013000,3.987012939453125,-0.036768755815690383,0.13515724298655987,-0.05664813522137701
1772699424047970000,3.996969970703125,-0.02806756753239315,0.21950842784345148,-0.09335961702503263
1772699424057927000,4.006927001953125,-0.056337393338349646,0.03087269264757633,-0.03096274555120617
1772699424067884800,4.016884765625,0.02001051780495327,-0.017741992917656896,0.15133074447847902
1772699424077842000,4.026842041015625,0.045865094596147536,-0.18323942911028862,0.07684216093365102
1772699424087799000,4.036799072265625,0.09597148002386093,-0.2823322560250759,0.11056691854409872
1772699424097757000,4.0467568359375,0.009178167278436011,-0.14930501080453396,-0.2471324574260041
1772699424107714000,4.056714111328125,0.07133856311526615,-0.31262042678296564,-0.35953057345263656
1772699424117671000,4.0666708984375,0.09331541255712508,-0.09241758693456649,-0.24462073033340273
1772699424127629000,4.076629150390625,0.06329670639038086,0.0032312370061874387,-0.22180965399052946
1772699424137586000,4.0865859375,0.09396656994223594,0.038702363359928126,-0.07371058490965515
1772699424147543000,4.09654296875,0.1037456211566925,0.14346563712656496,0.13224636050853877
1772699424157501000,4.1065009765625,0.0669546443760395,0.14318389757573605,0.18673614865224808
1772699424167458000,4.1164580078125,0.19036007477045058,0.20721476345956324,0.28844138655513524
1772699424177416200,4.126416259765625,0.10996610310673713,0.3822901753365993,0.13710212997663765
1772699424187372800,4.136372802734375,0.03553308567404747,0.4806774843305349,0.0790934104591608
1772699424197330000,4.146329833984375,0.06640285571217537,0.5733639513343572,-0.0016838249010965227
1772699424207288000,4.1562880859375,0.03390928386449814,0.5099328049093484,-0.048343759669363495
1772699424217245000,4.166244873046875,-0.04859013564586639,0.3611339900612831,-0.0205388936271891
1772699424227202000,4.1762021484375,-0.0443792445191415,0.3458621866494417,-0.06254165023937822
1772699424237160000,4.186159912109375,-0.04614099349465686,0.26708441801071164,0.051048305920325214
1772699424247117000,4.196116943359375,-0.13075988481044767,-0.00927402430176735,0.15204506676029414
1772699424257074000,4.206073974609375,-0.08043371915221213,-0.20761048477888105,0.13416424989383666
1772699424267031800,4.21603173828125,-0.12115502111911773,-0.34793431674838066,0.14495149177014827
1772699424276989000,4.225989013671875,-0.16614567096829413,-0.41883916005492206,0.1548868660574779
1772699424286946000,4.235946044921875,-0.13585808473229408,-0.41940497724413867,0.23046156433857976
1772699424296904200,4.245904296875,-0.11791793889403343,-0.269295664319396,0.2126779973015189
1772699424306860800,4.25586083984375,-0.10921791508793831,-0.02592179224193096,0.280252855935134
1772699424316819000,4.26581884765625,-0.13197685938477516,0.2583680275917053,0.3478239517090842
1772699424326776000,4.275776123046875,-0.14341010754704475,0.4760545007050037,0.3276733267471194
1772699424336733000,4.28573291015625,-0.1688485001862049,0.4494435571551323,0.3660419281080365
1772699424346690800,4.29569091796875,-0.18389058649539947,0.3055371905237436,0.3935452173877507
1772699424356648000,4.30564794921875,-0.18441490263044832,0.04952010997235775,0.28259127228744324
1772699424366605000,4.31560498046875,-0.16316402480900286,-0.1699035621970892,0.17720431366451084
1772699424376563200,4.325563232421875,-0.17541151196360588,-0.31453882762491703,0.2892331214547157
1772699424386519800,4.335519775390625,-0.16636720476448535,-0.37225568805634973,0.2275602534065023
1772699424396477000,4.345476806640625,-0.1433288498712238,-0.24003859017491339,0.27177765386085956
1772699424406435000,4.35543505859375,-0.12959902433753012,-0.07928221102952956,0.28992446471974254
1772699424416392200,4.36539208984375,-0.12424831095933914,0.12351181337833404,0.26333383330553767
1772699424426348800,4.375348876953125,0.1273433543652296,0.46354573226571083,0.26494590814467517
1772699424436307000,4.385306884765625,0.34664018528461454,0.669544690194726,0.04996215465143323
1772699424446264000,4.39526416015625,0.16964754160940645,0.6028033963084221,-0.021398250402882693
1772699424456222000,4.405221923828125,-0.01886953564286232,0.3819780406475067,0.1882763272989541
1772699424466178800,4.4151787109375,-0.12433598924279213,0.0952232920050621,0.4661109065786004
1772699424476136000,4.425135986328125,-0.13263386198878288,-0.08495733405649661,0.5849141769398003
1772699424486094600,4.435094482421875,-0.10015314962267875,-0.15618600248992442,0.5456125690450891
1772699424496051500,4.445051513671875,-0.02484218259496847,-0.1324988374322653,0.4464545314069837
1772699424506008600,4.455008544921875,0.01752279720902443,-0.0533738627910614,0.30697390879597514
1772699424515966700,4.464966796875,0.07531096931099891,0.018604747226834296,0.2155735360799357
1772699424525923600,4.474923583984375,0.0852630390048027,-0.027259178325533866,0.23354948388393967
1772699424535880400,4.48488037109375,0.05952887828946113,0.0139338328063488,0.2549177410073578
1772699424545838600,4.494838623046875,0.08445815236270428,0.06235445710420608,0.2419464696228504
