time,seconds_elapsed,z,y,x
1772699420124769800,0.073769775390625,0.08939898014068604,-0.0312524139881134,0.3972914516925812
1772699420134726700,0.0837265625,0.030999286100268364,-0.019282221794128418,0.38773012161254883
1772699420144683800,0.093683837890625,-0.024904724210500717,0.0032081743702292442,0.360263854265213
1772699420154642000,0.103641845703125,-0.07624167203903198,0.027102824300527573,0.3303907811641693
1772699420164598800,0.113598876953125,-0.11557522416114807,0.04892636463046074,0.29254379868507385
1772699420174556000,0.123555908203125,-0.10871226340532303,0.02127450332045555,0.24857975542545319
1772699420184513800,0.133513671875,-0.07038005441427231,-0.017160236835479736,0.23211689293384552
1772699420194471000,0.143470947265625,-0.03313417360186577,-0.06258145719766617,0.23073740303516388
1772699420204428800,0.1534287109375,-0.010752170346677303,-0.08398021757602692,0.2232520580291748
1772699420214385700,0.1633857421875,-0.008624032139778137,-0.09110072255134583,0.20635196566581726
1772699420224342800,0.1733427734375,-0.01652509719133377,-0.08252694457769394,0.1947549730539322
1772699420234301000,0.183301025390625,-0.02761077880859375,-0.06654610484838486,0.1803344190120697
1772699420244257800,0.1932578125,-0.027110371738672256,-0.044450122863054276,0.1725103110074997
1772699420254214700,0.203214599609375,-0.01904951222240925,-0.04508316144347191,0.16982854902744293
1772699420264172800,0.2131728515625,-0.009362529963254929,-0.04581819474697113,0.16219192743301392
1772699420274130000,0.2231298828125,0.0035325237549841404,-0.053516387939453125,0.15570497512817383
1772699420284087600,0.233087646484375,0.019326135516166687,-0.04874906316399574,0.1417340338230133
1772699420294044700,0.243044677734375,0.038026031106710434,-0.05492489039897919,0.12574423849582672
1772699420304001800,0.253001708984375,0.04524106904864311,-0.06846386939287186,0.10640489310026169
1772699420313960000,0.2629599609375,0.05165291205048561,-0.06174236163496971,0.07929116487503052
1772699420323916800,0.272916748046875,0.05422526225447655,-0.06525533646345139,0.057128068059682846
1772699420333873700,0.282873779296875,0.05676216632127762,-0.05358957499265671,0.026902582496404648
1772699420343831800,0.292831787109375,0.057165902107954025,-0.05895291268825531,-0.003644408192485571
1772699420353789000,0.302788818359375,0.0692848488688469,-0.0694478303194046,-0.02309027686715126
1772699420363745800,0.312745849609375,0.08444276452064514,-0.07474592328071594,-0.03843328356742859
1772699420373703700,0.32270361328125,0.07558700442314148,-0.06535171717405319,-0.05672934651374817
1772699420383660800,0.332660888671875,0.074465811252594,-0.0519925057888031,-0.07070028781890869
1772699420393619000,0.342618896484375,0.07562641054391861,-0.044275980442762375,-0.07145002484321594
1772699420403575600,0.352575439453125,0.06457242369651794,-0.04400673508644104,-0.06428878754377365
1772699420413532700,0.36253271484375,0.05353493615984917,0.001992219127714634,-0.03973432257771492
1772699420423490800,0.37249072265625,0.005568475928157568,0.02293425425887108,0.08421745151281357
1772699420433448000,0.382447998046875,-0.05321758612990379,-0.04467492923140526,0.20708097517490387
1772699420443404800,0.39240478515625,-0.03791985660791397,-0.01538228802382946,0.26537731289863586
1772699420453362700,0.40236279296875,-0.01456049457192421,-0.021878760308027267,0.2926289737224579
1772699420463319800,0.41231982421875,0.00878956913948059,-0.04196964576840401,0.29922428727149963
1772699420473277700,0.422277587890625,0.039129145443439484,-0.034465495496988297,0.25142309069633484
1772699420483233800,0.43223388671875,0.0668952614068985,-0.01595306396484375,0.18249568343162537
1772699420493190700,0.442190673828125,0.08477888256311417,-0.03915654867887497,0.10662635415792465
1772699420503148800,0.452148681640625,0.10944880545139313,-0.05758402496576309,0.040320299565792084
1772699420513106000,0.46210595703125,0.11186959594488144,-0.06613139808177948,-0.01707978919148445
1772699420523062800,0.472062744140625,0.08104164153337479,-0.059499591588974,-0.07195927947759628
1772699420533020700,0.482020751953125,0.018214233219623566,-0.04995168000459671,-0.12506623566150665
1772699420542977800,0.491977783203125,-0.02201388031244278,-0.03582387790083885,-0.17111043632030487
1772699420552936000,0.50193603515625,0.03214525058865547,0.029834717512130737,-0.20691193640232086
1772699420562892800,0.511892822265625,0.0900527611374855,0.042999785393476486,-0.2784039378166199
1772699420572849700,0.521849609375,0.010843140073120594,0.04468373954296112,-0.3149746358394623
1772699420582807800,0.531807861328125,-0.13485866785049438,-0.003265141975134611,-0.3463203012943268
1772699420592765000,0.541764892578125,-0.14489799737930298,0.01453385129570961,-0.42381277680397034
1772699420602721800,0.5517216796875,-0.15222515165805817,0.03828658536076546,-0.4379837214946747
1772699420612679700,0.5616796875,-0.18409466743469238,0.0210346058011055,-0.42820850014686584
1772699420622636800,0.57163671875,-0.1825236678123474,0.013627554289996624,-0.43589094281196594
1772699420632594000,0.581593994140625,-0.1826309859752655,0.004348850809037685,-0.4286873936653137
1772699420642551600,0.591551513671875,-0.15308961272239685,-0.005243056453764439,-0.3957150876522064
1772699420652508700,0.6015087890625,-0.07575700432062149,-0.053206056356430054,-0.3334120213985443
1772699420662466800,0.611466796875,-0.007470094133168459,-0.08669424057006836,-0.232920303940773
1772699420672424000,0.621423828125,0.03271754831075668,-0.1847798228263855,-0.19830630719661713
1772699420682380800,0.631380859375,0.03130128234624863,-0.16985653340816498,-0.2183481901884079
1772699420692338700,0.641338623046875,0.011205858550965786,-0.10960515588521957,-0.24368903040885925
1772699420702295800,0.6512958984375,-0.013651021756231785,0.0010981881059706211,-0.3246864080429077
1772699420712253000,0.6612529296875,-0.037168826907873154,0.12977991998195648,-0.41083747148513794
1772699420722210800,0.6712109375,-0.23026424646377563,0.11827826499938965,-0.4184032678604126
1772699420732167700,0.681167724609375,-0.4113328754901886,0.37706491351127625,-0.551624059677124
1772699420742125800,0.691125732421875,-0.3566683232784271,0.7009454965591431,-0.5186243057250977
1772699420752083000,0.7010830078125,-0.15600121021270752,0.361265629529953,-0.1455148458480835
1772699420762039600,0.71103955078125,-0.012277871370315552,0.0883140042424202,0.06449831277132034
1772699420771997700,0.720997802734375,0.07950156182050705,0.06764154136180878,0.029843155294656754
1772699420781954800,0.730954833984375,0.08343904465436935,0.09743059426546097,-0.05117020383477211
1772699420791912000,0.740911865234375,-0.022698596119880676,0.1328304260969162,-0.09687495976686478
1772699420801869800,0.750869873046875,-0.19510658085346222,0.17873241007328033,-0.12609702348709106
1772699420811826700,0.76082666015625,-0.3590613901615143,0.21093051135540009,-0.14559122920036316
1772699420821784800,0.770784912109375,-0.4530635178089142,0.24902330338954926,-0.14700855314731598
1772699420831741700,0.78074169921875,-0.46414655447006226,0.24044771492481232,-0.12793679535388947
1772699420841698600,0.790698486328125,-0.4409341812133789,0.18430109322071075,-0.09577619284391403
1772699420851656700,0.80065673828125,-0.4040217101573944,0.1353316754102707,-0.07133906334638596
1772699420861613800,0.81061376953125,-0.37547582387924194,0.12145448476076126,-0.04688671603798866
1772699420871571000,0.820571044921875,-0.3774084448814392,0.10523469746112823,-0.028615005314350128
1772699420881528800,0.83052880859375,-0.35910987854003906,0.15129806101322174,-0.0016534288879483938
1772699420891485700,0.840485595703125,-0.31743839383125305,0.23227767646312714,0.039419084787368774
1772699420901442800,0.85044287109375,-0.23522818088531494,0.2706751525402069,0.12486501038074493
1772699420911400700,0.860400634765625,-0.1168709248304367,0.23132109642028809,0.2454795092344284
1772699420921357800,0.87035791015625,-0.004833602346479893,0.20263086259365082,0.31817954778671265
1772699420931315700,0.880315673828125,0.042585037648677826,0.19780468940734863,0.3141991198062897
1772699420941272800,0.89027294921875,0.003450153162702918,0.18590062856674194,0.250252366065979
1772699420951229700,0.900229736328125,-0.07714160531759262,0.19724538922309875,0.16982750594615936
1772699420961187800,0.910187744140625,-0.14324232935905457,0.21077664196491241,0.12879058718681335
1772699420971144700,0.920144775390625,-0.17901362478733063,0.19673961400985718,0.16199684143066406
1772699420981101800,0.930101806640625,-0.15722285211086273,0.12973235547542572,0.2568762004375458
1772699420991059700,0.940059814453125,-0.07373005151748657,0.06109969690442085,0.3292772173881531
1772699421001016800,0.950016845703125,0.015567338094115257,0.0071073006838560104,0.338360458612442
1772699421010975000,0.95997509765625,0.04457070305943489,-0.060920361429452896,0.2887420654296875
1772699421020931800,0.969931884765625,0.03952614217996597,-0.07377143949270248,0.20758116245269775
1772699421030888700,0.979888671875,0.05112472176551819,-0.0622473768889904,0.19129125773906708
1772699421040846800,0.989846923828125,0.06245194748044014,-0.06515767425298691,0.2986709773540497
1772699421050803700,0.9998037109375,0.019965777173638344,-0.09042955935001373,0.5176284313201904
1772699421060760800,1.0097607421875,-0.056817151606082916,-0.14058327674865723,0.7395365834236145
1772699421070718700,1.01971875,-0.11703892797231674,-0.12134543806314468,0.8888929486274719
1772699421080675800,1.02967578125,-0.14983069896697998,-0.04501551762223244,0.9917564988136292
1772699421090634000,1.039634033203125,-0.2200968712568283,0.01418630126863718,1.110285997390747
1772699421100590600,1.049590576171875,-0.27952373027801514,0.03261324390769005,1.2474113702774048
1772699421110547700,1.059547607421875,-0.2562423646450043,-0.047136660665273666,1.3195445537567139
1772699421120505900,1.069505859375,-0.12480686604976654,-0.137055903673172,1.2135288715362549
1772699421130462700,1.079462646484375,0.046346768736839294,-0.1254679411649704,0.8882592916488647
1772699421140419800,1.089419921875,0.3019644021987915,-0.0466812439262867,0.41464170813560486
1772699421150377700,1.099377685546875,0.6532405018806458,0.07963136583566666,-0.08227276057004929
1772699421160334800,1.1093349609375,0.975788950920105,0.09990175068378448,-0.41602012515068054
1772699421170291700,1.119291748046875,1.166796088218689,0.023195523768663406,-0.47971630096435547
1772699421180249600,1.12924951171875,1.105529546737671,-0.09939936548471451,-0.29767486453056335
1772699421190206700,1.139206787109375,0.7201910018920898,-0.2605176568031311,0.010701064951717854
1772699421200164900,1.149164794921875,0.08003071695566177,-0.38414931297302246,0.29205870628356934
1772699421210122000,1.1591220703125,-0.5604315400123596,-0.3764781355857849,0.4244507849216461
1772699421220078600,1.16907861328125,-0.9711479544639587,-0.2821338176727295,0.3408232629299164
1772699421230036700,1.17903662109375,-1.1028469800949097,-0.17872263491153717,0.11531547456979752
1772699421239993900,1.188993896484375,-0.9548561573028564,-0.2892603278160095,-0.16509300470352173
1772699421249950700,1.19895068359375,-0.6590225696563721,-0.47708144783973694,-0.4905756711959839
1772699421259908600,1.20890869140625,-0.47251152992248535,-0.6282970905303955,-0.6583859920501709
1772699421269865700,1.21886572265625,-0.5418016910552979,-0.6213818192481995,-0.548318088054657
1772699421279824000,1.228823974609375,-0.8078035712242126,-0.52815842628479,-0.2086867392063141
1772699421289780700,1.23878076171875,-1.0382708311080933,-0.38900721073150635,0.12358313798904419
1772699421299737600,1.248737548828125,-1.0352457761764526,-0.28192654252052307,0.24975545704364777
1772699421309695700,1.25869580078125,-0.761385440826416,-0.1989583969116211,0.12759505212306976
1772699421319652900,1.26865283203125,-0.3660613000392914,-0.1181170791387558,-0.11766184866428375
1772699421329610000,1.27860986328125,-0.009464016184210777,-0.0458221472799778,-0.3493495285511017
1772699421339567600,1.288567626953125,0.302365779876709,-0.045615483075380325,-0.5728065967559814
1772699421349524700,1.298524658203125,0.49197375774383545,-0.02307150512933731,-0.7162041664123535
1772699421359481900,1.30848193359375,0.515308678150177,-0.05666089430451393,-0.7446765303611755
1772699421369439700,1.318439697265625,0.3887479901313782,-0.1223902478814125,-0.6412971615791321
1772699421379396600,1.328396728515625,0.16819164156913757,-0.18242748081684113,-0.48754754662513733
1772699421389354800,1.338354736328125,-0.05426507070660591,-0.27757728099823,-0.3357120156288147
1772699421399312000,1.348311767578125,-0.22027134895324707,-0.374293714761734,-0.2495579570531845
1772699421409268700,1.358268798828125,-0.31886181235313416,-0.4387507736682892,-0.20655225217342377
1772699421419226600,1.3682265625,-0.36578458547592163,-0.49024006724357605,-0.14847616851329803
1772699421429183700,1.378183837890625,-0.3712393343448639,-0.5112693309783936,-0.13323481380939484
1772699421439140900,1.388140869140625,-0.3459523320198059,-0.49448877573013306,-0.1276291161775589
1772699421449098800,1.3980986328125,-0.28078845143318176,-0.4659448564052582,-0.12093126028776169
1772699421459055600,1.4080556640625,-0.19911330938339233,-0.40329211950302124,-0.12083352357149124
1772699421469012700,1.4180126953125,-0.11861582100391388,-0.32177913188934326,-0.11643844842910767
1772699421478971000,1.427970947265625,-0.03210490196943283,-0.20903685688972473,-0.09939928352832794
1772699421488928000,1.437927978515625,0.07718057930469513,-0.10527770221233368,-0.05767207220196724
1772699421498886000,1.447885986328125,0.18914145231246948,-0.006447529885917902,0.0012695388868451118
1772699421508843000,1.457843017578125,0.306485652923584,0.09752737730741501,0.07544028759002686
1772699421518800100,1.467800048828125,0.41352128982543945,0.20410361886024475,0.14234955608844757
1772699421528758000,1.477758056640625,0.5023619532585144,0.3098260760307312,0.21562349796295166
1772699421538715000,1.48771484375,0.5587370991706848,0.4022103250026703,0.2750135660171509
1772699421548672000,1.497672119140625,0.5929906964302063,0.4895762503147125,0.3119966387748718
1772699421558630000,1.5076298828125,0.636120080947876,0.5591475963592529,0.3258650600910187
1772699421568587000,1.5175869140625,0.6975708603858948,0.6147255301475525,0.3286000192165375
1772699421578543900,1.5275439453125,0.821287214756012,0.6412660479545593,0.35016947984695435
1772699421588502000,1.537501953125,0.9687219262123108,0.6786184310913086,0.3865974247455597
1772699421598459000,1.547458984375,1.0762425661087036,0.7182899117469788,0.42813819646835327
1772699421608417000,1.5574169921875,1.1260590553283691,0.7530183792114258,0.47872355580329895
1772699421618374000,1.567373779296875,1.1267157793045044,0.7515424489974976,0.5417155623435974
1772699421628331000,1.5773310546875,1.0951621532440186,0.7616715431213379,0.6101770997047424
1772699421638289000,1.587288818359375,1.0321118831634521,0.7652686834335327,0.6608136296272278
1772699421648246000,1.59724609375,0.9608325958251953,0.74815833568573,0.7088056206703186
1772699421658203000,1.607202880859375,0.9292097091674805,0.7295684218406677,0.7465798854827881
1772699421668161000,1.6171611328125,0.9347144961357117,0.6718108057975769,0.810490071773529
1772699421678118000,1.627117919921875,0.9507155418395996,0.5876170992851257,0.8818321228027344
1772699421688076000,1.637075927734375,0.9919021129608154,0.5032836198806763,0.9580334424972534
1772699421698033000,1.647032958984375,0.9926397800445557,0.410214900970459,1.0770386457443237
1772699421707990000,1.656989990234375,0.8684816360473633,0.2461671680212021,1.2128931283950806
1772699421717948000,1.666947998046875,0.6616607904434204,0.008598826825618744,1.357585072517395
1772699421727905000,1.676905029296875,0.4207155406475067,-0.19325758516788483,1.5504096746444702
1772699421737862000,1.68686181640625,0.08604461699724197,-0.2901148796081543,1.6592633724212646
1772699421747819800,1.69681982421875,-0.2977581322193146,-0.2771901488304138,1.472978115081787
1772699421757777000,1.70677685546875,-0.6143227219581604,-0.22588302195072174,0.9774917364120483
1772699421767734000,1.716734130859375,-0.7138131260871887,-0.24291035532951355,0.34383946657180786
1772699421777692200,1.726692138671875,-0.6400808691978455,-0.3761195242404938,-0.382389098405838
1772699421787649000,1.73664892578125,-0.45425155758857727,-0.3667677640914917,-1.143225073814392
1772699421797607000,1.74660693359375,-0.30355900526046753,-0.23900900781154633,-1.7111897468566895
1772699421807564000,1.75656396484375,-0.33130624890327454,-0.05122751742601395,-1.553512454032898
1772699421817521000,1.76652099609375,-0.4531615972518921,0.04262813553214073,-0.6544420123100281
1772699421827478800,1.776478759765625,-0.576088547706604,0.13195981085300446,0.46841859817504883
1772699421837436000,1.786435791015625,-0.6409508585929871,0.19570550322532654,1.2355403900146484
1772699421847393000,1.79639306640625,-0.574083685874939,0.2725078761577606,1.3608137369155884
1772699421857351200,1.80635107421875,-0.4421326220035553,0.2905332148075104,0.8371081948280334
1772699421867307800,1.816307861328125,-0.36326101422309875,0.3128407597541809,-0.08119095116853714
1772699421877265000,1.826264892578125,-0.3040221929550171,0.38563215732574463,-0.9535990953445435
1772699421887223000,1.83622314453125,-0.19329005479812622,0.4699477255344391,-1.404049277305603
1772699421897180200,1.84618017578125,-0.06003478914499283,0.4866478741168976,-1.3662725687026978
1772699421907137800,1.8561376953125,0.04614917188882828,0.41742780804634094,-1.0332103967666626
1772699421917095000,1.866094970703125,0.06630450487136841,0.30736681818962097,-0.6539829969406128
1772699421927052000,1.876052001953125,-0.036847710609436035,0.20032000541687012,-0.42871418595314026
1772699421937010200,1.88601025390625,-0.2111382931470871,0.12087231874465942,-0.3866109549999237
1772699421946966800,1.895966796875,-0.3889820873737335,0.05669711157679558,-0.43944859504699707
1772699421956924000,1.905923828125,-0.5119982957839966,0.005487722344696522,-0.4839753210544586
1772699421966882000,1.915882080078125,-0.5103596448898315,-0.05818311125040054,-0.45142385363578796
1772699421976839200,1.925839111328125,-0.4316760301589966,-0.11214407533407211,-0.36254751682281494
1772699421986795800,1.935795654296875,-0.31066861748695374,-0.15335917472839355,-0.2572636306285858
1772699421996754000,1.94575390625,-0.18000730872154236,-0.1581917554140091,-0.15706564486026764
1772699422006711000,1.9557109375,-0.07717756927013397,-0.157838374376297,-0.06075841188430786
1772699422016669000,1.9656689453125,-0.014806071296334267,-0.1475154310464859,0.007311452645808458
1772699422026625800,1.975625732421875,0.01514727994799614,-0.12572115659713745,0.02888207882642746
1772699422036583000,1.9855830078125,0.023538900539278984,-0.09757872670888901,0.011172325350344181
1772699422046541000,1.995541015625,0.04496942460536957,-0.062380675226449966,-0.02211819402873516
1772699422056498200,2.005498291015625,0.09542274475097656,-0.029050149023532867,-0.03768996149301529
1772699422066454800,2.015454833984375,0.1664758175611496,-0.010149819776415825,-0.044774800539016724
1772699422076413000,2.025412841796875,0.23790019750595093,-0.0010130461305379868,-0.039732374250888824
1772699422086370000,2.0353701171875,0.2887042760848999,-0.008519980125129223,-0.04347112402319908
1772699422096327200,2.0453271484375,0.29986849427223206,-0.02617087960243225,-0.05019720271229744
1772699422106284800,2.055284912109375,0.24703538417816162,-0.024951674044132233,-0.032435014843940735
1772699422116242000,2.065241943359375,0.1589265614748001,-0.04301190376281738,0.036826614290475845
1772699422126200000,2.075199951171875,0.06655297428369522,-0.05900317430496216,0.12607520818710327
1772699422136157000,2.085156982421875,-0.01366409845650196,-0.07331260293722153,0.18948319554328918
1772699422146113800,2.09511376953125,-0.0470748245716095,-0.08683177828788757,0.21533203125
1772699422156072000,2.105072021484375,-0.03162183240056038,-0.07848730683326721,0.19323071837425232
1772699422166029000,2.115029052734375,0.018024547025561333,-0.0755530297756195,0.1319710910320282
1772699422175986200,2.124986083984375,0.09160635620355606,-0.07745160162448883,0.09068010747432709
1772699422185944000,2.134944091796875,0.15159356594085693,-0.10351178050041199,0.07773404568433762
1772699422195901000,2.14490087890625,0.2042570412158966,-0.15352728962898254,0.08860959112644196
1772699422205858000,2.154858154296875,0.2406770884990692,-0.20978519320487976,0.14834783971309662
1772699422215816000,2.16481591796875,0.21021053194999695,-0.274738073348999,0.31349843740463257
1772699422225772800,2.174772705078125,0.11002719402313232,-0.3345508277416229,0.5749431252479553
1772699422235731000,2.18473095703125,-0.05890723317861557,-0.3767435550689697,0.7733120918273926
1772699422245688000,2.19468798828125,-0.2502058148384094,-0.3955254852771759,0.7444344758987427
1772699422255645000,2.20464501953125,-0.3409583568572998,-0.37348702549934387,0.4512329399585724
1772699422265603000,2.21460302734375,-0.2913524806499481,-0.27814343571662903,0.03733489289879799
1772699422275560000,2.224559814453125,-0.15651263296604156,-0.18551228940486908,-0.28214961290359497
1772699422285517000,2.23451708984375,-0.02156250551342964,-0.14358462393283844,-0.35717058181762695
1772699422295475000,2.244474853515625,0.02002515271306038,-0.1315881460905075,-0.12095831334590912
1772699422305432000,2.25443212890625,-0.07468509674072266,-0.13461779057979584,0.33326631784439087
1772699422315389000,2.264388916015625,-0.26629605889320374,-0.17607708275318146,0.811165988445282
1772699422325347000,2.27434716796875,-0.4737350344657898,-0.26100653409957886,1.024651050567627
1772699422335304000,2.284303955078125,-0.6335737109184265,-0.27233827114105225,0.8162422180175781
1772699422345262000,2.294261962890625,-0.7032846212387085,-0.17307694256305695,0.21436668932437897
1772699422355219000,2.304218994140625,-0.6721844673156738,-0.011372728273272514,-0.6374839544296265
1772699422365176000,2.314176025390625,-0.45534461736679077,0.06301391124725342,-1.4251925945281982
1772699422375134000,2.324134033203125,0.045938730239868164,0.03492742031812668,-1.8239516019821167
1772699422385091000,2.334091064453125,0.7017030119895935,0.007852350361645222,-1.7001376152038574
1772699422395048000,2.3440478515625,1.1704033613204956,0.005719158798456192,-1.1150838136672974
1772699422405005800,2.354005859375,1.3228933811187744,0.0970253273844719,-0.3424142897129059
1772699422414963000,2.363962890625,1.2204660177230835,0.17432276904582977,0.3009774684906006
1772699422424920000,2.373920166015625,1.0159927606582642,0.20737449824810028,0.6439443230628967
1772699422434878000,2.3838779296875,0.7752296924591064,0.09277122467756271,0.7273595929145813
1772699422444835000,2.3938349609375,0.5122665762901306,-0.14526036381721497,0.6217975616455078
1772699422454793000,2.40379296875,0.17188209295272827,-0.38276398181915283,0.38565242290496826
1772699422464750000,2.41375,-0.23598909378051758,-0.5159461498260498,0.1253613531589508
1772699422474707000,2.42370703125,-0.6199308633804321,-0.5336066484451294,-0.031050346791744232
1772699422484664800,2.433664794921875,-0.9078124761581421,-0.4949381351470947,-0.05658816546201706
1772699422494622000,2.4436220703125,-1.0117156505584717,-0.452590674161911,0.0014026965945959091
1772699422504578800,2.453578857421875,-0.9171860218048096,-0.41313955187797546,0.03726094961166382
1772699422514537000,2.463536865234375,-0.6775407195091248,-0.37463635206222534,-0.03277432918548584
1772699422524493800,2.473493896484375,-0.39349743723869324,-0.3183641731739044,-0.19859632849693298
1772699422534451000,2.483450927734375,-0.15406568348407745,-0.21690012514591217,-0.4026258587837219
1772699422544408800,2.493408935546875,-0.026867564767599106,-0.0856487974524498,-0.5549373030662537
1772699422554366000,2.503365966796875,-0.01013652328401804,0.002142576966434717,-0.6133526563644409
1772699422564323800,2.51332373046875,-0.051392897963523865,0.05882985517382622,-0.6140468120574951
1772699422574281000,2.523281005859375,-0.13031435012817383,0.06789631396532059,-0.5820537209510803
1772699422584237800,2.53323779296875,-0.2220468819141388,0.07727029919624329,-0.5375378131866455
1772699422594196000,2.543196044921875,-0.2863776683807373,0.07960003614425659,-0.45509520173072815
1772699422604152800,2.55315283203125,-0.3023292124271393,0.05834878608584404,-0.3032531142234802
1772699422614110000,2.56310986328125,-0.2727481424808502,0.01959606260061264,-0.11939938366413116
1772699422624067800,2.57306787109375,-0.22016455233097076,-0.03510577604174614,0.05545169860124588
1772699422634025000,2.58302490234375,-0.17495526373386383,-0.050910837948322296,0.13728930056095123
1772699422643981800,2.59298193359375,-0.15786290168762207,-0.03250961750745773,0.1603529155254364
1772699422653940000,2.60293994140625,-0.11783584952354431,-0.0019631600007414818,0.15095195174217224
1772699422663896800,2.612896728515625,-0.04670407250523567,0.008483193814754486,0.12949258089065552
1772699422673854000,2.62285400390625,0.03020295687019825,0.02343391254544258,0.10319013148546219
1772699422683811800,2.632811767578125,0.09395341575145721,0.047711607068777084,0.10615349560976028
1772699422693769000,2.64276904296875,0.1356867551803589,0.06765735894441605,0.14963650703430176
1772699422703727000,2.65272705078125,0.17167805135250092,0.07207047939300537,0.20203793048858643
1772699422713684000,2.66268408203125,0.21257753670215607,0.0615944005548954,0.24505944550037384
1772699422723640800,2.672640869140625,0.2819930613040924,0.04660189896821976,0.27648091316223145
1772699422733599000,2.682598876953125,0.358192503452301,0.045685503631830215,0.2982277572154999
1772699422743555800,2.692555908203125,0.40042173862457275,0.04104809835553169,0.34724605083465576
1772699422753513000,2.702512939453125,0.4023224413394928,0.028074774891138077,0.391641229391098
1772699422763470800,2.712470947265625,0.39662033319473267,0.0246452447026968,0.41780802607536316
1772699422773428000,2.722427978515625,0.40554776787757874,0.045616574585437775,0.4300079643726349
1772699422783384800,2.732384765625,0.42016294598579407,0.06534919887781143,0.46184417605400085
1772699422793342700,2.7423427734375,0.4109867811203003,0.07344947010278702,0.5185934901237488
1772699422803299800,2.7522998046875,0.34348225593566895,0.04838435351848602,0.6026755571365356
1772699422813257000,2.762257080078125,0.23859581351280212,-0.0023464690893888474,0.707118570804596
1772699422823215000,2.772215087890625,0.1848905235528946,-0.08264133334159851,0.8590334057807922
1772699422833172000,2.782171875,0.23136641085147858,-0.16399452090263367,1.1133631467819214
1772699422843129900,2.7921298828125,0.27312853932380676,-0.23057812452316284,1.393762230873108
1772699422853087000,2.8020869140625,0.2360093742609024,-0.41496530175209045,1.3831425905227661
1772699422863043800,2.8120439453125,0.026101909577846527,-0.6661720871925354,0.7858103513717651
1772699422873001700,2.822001708984375,-0.4561755359172821,-0.8705736994743347,-0.4608864188194275
1772699422882958800,2.831958740234375,-0.9437925219535828,-0.7369422912597656,-1.8067361116409302
1772699422892916000,2.841916015625,-1.1764148473739624,-0.16962693631649017,-2.5975871086120605
1772699422902874000,2.8518740234375,-1.1051723957061768,0.28032386302948,-2.2798027992248535
1772699422912830700,2.861830810546875,-0.7462544441223145,0.4822210371494293,-0.9932091236114502
1772699422922788900,2.871788818359375,-0.46670642495155334,0.4197259247303009,0.7551029920578003
1772699422932746000,2.88174609375,-0.37965354323387146,0.24160252511501312,2.085829257965088
1772699422942703000,2.891703125,-0.4161956012248993,0.2077481895685196,2.4208977222442627
1772699422952660700,2.90166064453125,-0.43399912118911743,0.2195342779159546,1.7253224849700928
1772699422962617900,2.911617919921875,-0.4144967496395111,0.24693067371845245,0.38910138607025146
1772699422972575000,2.921574951171875,-0.3352908790111542,0.29947325587272644,-0.8730411529541016
1772699422982532900,2.931532958984375,-0.19353936612606049,0.34494519233703613,-1.5038436651229858
1772699422992489700,2.94148974609375,-0.043761588633060455,0.35568973422050476,-1.559712290763855
1772699423002446800,2.95144677734375,0.08035238832235336,0.28711220622062683,-1.321494698524475
1772699423012405000,2.961405029296875,0.17824779450893402,0.15406441688537598,-1.000828504562378
1772699423022362000,2.971362060546875,0.24233223497867584,0.011455836705863476,-0.668717086315155
1772699423032318700,2.981318603515625,0.1806374490261078,-0.11461793631315231,-0.3898249864578247
1772699423042276900,2.99127685546875,0.005810755304992199,-0.18587686121463776,-0.17648904025554657
1772699423052234000,3.00123388671875,-0.20830713212490082,-0.18862870335578918,-0.036189183592796326
1772699423062191900,3.01119189453125,-0.37762537598609924,-0.14392158389091492,0.07259360700845718
1772699423072148700,3.021148681640625,-0.4574719965457916,-0.07113553583621979,0.16407345235347748
1772699423082105900,3.03110595703125,-0.40825459361076355,0.005732799880206585,0.2088569700717926
1772699423092064000,3.04106396484375,-0.23484447598457336,0.07903923094272614,0.1559668630361557
1772699423102020900,3.051020751953125,0.045904893428087234,0.13346201181411743,0.02437521144747734
1772699423111977700,3.060977783203125,0.37303030490875244,0.17203976213932037,-0.0966486781835556
1772699423121936000,3.070935791015625,0.6295979619026184,0.18816889822483063,-0.1400466114282608
1772699423131893000,3.08089306640625,0.761144757270813,0.20201067626476288,-0.12008354812860489
1772699423141850000,3.09085009765625,0.7609043121337891,0.19271065294742584,-0.043703027069568634
1772699423151807700,3.100807861328125,0.6592397093772888,0.17561902105808258,0.0557125099003315
1772699423161764900,3.110764892578125,0.49270713329315186,0.18407967686653137,0.14162158966064453
1772699423171722000,3.120721923828125,0.32461321353912354,0.19617149233818054,0.2354990690946579
1772699423181679900,3.130679931640625,0.2078527957201004,0.1949423849582672,0.315834105014801
1772699423191636700,3.14063671875,0.15851427614688873,0.1688109189271927,0.3606495261192322
1772699423201595000,3.150594970703125,0.128930002450943,0.1422421783208847,0.343727171421051
1772699423211552000,3.160552001953125,0.07242918759584427,0.1459447592496872,0.26771870255470276
1772699423221508900,3.1705087890625,0.02913658320903778,0.15998387336730957,0.14991061389446259
1772699423231467000,3.180467041015625,0.030833013355731964,0.1776488870382309,0.013585798442363739
1772699423241424000,3.190423828125,0.06390684098005295,0.1845748871564865,-0.15064039826393127
1772699423251381000,3.200381103515625,0.10888709872961044,0.17320159077644348,-0.3464756906032562
1772699423261339000,3.2103388671875,0.1468576043844223,0.14062565565109253,-0.5955519676208496
1772699423271295700,3.220295654296875,0.1763414591550827,0.1058354526758194,-0.8944944739341736
1772699423281252900,3.2302529296875,0.24203285574913025,0.08198549598455429,-1.1825129985809326
1772699423291211000,3.2402109375,0.3579496145248413,0.08884046971797943,-1.2706835269927979
1772699423301167900,3.25016796875,0.4512406885623932,0.10452276468276978,-1.0449954271316528
1772699423311126000,3.2601259765625,0.4482254683971405,0.09053930640220642,-0.5407485961914062
1772699423321083000,3.270082763671875,0.3134620487689972,0.05411791428923607,0.1092589721083641
1772699423331040000,3.2800400390625,0.06737397611141205,0.017222749069333076,0.6815752387046814
1772699423340998000,3.289997802734375,-0.21311889588832855,0.04178208112716675,0.9433618783950806
1772699423350955000,3.299955078125,-0.4192454516887665,0.11546669155359268,0.9247551560401917
1772699423360912000,3.309911865234375,-0.46688756346702576,0.17675194144248962,0.7231517434120178
1772699423370869800,3.319869873046875,-0.3449153006076813,0.20883291959762573,0.4172525405883789
1772699423380827000,3.329826904296875,-0.08607764542102814,0.22538769245147705,0.10288514196872711
1772699423390783700,3.33978369140625,0.21983860433101654,0.23973813652992249,-0.1471545249223709
1772699423400742000,3.349741943359375,0.48474058508872986,0.2584068775177002,-0.28990495204925537
1772699423410699000,3.359698974609375,0.6479646563529968,0.24882829189300537,-0.3557841181755066
1772699423420655900,3.36965576171875,0.6785085201263428,0.19335167109966278,-0.367695689201355
1772699423430614000,3.379614013671875,0.5750023126602173,0.10561355948448181,-0.3407202661037445
1772699423440571000,3.38957080078125,0.36532172560691833,0.025134539231657982,-0.2986169457435608
1772699423450528800,3.39952880859375,0.12820719182491302,-0.07293689996004105,-0.24688932299613953
1772699423460486000,3.40948583984375,-0.09337469190359116,-0.17088671028614044,-0.1890517771244049
1772699423470442800,3.41944287109375,-0.2458055168390274,-0.23361560702323914,-0.09869205951690674
1772699423480401000,3.42940087890625,-0.34236639738082886,-0.25818830728530884,0.032113026827573776
1772699423490357800,3.439357666015625,-0.3846012055873871,-0.2609792947769165,0.19982266426086426
1772699423500315000,3.44931494140625,-0.38791391253471375,-0.2316776067018509,0.33523938059806824
1772699423510273000,3.45927294921875,-0.3583565354347229,-0.18012307584285736,0.3866751492023468
1772699423520230100,3.469230224609375,-0.2973767817020416,-0.1203135997056961,0.3526678681373596
1772699423530187000,3.47918701171875,-0.21974006295204163,-0.07543640583753586,0.31495004892349243
1772699423540145000,3.489144775390625,-0.15316341817378998,-0.027394328266382217,0.3441908061504364
1772699423550102000,3.49910205078125,-0.12831692397594452,-0.007095713634043932,0.4239351749420166
1772699423560059100,3.50905908203125,-0.14906620979309082,-0.021311558783054352,0.46486353874206543
1772699423570016800,3.519016845703125,-0.1825498640537262,-0.04019390046596527,0.382744163274765
1772699423579974000,3.528973876953125,-0.2070794254541397,-0.061328496783971786,0.23522533476352692
1772699423589931000,3.538930908203125,-0.1879294365644455,-0.11033625900745392,0.12727010250091553
1772699423599889200,3.54888916015625,-0.14464722573757172,-0.16302314400672913,0.07208186388015747
1772699423609845800,3.558845703125,-0.08532291650772095,-0.20343154668807983,0.027108799666166306
1772699423619804000,3.568803955078125,-0.04260550066828728,-0.20985759794712067,-0.01956002041697502
1772699423629761000,3.578760986328125,0.028964558616280556,-0.23250484466552734,-0.06646227836608887
1772699423639718100,3.58871826171875,0.3922801613807678,-0.2868780195713043,0.04077765345573425
1772699423649676000,3.598676025390625,0.376607209444046,-0.07971711456775665,-0.2278285026550293
1772699423659633000,3.6086328125,0.2553638517856598,-0.16844379901885986,-0.1796356439590454
1772699423669590000,3.618590087890625,0.16607843339443207,-0.14369584619998932,-0.19757629930973053
1772699423679548000,3.6285478515625,0.15163318812847137,-0.1726241260766983,-0.21268293261528015
1772699423689504800,3.6385048828125,0.1465124636888504,-0.16350093483924866,-0.20798484981060028
1772699423699462000,3.6484619140625,0.10876669734716415,-0.07679218798875809,-0.23481681942939758
1772699423709420000,3.658419921875,0.10135165601968765,0.09799054265022278,-0.11872110515832901
1772699423719377200,3.668377197265625,0.03207859769463539,0.1946813464164734,-0.12834396958351135
1772699423729335000,3.6783349609375,-0.04242945834994316,0.3069889545440674,-0.20773014426231384
1772699423739292000,3.6882919921875,-0.10200332850217819,0.40235042572021484,-0.2887172996997833
1772699423749249000,3.6982490234375,-0.16059580445289612,0.39312976598739624,-0.3684350252151489
1772699423759207000,3.70820703125,-0.1718873679637909,0.28953370451927185,-0.4641592502593994
1772699423769164000,3.7181640625,-0.08011484146118164,0.5150336623191833,-0.398777574300766
1772699423779121000,3.728120849609375,-0.010586351156234741,0.4167124032974243,-0.37983837723731995
1772699423789079000,3.7380791015625,0.019729742780327797,0.12387517094612122,-0.30236753821372986
1772699423799036000,3.748035888671875,0.006689605303108692,0.14670079946517944,-0.30013152956962585
1772699423808992800,3.75799267578125,0.03932744637131691,0.14071933925151825,-0.22185645997524261
1772699423818951000,3.767950927734375,-0.008991872891783714,0.05044987052679062,-0.17878398299217224
1772699423828908000,3.777907958984375,-0.0031028245575726032,0.07822371274232864,-0.14841648936271667
1772699423838865200,3.787865234375,0.014408807270228863,0.09468520432710648,-0.14588072896003723
1772699423848823000,3.797822998046875,0.01953193172812462,0.0788886696100235,-0.15545772016048431
1772699423858780000,3.80777978515625,0.01580132730305195,0.07953111827373505,-0.18955405056476593
1772699423868738000,3.817738037109375,0.001424518646672368,0.07292301952838898,-0.2170615792274475
1772699423878695000,3.82769482421875,-0.01997026801109314,0.07512069493532181,-0.2449338436126709
1772699423888652000,3.837652099609375,-0.04324789717793465,0.08058443665504456,-0.26624420285224915
1772699423898610000,3.84760986328125,-0.05649739131331444,0.05300235375761986,-0.2641107738018036
1772699423908567000,3.857567138671875,-0.04339144378900528,0.039685484021902084,-0.24215033650398254
1772699423918524000,3.86752392578125,-0.046295858919620514,0.021115735173225403,-0.21756380796432495
1772699423928482000,3.87748193359375,-0.053108491003513336,0.031168635934591293,-0.18529881536960602
1772699423938439000,3.88743896484375,-0.0738811194896698,0.04790760204195976,-0.1404447853565216
1772699423948396000,3.89739599609375,-0.08849654346704483,0.04789481684565544,-0.0994424894452095
1772699423958354000,3.90735400390625,-0.09991033375263214,0.034032028168439865,-0.045459527522325516
1772699423968311000,3.91731103515625,-0.11235208809375763,0.013446860015392303,-0.003688912373036146
1772699423978268000,3.927267822265625,-0.12580452859401703,0.016948679462075233,0.01819043606519699
1772699423988226000,3.93722607421875,-0.14280907809734344,0.022423340007662773,0.022680260241031647
1772699423998183000,3.947182861328125,-0.14267301559448242,0.02131735160946846,0.01591201312839985
1772699424008140000,3.95714013671875,-0.1188100129365921,0.008119790814816952,0.007560872472822666
1772699424018098000,3.967097900390625,-0.08664032071828842,-0.0011044223792850971,-0.0026831547729671
1772699424028055000,3.977054931640625,-0.052242130041122437,-0.007117041386663914,-0.01442929357290268
1772699424038013000,3.987012939453125,-0.025096284225583076,-0.006983572617173195,-0.03111177869141102
1772699424047970000,3.996969970703125,-0.06518244743347168,0.013629293069243431,-0.0606670081615448
1772699424057927000,4.006927001953125,-0.13393273949623108,0.054887495934963226,-0.058783262968063354
1772699424067884800,4.016884765625,-0.17453715205192566,0.05392929166555405,-0.043391525745391846
1772699424077842000,4.026842041015625,-0.16669072210788727,0.04637185484170914,0.007884385995566845
1772699424087799000,4.036799072265625,-0.09669726341962814,0.028728410601615906,0.022046543657779694
1772699424097757000,4.0467568359375,-0.07481886446475983,0.021433759480714798,0.03554578125476837
1772699424107714000,4.056714111328125,-0.0699884295463562,0.06975202262401581,0.025326434522867203
1772699424117671000,4.0666708984375,-0.08198811113834381,0.11059696227312088,-0.004299783613532782
1772699424127629000,4.076629150390625,-0.0928487479686737,0.1330314427614212,-0.033455539494752884
1772699424137586000,4.0865859375,-0.0728406310081482,0.11889497935771942,-0.05106009542942047
1772699424147543000,4.09654296875,-0.05066288635134697,0.08186531811952591,-0.04004153236746788
1772699424157501000,4.1065009765625,-0.0667383000254631,0.06669177114963531,0.021159978583455086
1772699424167458000,4.1164580078125,-0.04965784773230553,0.018793221563100815,0.07779822498559952
1772699424177416200,4.126416259765625,-0.027538999915122986,0.028360974043607712,0.09237843751907349
1772699424187372800,4.136372802734375,-0.02141985483467579,0.03791719302535057,0.08118943125009537
1772699424197330000,4.146329833984375,-0.01518695242702961,0.04879319295287132,0.04507572948932648
1772699424207288000,4.1562880859375,0.0058205947279930115,0.05902266129851341,0.00401697400957346
1772699424217245000,4.166244873046875,0.022841913625597954,0.06213724985718727,-0.04223130643367767
1772699424227202000,4.1762021484375,0.05553008243441582,0.07841049134731293,-0.06456483900547028
1772699424237160000,4.186159912109375,0.10406271368265152,0.06536103785037994,-0.04391803219914436
1772699424247117000,4.196116943359375,0.12724605202674866,0.039678044617176056,-0.021605804562568665
1772699424257074000,4.206073974609375,0.12767726182937622,0.0400971882045269,-0.029039839282631874
1772699424267031800,4.21603173828125,0.08230231702327728,0.05700799450278282,-0.05761103332042694
1772699424276989000,4.225989013671875,0.027356544509530067,0.09223354607820511,-0.08242124319076538
1772699424286946000,4.235946044921875,-0.03093685582280159,0.10379060357809067,-0.0805562362074852
1772699424296904200,4.245904296875,-0.08000750839710236,0.11434878408908844,-0.07862845808267593
1772699424306860800,4.25586083984375,-0.10710436850786209,0.12305359542369843,-0.06806343048810959
1772699424316819000,4.26581884765625,-0.11095155030488968,0.11706303060054779,-0.0605110339820385
1772699424326776000,4.275776123046875,-0.10460497438907623,0.10294055938720703,-0.03761956840753555
1772699424336733000,4.28573291015625,-0.0815822184085846,0.07854655385017395,-0.0038031325675547123
1772699424346690800,4.29569091796875,-0.06031687930226326,0.049651529639959335,0.023052982985973358
1772699424356648000,4.30564794921875,-0.0702587440609932,0.023565635085105896,0.019097773358225822
1772699424366605000,4.31560498046875,-0.09367245435714722,0.041490040719509125,-0.022827306762337685
1772699424376563200,4.325563232421875,-0.12796463072299957,0.048076026141643524,-0.0698581337928772
1772699424386519800,4.335519775390625,-0.15645353496074677,0.0602719746530056,-0.12361457198858261
1772699424396477000,4.345476806640625,-0.16955363750457764,0.07231398671865463,-0.17211849987506866
1772699424406435000,4.35543505859375,-0.16641803085803986,0.07831835001707077,-0.2023317962884903
1772699424416392200,4.36539208984375,-0.10147205740213394,0.0639554038643837,-0.08518069237470627
1772699424426348800,4.375348876953125,0.006574518978595734,-0.000845164991915226,0.12817180156707764
1772699424436307000,4.385306884765625,0.06512410938739777,-0.006184255704283714,0.2371205985546112
1772699424446264000,4.39526416015625,0.04637066274881363,0.028532179072499275,0.2227509766817093
1772699424456222000,4.405221923828125,0.021458420902490616,0.03904413431882858,0.16647174954414368
1772699424466178800,4.4151787109375,0.004300739150494337,0.017593437805771828,0.11783523857593536
1772699424476136000,4.425135986328125,-0.003005649894475937,-0.01515224203467369,0.07712823152542114
1772699424486094600,4.435094482421875,-0.004440560936927795,-0.02639024890959263,0.04071855917572975
1772699424496051500,4.445051513671875,-0.018529219552874565,-0.015839330852031708,-0.006976555101573467
1772699424506008600,4.455008544921875,-0.03263784945011139,0.0049069602973759174,-0.06313756108283997
1772699424515966700,4.464966796875,-0.029541926458477974,0.024625010788440704,-0.11830790340900421
1772699424525923600,4.474923583984375,0.00026257429271936417,0.03025280311703682,-0.1692187488079071
1772699424535880400,4.48488037109375,0.04367528855800629,0.028519101440906525,-0.18900316953659058
1772699424545838600,4.494838623046875,0.10452399402856827,0.022885717451572418,-0.18335621058940887
