time,seconds_elapsed,z,y,x
1772698638774429400,0.081429443359375,0.0898468596637249,0.30516485008001326,0.05111815628614276
1772698638784386000,0.091385986328125,0.06204115337133407,0.24063714058995245,-0.005674027048423886
1772698638794343200,0.10134326171875,0.029193982313014566,0.060604983088374136,-0.005615173000656068
1772698638804300300,0.11130029296875,-0.13592654685862363,-0.20853402936458587,0.030247583019174632
1772698638814257200,0.121257080078125,-0.14767485231943428,-0.4897410807520151,0.11850998650304972
1772698638824214300,0.13121435546875,-0.14726035323441028,-0.3953232599109411,0.2636195914443582
1772698638834171400,0.14117138671875,-0.16238014442231505,-0.34608196687996384,0.343136853338778
1772698638844128300,0.151128173828125,-0.18209957489278167,-0.2885457237124443,0.26941950989477337
1772698638854085000,0.161085205078125,-0.10154664980769157,-0.17031331204175948,0.1825157179456204
1772698638864041200,0.171041259765625,-0.11071834624614565,-0.09553308860659598,0.16584588430412112
1772698638873998000,0.180998046875,-0.08552486827876418,-0.09468845447599887,0.17214578816592693
1772698638883955200,0.190955078125,-0.09639171472992747,-0.1843202100843191,0.0985251830946654
1772698638893912300,0.200912353515625,-0.11141162573993206,-0.2521516372948885,0.02203063002228737
1772698638903869200,0.210869140625,-0.11187624757699667,-0.2967325372993946,0.005085340440273285
1772698638913826300,0.220826416015625,-0.1674929208587855,-0.2921872950851917,0.079996642909199
1772698638923783400,0.230783447265625,-0.21662728291656821,-0.24553368045985696,0.12882504429034888
1772698638933740000,0.240739990234375,-0.19340309572815895,-0.19915011494755744,0.12127470197603106
1772698638943697200,0.250697265625,-0.18365334367342293,-0.14596739081442356,0.08054492444172501
1772698638953654300,0.260654296875,-0.16503683294355867,-0.11762918508052825,0.14380780162774026
1772698638963611400,0.270611328125,-0.1219838731586933,-0.11135025094151496,0.3147295278914273
1772698638973568300,0.280568359375,-0.035765140864253045,0.018291443493962285,0.3768740685719996
1772698638983525400,0.290525390625,0.07116674564573913,0.3568640576571226,0.31314627728797495
1772698638993482200,0.300482177734375,0.06599376345463097,0.6140390760719776,0.3619274054612964
1772698639003438300,0.310438232421875,0.03675769556555897,0.6915677214324474,0.3414054264362901
1772698639013395200,0.320395263671875,-0.04627418685369193,0.5893681606739759,0.21758973474055526
1772698639023352000,0.33035205078125,-0.06892397168762981,0.3763046711862087,0.0819862092912197
1772698639033309200,0.34030908203125,-0.11305405918471514,0.25722411825358865,0.08508665952458977
1772698639043266300,0.350266357421875,-0.12097959148697554,0.2285276006013155,0.21103468707390127
1772698639053223200,0.36022314453125,-0.12056640757620334,0.22546178328990935,0.288222263911739
1772698639063180300,0.37018017578125,-0.14525657566394656,0.2121440365552902,0.3700950028911233
1772698639073137400,0.380137451171875,-0.12627831894960254,0.184943310418725,0.36457733544819054
1772698639083094300,0.39009423828125,-0.06448503939211368,0.1280623162895441,0.312516235756129
1772698639093051100,0.400051025390625,-0.015527239477634429,0.061467152875661846,0.1530252003714442
1772698639103008300,0.41000830078125,0.12619769146144388,0.0137421096265316,0.008883052222803235
1772698639112965400,0.41996533203125,0.252326482405141,0.004085223487019538,-0.22960699333585796
1772698639122922200,0.429922119140625,0.3357465238917619,-0.01318096861243248,-0.3239786369476467
1772698639132878300,0.43987841796875,0.46292909820470957,0.006440262180566788,-0.29890074818395074
1772698639142835200,0.449835205078125,0.2796510175844654,-0.10774316636025905,-0.16980360895395277
1772698639152792300,0.459792236328125,0.1932043582856655,-0.22092472438216207,0.015247399622946977
1772698639162749200,0.469749267578125,0.016330957075953483,-0.3003308540523052,0.412529465451464
1772698639172706300,0.479706298828125,-0.29124851639773697,-0.5705570772200822,0.64346661141254
1772698639182663200,0.4896630859375,-0.5317477463543415,-1.0451964504301547,0.5728686420980841
1772698639192620300,0.499620361328125,-0.3283288315137848,-0.9627490533679723,0.281470013172552
1772698639202577400,0.509577392578125,0.057078525995276866,-0.3228583276808262,0.10274097415879369
1772698639212534300,0.5195341796875,0.09489592321421951,0.3063222034215927,0.1805262976940721
1772698639222491400,0.529491455078125,-0.013674926141835748,0.5362929885685443,0.20905381545498966
1772698639232448300,0.5394482421875,-0.015005882484652101,0.5465519322544335,0.08278159745261073
1772698639242405000,0.549405029296875,0.12932959627900273,0.5905266830593348,-0.06325060222633183
1772698639252362200,0.5593623046875,0.1689409277100116,0.5993067863643169,0.028276465609297155
1772698639262319400,0.5693193359375,-0.2696440028330311,0.22162907325923442,0.2113851810120046
1772698639272275200,0.579275146484375,-0.5644931740712374,-0.28170506403744217,0.224881499183923
1772698639282232300,0.589232421875,-0.490337841068767,-0.5090852481693029,0.15133658969737587
1772698639292189400,0.599189453125,-0.41971126671433445,-0.5604577080100774,0.15791713713146746
1772698639302146300,0.609146240234375,-0.4185772577157244,-0.46352585852146144,0.17959712708517908
1772698639312103200,0.619103271484375,-0.32839605153109874,-0.24300620780885218,0.11232903284579515
1772698639322060300,0.629060302734375,-0.17331713350024072,0.06136544606685638,0.0797043819643557
1772698639332017200,0.63901708984375,-0.0352220834961161,0.3376186744391918,0.06004493805281817
1772698639341974300,0.648974365234375,0.11398881928417831,0.5296265164166689,-0.014103051893413066
1772698639351931400,0.658931396484375,0.2280132213383913,0.6108130997627973,-0.0515673248257488
1772698639361888300,0.66888818359375,0.22208145666923373,0.428843252196908,-0.17431999039985238
1772698639371845000,0.67884521484375,0.24818974792659282,0.19044073879122733,-0.2863925642665475
1772698639381802200,0.68880224609375,0.3886147387156263,0.1732353369683027,-0.345249899969995
1772698639391759000,0.698759033203125,0.4034762077609077,0.35435119805335996,-0.23095519307442008
1772698639401716200,0.70871630859375,0.4557353873083368,0.5099871654450893,-0.06825060247071087
1772698639411672300,0.71867236328125,0.40983931305203586,0.6385381420344114,0.024804405584558844
1772698639421629200,0.728629150390625,0.5224053329914808,0.8955880727648734,0.28020828614104537
1772698639431586300,0.73858642578125,0.3952057710111141,0.9092635468959808,0.5277105632601305
1772698639441543400,0.74854345703125,0.37174247783720493,0.7219353871673345,0.5533714395435526
1772698639451500300,0.758500244140625,-0.21572715573906898,1.17991471747756,0.35727424589321016
1772698639461457200,0.76845703125,0.22802783438563345,1.195810205745697,0.3513477053884417
1772698639471414300,0.778414306640625,0.42998248535990713,0.4804822540193796,0.9557001577697694
1772698639481371100,0.78837109375,-1.0415578016668559,0.07121697799563408,0.5198085944965481
1772698639491328300,0.798328369140625,-0.2318775320837274,-0.07148819615244865,0.11385529256500303
1772698639501285400,0.808285400390625,0.35504038589391856,-0.1093488479912281,-0.11737309142760932
1772698639511242200,0.8182421875,0.5268634814441204,-0.18767185859978197,-0.4625728686455637
1772698639521199000,0.82819921875,0.41198271828889843,-0.3326905703872442,-0.5147073989000172
1772698639531156200,0.83815625,0.14199381100833416,-0.2964624881863594,-0.5101546309664845
1772698639541113000,0.848113037109375,-0.21716975576281547,-0.28822482119500636,-0.4092322505369782
1772698639551069200,0.858069091796875,-0.4223988983631134,-0.2547831548422575,-0.2700377148583531
1772698639561026300,0.8680263671875,-0.5046586638987064,-0.13831541475653647,-0.2813014516726136
1772698639570983200,0.877983154296875,-0.5448012891948223,-0.04147124355137348,-0.2522662035852671
1772698639580940300,0.887940185546875,-0.4999585233837366,-0.015418518406152725,-0.13966281077750026
1772698639590897400,0.8978974609375,-0.4031991078525781,0.07189911504089831,-0.07622311571985482
1772698639600854300,0.907854248046875,-0.38780630840957164,0.0899035582870245,-0.009269640387594699
1772698639610811100,0.91781103515625,-0.511435026165843,0.1513034911453724,0.15365999114364384
1772698639620768300,0.927768310546875,-0.4309411012589931,0.19467910701334476,0.15042488167993723
1772698639630725000,0.93772509765625,-0.18955577265024184,0.12398644515275954,0.026191768289729953
1772698639640682200,0.94768212890625,-0.06742109284400939,0.14412556234002113,-0.3808924373678863
1772698639650639400,0.957639404296875,0.12166003889865241,0.4211749095261097,-0.7405670224010944
1772698639660596200,0.96759619140625,0.46904725229144095,0.7711924622893332,-0.7641399134293199
1772698639670553000,0.977552978515625,0.898638107985258,0.9954963077157736,-0.649546150521934
1772698639680510200,0.98751025390625,1.0565139632582663,1.0638953056812286,-0.33875111253522333
1772698639690466000,0.997466064453125,0.927396584957838,1.130382332545519,-0.01625423857793212
1772698639700423200,1.007423095703125,0.7165572012603283,1.2481880432367325,0.22297935535702854
1772698639710387500,1.017387451171875,0.5398422054827213,1.3910083681970833,0.39942141594476993
1772698639720344600,1.027344482421875,0.34877485922574997,1.4250561837494373,0.5005552471678704
1772698639730301700,1.0373017578125,0.015400982749462127,1.3258932142078876,0.5406025223307311
1772698639740258600,1.047258544921875,-0.4088695547044277,1.2453121955394744,0.521929568705894
1772698639750215400,1.05721533203125,-0.8221475735008716,1.364559337210655,0.33766839533243326
1772698639760172500,1.067172607421875,-0.9656967972576618,1.728034337440133,0.16123722146488725
1772698639770129400,1.07712939453125,-0.9180816441237926,2.199783834427595,-0.021532726970128716
1772698639780086500,1.08708642578125,-0.7322399235606193,2.6213860294550657,-0.25720848229303955
1772698639790043600,1.097043701171875,-0.6429167955100537,3.020099516326189,-0.2121352321943268
1772698639800000500,1.10700048828125,-0.6607365298390389,3.3460821135073897,-0.0412256347598508
1772698639809957600,1.11695751953125,-0.675053809005022,3.5701293538242576,-0.01742309969421476
1772698639819914500,1.12691455078125,-0.8441969082236289,3.764073716822266,-0.03335764133110642
1772698639829870300,1.136870361328125,-0.8980641074895859,3.8583880772888657,-0.04776128360629082
1772698639839827500,1.146827392578125,-0.7636135514676571,3.8007021965175865,0.10533307301122695
1772698639849784600,1.15678466796875,-0.6450351028382778,3.2998832569122314,0.5006275086864829
1772698639859741400,1.166741455078125,-0.7603636097609996,2.596930802634358,0.9042539020404219
1772698639869698600,1.176698486328125,-1.077552075111866,1.7133365345239637,1.0119289716005324
1772698639879655700,1.18665576171875,-1.4663175839424132,0.7915893536299466,1.097514666688442
1772698639889612500,1.196612548828125,-1.3698130199551581,-0.08718962315320967,1.0549953753888606
1772698639899569400,1.2065693359375,-0.7090579315461218,-0.7734902178376912,0.7363041042596101
1772698639909526500,1.216526611328125,0.0325602073431015,-1.064437157472968,0.2730610630012117
1772698639919483400,1.2264833984375,1.1309364592969418,-1.8246885390311478,-0.06145495098121464
1772698639929440500,1.2364404296875,2.432402503734827,-3.264885008767247,-0.37237869338151064
1772698639939397600,1.246397705078125,3.02822904676795,-5.5092158409297465,-0.33445907789710905
1772698639949354800,1.256354736328125,2.055094792985916,-7.908615069729089,-0.37160153499655424
1772698639959311400,1.266311279296875,0.1255516486428678,-9.879276844793557,-0.709389647718519
1772698639969267700,1.276267822265625,-0.9978326417088508,-11.31426288640499,-1.2535020778663455
1772698639979224300,1.286224365234375,-0.6827438520509749,-12.125829444658756,-2.173246248374879
1772698639989181400,1.296181396484375,0.09228782307505608,-12.415034509062766,-3.1628605123147366
1772698639999138600,1.306138671875,0.6831260563015937,-12.387847226929663,-3.657019701769948
1772698640009095400,1.316095458984375,1.4141209482371806,-12.199684954464434,-3.793998314964771
1772698640019052500,1.326052490234375,2.109438962113857,-12.177980487656592,-3.6564401483163236
1772698640029009700,1.336009765625,2.5557459748089313,-12.307863589632511,-3.1160695350453254
1772698640038966500,1.345966552734375,2.8263246646761893,-12.626528557276725,-2.045104875499755
1772698640048923400,1.35592333984375,2.503891868931055,-12.738120800280571,-0.8104676571011543
1772698640058880500,1.365880615234375,1.2652619276344776,-12.342274393278359,0.17537264125794172
1772698640068837600,1.375837646484375,-0.28792264164434744,-11.366051525831223,0.41225930674057454
1772698640078794500,1.38579443359375,-1.540228038805723,-9.895843364191055,-0.11440521806534379
1772698640088751600,1.395751708984375,-2.1547814941406247,-8.18015880523622,-0.9649439330637455
1772698640098708700,1.405708740234375,-2.2132143938869238,-6.174619778057933,-1.281732585442066
1772698640108664600,1.41566455078125,-1.862803457891941,-4.069327414229512,-0.9004759178716689
1772698640118621700,1.42562158203125,-1.4139122739225625,-2.011119457659125,-0.16278892615260557
1772698640128578300,1.435578369140625,-0.8381342471837997,-0.13658698352873325,0.39167898512445387
1772698640138535400,1.445535400390625,-0.33888887703809883,1.4512082776159048,0.892827814271301
1772698640148492500,1.455492431640625,-0.3532815229952335,2.6870424507141113,1.374311062026769
1772698640158449700,1.46544970703125,-0.7541706003397702,3.8186324054837226,1.7504750095680355
1772698640168406500,1.475406494140625,-0.911609233239293,4.75059878257513,1.91410679801926
1772698640178363600,1.48536376953125,-0.8545534670650958,5.676911079427599,1.9844014004729686
1772698640188320500,1.495320556640625,-0.7659311807602643,6.53753539083898,2.2612480646938082
1772698640198277400,1.50527734375,-0.6444394750326872,7.2723022025287145,2.2314780725911256
1772698640208234500,1.515234375,-0.386299885901995,7.869986356127262,1.7361168138697742
1772698640218191600,1.525191650390625,-0.1183235240202397,8.561510238417982,0.9660708182018249
1772698640228148500,1.5351484375,0.22350421948134896,9.326684463331103,0.19972484609559177
1772698640238105600,1.545105712890625,0.6949584598492831,10.05605379989147,-0.4676454957347363
1772698640248061700,1.555061767578125,1.0898673668056726,10.528417629384993,-1.1353243189923465
1772698640258018600,1.5650185546875,1.0989110894829035,10.745111584329605,-1.634467288209498
1772698640267975700,1.5749755859375,0.9996072501659393,10.904233640271425,-1.9900632256269455
1772698640277932500,1.5849326171875,1.1170429585009813,10.982153915297985,-2.1705080555826424
1772698640287889400,1.594889404296875,1.1696493440508842,10.99469307887554,-1.8525521129906177
1772698640297846500,1.604846435546875,1.1542664814800023,10.960620128881931,-1.1545070122376084
1772698640307803600,1.6148037109375,1.3000029861479996,10.91079080682993,-0.6563400484457612
1772698640317760500,1.624760498046875,1.5676204881221054,10.940865627098082,-0.452907799199596
1772698640327717600,1.634717529296875,1.7483792063325643,10.848679510831833,-0.47817646129503844
1772698640337674500,1.644674560546875,1.588962551358342,10.596630164867639,-0.48156230434104796
1772698640347631400,1.65463134765625,1.2430091792941094,10.145435380131005,-0.37506848045475777
1772698640357588500,1.66458837890625,0.7003770508319139,9.598673604518174,-0.15919322148188947
1772698640367545600,1.674545654296875,0.19427056274507193,9.057938249588013,-0.2659812060091644
1772698640377501400,1.68450146484375,-0.06519757157564163,8.57031606068611,-0.7362822577539831
1772698640387458600,1.69445849609375,-0.1067780841877684,8.102541312548517,-1.2971642555907368
1772698640397415700,1.704415771484375,-0.07095098400320857,7.670852023270726,-1.7623269215337931
1772698640407372500,1.71437255859375,-0.04414250858724117,7.384661338251829,-2.029346603745222
1772698640417329700,1.72432958984375,-0.040089981793425974,6.975013784912228,-2.0960084026545287
1772698640427286500,1.73428662109375,-0.27267010918855666,6.253796190625429,-1.9529194898858666
1772698640437243400,1.744243408203125,-0.6763613844722509,5.313930000194907,-1.526021672668308
1772698640447200500,1.754200439453125,-1.0310025053828955,4.4376171212643385,-0.8691575272832065
1772698640457157600,1.76415771484375,-0.9118173230320215,3.6341608042299747,-0.3184738289862871
1772698640467114500,1.774114501953125,-0.6186854405730963,2.6032576675683257,-0.15371197705920786
1772698640477071600,1.784071533203125,-0.42140287306308744,1.3919851042747498,-0.17462339379321784
1772698640487028500,1.794028564453125,0.10537524991882964,0.11624036107063293,-0.11284392356537282
1772698640496985300,1.8039853515625,0.6974351521611213,-1.4642489609748124,0.27603801471907646
1772698640506942500,1.8139423828125,1.1425894876897333,-2.946024810811877,1.0301090636745094
1772698640516898600,1.823898681640625,1.5873077698886393,-4.407286280408502,1.7388117520421742
1772698640526855400,1.83385546875,2.0469348674058914,-5.869896242004633,1.919761024388671
1772698640536812500,1.8438125,2.3120284038603303,-7.4341826172679655,2.0025977130293846
1772698640546769700,1.853769775390625,2.3970295770585537,-9.135120857989788,1.943698072554171
1772698640556726500,1.8637265625,1.7054256152689455,-11.231969218599795,1.5800789876788854
1772698640566683600,1.87368359375,0.23244915795922277,-13.087316515266895,0.8793484472341835
1772698640576640500,1.883640625,-0.8901987809419631,-13.949479288291931,-0.2549525200597942
1772698640586597400,1.893597412109375,-0.4161620863327756,-13.764319120252132,-1.4812069639079273
1772698640596554500,1.903554443359375,1.0697311722278595,-13.515408656835556,-2.3678305167116225
1772698640606511600,1.91351171875,1.7991010933101177,-13.637671931457518,-2.3369528556279837
1772698640616468500,1.923468505859375,1.099948615837097,-13.768354659378527,-1.3483755335204302
1772698640626425600,1.933425537109375,-0.10634093487951904,-13.611008380937575,0.2336416191468015
1772698640636382500,1.943382568359375,-0.6628606823861598,-12.51516077067852,1.8086460435077547
1772698640646339600,1.953339599609375,-0.41003867154903706,-10.40444170562625,3.141791420800984
1772698640656295400,1.96329541015625,0.2965362110096961,-8.07542008138895,3.756033033707738
1772698640666252500,1.97325244140625,0.9918133083540945,-5.926240060517191,3.484787404364347
1772698640676209400,1.98320947265625,1.0925299370784312,-4.467955560904741,2.6227663778975603
1772698640686166500,1.99316650390625,0.465986695677042,-3.332838601052761,1.3349649939358235
1772698640696123600,2.00312353515625,-0.1251905237128958,-2.1766098795890807,-0.12263218099959194
1772698640706080500,2.01308056640625,-0.2870622071564197,-0.9493523961782455,-1.499207461631298
1772698640716030200,2.0230302734375,-0.2069803336491808,0.30188159062564374,-2.4789625948578116
1772698640725987000,2.032987060546875,-0.14618421190287917,1.3478367504686117,-2.8566081592589616
1772698640735944000,2.04294384765625,-0.0842997103979811,2.323265837189555,-2.85642403486371
1772698640745901000,2.052901123046875,0.017933095042966304,3.218949771544337,-2.4162781751468776
1772698640755858200,2.062858154296875,0.07322660078499466,4.126164569216966,-1.7609598709642886
1772698640765815000,2.07281494140625,-0.09586860417127609,4.719693941223621,-0.9809465349681675
1772698640775772200,2.082772216796875,-0.6440004990935325,4.759686928915977,-0.038993382195755835
1772698640785729300,2.092729248046875,-1.1771966906905174,4.8885903722047805,0.6879542071104049
1772698640795685000,2.10268505859375,-1.1976362521290778,5.125865342885255,0.9578666881538928
1772698640805642200,2.112642333984375,-1.0615665704727173,5.06485236351788,0.7506897724866867
1772698640815599000,2.12259912109375,-1.2249895384788512,5.099987389785051,0.5177725586242974
1772698640825556000,2.132555908203125,-1.4918366406023502,5.205024219796061,0.48315242307670414
1772698640835513000,2.14251318359375,-1.602045904815197,5.258993710392713,0.5524268156372011
1772698640845470200,2.15247021484375,-1.6126304271936416,5.306339398935437,0.445196238441579
1772698640855427000,2.162427001953125,-1.351739603126049,5.744100117081404,0.4000695411225781
1772698640865384200,2.17238427734375,-0.619883125925064,6.38067134295702,0.6414500839583576
1772698640875341000,2.182341064453125,-0.09575520692467689,6.862903070992231,1.100188708203286
1772698640885298000,2.1922978515625,-0.2781786800095811,7.077723633280396,1.5789821323528885
1772698640895255000,2.202255126953125,-0.7951426621973514,7.007860407981276,1.575635744534433
1772698640905212200,2.212212158203125,-1.0344248810470105,7.018678739115596,1.0241368573971092
1772698640915169300,2.222169189453125,-0.8863853601336479,7.06398970696032,0.3892002469860017
1772698640925125000,2.232125,-0.6845160493552684,7.007842872324585,-0.1673437947116792
1772698640935082200,2.242082275390625,-0.8827870433807372,6.6892924709707495,-0.5040185393642634
1772698640945039000,2.2520390625,-1.4267209020912646,6.112649351835251,-0.6351642816871405
1772698640954996200,2.261996337890625,-1.7874281911730765,5.5267725404083725,-0.62811070991382
1772698640964953000,2.271953125,-1.6312755064308642,4.92165677550435,-0.4937017280112952
1772698640974910000,2.281909912109375,-1.2526141891159117,3.863469910597801,-0.35999482996352017
1772698640984867000,2.2918671875,-1.1073474939167498,2.4716759449809786,-0.38490353617276996
1772698640994824200,2.30182421875,-0.8777915001157671,0.8888649019896984,-0.6487329344429076
1772698641004781000,2.311781005859375,0.03301021613292396,-0.9365572120130061,-1.1154819927945732
1772698641014738200,2.32173828125,1.1428268035769462,-3.3125971925348043,-0.8961227641634643
1772698641024695000,2.331695068359375,2.013432410776615,-6.234657774913311,0.23332736556585876
1772698641034652200,2.341652099609375,2.419753450042009,-9.44634661554396,1.946397833032161
1772698641044609000,2.351609130859375,2.4833178674578664,-12.54156596252322,3.7302448047176
1772698641054566100,2.361566162109375,2.477110244989395,-15.38616979573369,4.923260119047761
1772698641064522000,2.37152197265625,2.7464696221947666,-17.649080825203654,4.684809674847125
1772698641074479000,2.38147900390625,2.963516628360748,-19.50539024490118,2.7218393310680984
1772698641084436200,2.391436279296875,2.5612942565858363,-21.12102511460781,-0.5561858759097754
1772698641094393000,2.40139306640625,1.9607576361656187,-21.98875487411022,-3.5403479635447264
1772698641104350200,2.41135009765625,1.6526421195864676,-21.920767964076994,-4.854133391329646
1772698641114307000,2.42130712890625,1.7719079659581183,-20.923489449119568,-4.26833636714071
1772698641124264200,2.43126416015625,2.262930903214216,-19.227119246965646,-2.4298953432194885
1772698641134221000,2.441220947265625,2.473480364054441,-17.073503289473056,0.325969774232246
1772698641144178200,2.45117822265625,2.085501621687412,-14.425261401796341,3.7592204315721984
1772698641154135300,2.46113525390625,1.5778385152757166,-11.073545081794261,6.169599904069304
1772698641164092200,2.471092041015625,1.2628371847055853,-7.46836019667983,6.745791187784075
1772698641174049000,2.481049072265625,0.6801249747894704,-3.9593127958059307,5.7509922146826975
1772698641184006100,2.491006103515625,-0.3100117055892944,-0.6646475658029317,3.607512451279163
1772698641193963000,2.500962890625,-1.4721920289337633,2.3697820891708132,0.7362099962353706
1772698641203919000,2.510919189453125,-2.2623183242738247,5.21295267470777,-2.1974806720517575
1772698641213876000,2.5208759765625,-2.527845575970411,7.6527201542526475,-4.472625014020502
1772698641223833000,2.5308330078125,-2.47075999917984,9.557744212758541,-5.4793795055925845
1772698641233790200,2.540790283203125,-2.306604040724039,11.05939029971361,-5.3338434919327495
1772698641243747300,2.550747314453125,-2.335691018998623,11.957771218067407,-4.390272601765394
1772698641253704200,2.5607041015625,-2.282349889433384,12.420782697325944,-3.0409011890754103
1772698641263661000,2.5706611328125,-1.8832582168996332,12.68694240170717,-1.694187889678776
1772698641273618200,2.5806181640625,-1.084180553340912,12.819169436460733,-0.5403295506082475
1772698641283575000,2.590574951171875,0.03307458660602569,12.968291491913794,0.1879115491071716
1772698641293532200,2.6005322265625,1.1501210522383452,13.00110421271324,0.5512357061564922
1772698641303489300,2.6104892578125,1.7412410250157118,12.501347349381446,0.5599906019549816
1772698641313446100,2.620446044921875,1.7638748816281555,11.817094334876536,0.2404154606632888
1772698641323403000,2.630403076171875,1.6752017419189213,10.92660329298973,-0.11667109890440479
1772698641333359400,2.640359375,1.5715905607968568,9.939356342703103,-0.5099168036226183
1772698641343316000,2.65031591796875,1.1834300321221352,8.847354886478184,-0.8762816070094704
1772698641353273000,2.660273193359375,0.7219616906523704,7.943437376785278,-1.014906964498013
1772698641363230200,2.670230224609375,0.48273266329467296,7.370195006003976,-0.9335773194193839
1772698641373187000,2.68018701171875,0.5201437812676653,7.050013204056024,-0.6718217682812363
1772698641383144200,2.690144287109375,0.7552683324486017,7.0749009770750995,-0.45480091946981843
1772698641393101300,2.700101318359375,0.9025316082924604,7.280124274456501,-0.2170383114028722
1772698641403058200,2.71005810546875,0.9119067548811435,7.592541287621855,0.04427252817507833
1772698641413015000,2.72001513671875,0.7695487867355346,7.8235080980688325,0.24921065193954853
1772698641422972200,2.72997216796875,0.7268062080740928,8.041729993233083,0.3539721721405163
1772698641432929000,2.739928955078125,0.8808078522622584,8.394696458929777,0.43660526450052856
1772698641442886100,2.74988623046875,0.8498316992402076,8.661858618351816,0.32089572237096725
1772698641452843300,2.75984326171875,0.5012310275375843,8.637199977913498,0.08618583467183634
1772698641462800100,2.769800048828125,-0.024126743785012512,8.395184534707665,-0.1787938113456592
1772698641472756200,2.779756103515625,-0.27266777110099794,8.030924521580339,-0.4235561055742204
1772698641482713300,2.78971337890625,-0.2875754173755646,7.360355164512992,-0.5354516423735767
1772698641492670000,2.799669921875,-0.5440215369939804,6.605708178833127,-0.3796997204519808
1772698641502627000,2.809626953125,-0.9739525844275951,5.783537224456667,-0.19145241831811144
1772698641512584200,2.819584228515625,-1.1812158632040024,4.839809682422876,-0.24553912381995469
1772698641522541000,2.829541015625,-0.9221370569944382,3.8592274507224555,-0.38815143205281344
1772698641532498200,2.839498291015625,-0.7068038690090179,2.612522924041748,-0.4272536449179053
1772698641542455300,2.849455322265625,-0.7706324903190136,1.013188616272807,-0.5647388924606144
1772698641552412200,2.859412109375,-0.657338119572401,-1.214960311895609,-0.9389261331014335
1772698641562369000,2.869369140625,-0.3074912472009659,-3.7878859695643183,-1.2139425862204283
1772698641572326100,2.879326171875,0.045503860068321224,-6.032238429036736,-1.0580727370075882
1772698641582283000,2.889282958984375,0.37329905962944027,-7.740544568178057,-0.569116303827241
1772698641592240000,2.899240234375,0.6450385369043797,-9.2799156978935,0.41670302480906246
1772698641602197200,2.909197265625,0.999246015638113,-10.19669678081274,2.2911107035160065
1772698641612153000,2.919153076171875,1.3202876492857931,-10.712506953322887,4.356946963007748
1772698641622110200,2.929110107421875,1.7817326098799704,-10.41080130378604,5.147069458955526
1772698641632067300,2.9390673828125,3.436066335815191,-9.109630442902445,4.36406643962413
1772698641642024000,2.94902392578125,6.373170758068561,-7.869249858546256,2.5310785665422677
1772698641651981000,2.95898095703125,7.948800949645042,-9.831606746602057,0.5199640773192048
1772698641661938200,2.968938232421875,5.176877737241983,-14.674831205904482,-0.9341016355544328
1772698641671895000,2.97889501953125,-1.946409961861372,-18.33293753386736,-1.6644292957529425
1772698641681852200,2.98885205078125,-8.4060303383708,-19.737307487940786,-1.7671946737006305
1772698641691809300,2.998809326171875,-10.279290892869234,-17.34354772633314,-1.654501191456616
1772698641701766000,3.008765869140625,-6.257075358426571,-12.10056874667406,-1.188486146467924
1772698641711723000,3.018722900390625,1.1671337079681456,-7.203070845392346,-0.32974414167180655
1772698641721680100,3.02868017578125,6.429259140515327,-3.3786721314668653,0.6646922817274927
1772698641731637200,3.03863720703125,7.5868942216455935,-1.3936334560036658,1.3508673503361641
1772698641741594000,3.048593994140625,5.742883142507076,-1.1345675092756748,1.2265144099585712
1772698641751550200,3.05855029296875,2.8379285932302474,-1.190055003219843,0.4111286587428301
1772698641761507000,3.068507080078125,0.8478723818659782,-0.8502835346609353,-0.24642595312446355
1772698641771464200,3.078464111328125,-0.1871779376029968,-0.33335517177581786,-0.3594443564739078
1772698641781421300,3.08842138671875,-0.6080313600897789,0.6912842283159494,-0.4334469466000795
1772698641791378000,3.0983779296875,-0.5528303184041753,1.8383160823673008,-0.7557200948040932
1772698641801335000,3.1083349609375,0.07145184619743376,2.8043209226608274,-1.317266840159893
1772698641811292200,3.118292236328125,0.6459492950737475,3.4153076254248615,-1.9809834087230265
1772698641821249000,3.1282490234375,0.6060205682566389,3.4903643277138467,-2.3647794585779307
1772698641831206100,3.1382060546875,-0.19077862897608427,3.2123435051470994,-2.2580147818610072
1772698641841163300,3.148163330078125,-1.2034242609459906,3.0142046130686997,-1.7632316152885554
1772698641851120000,3.1581201171875,-1.7186673741579055,3.074596245667338,-0.888820770587027
1772698641861077000,3.168076904296875,-1.7550035929083823,3.227812292435765,0.006633337067253887
1772698641871034000,3.1780341796875,-1.4750363124489783,3.585480067691207,0.8306791088722646
1772698641880990000,3.187989990234375,-0.9965817648649216,4.200745470687747,1.4697856984443962
1772698641890947000,3.197947021484375,-0.47393498780038207,4.859449033394456,1.8368252592876553
1772698641900904200,3.207904296875,0.003370353215932846,5.506332978969812,1.9076536763571201
1772698641910861000,3.217861083984375,0.264638778424263,6.036271045553684,1.638886127565056
1772698641920818200,3.227818115234375,0.259996469043754,6.345688292381167,1.1352679126299916
1772698641930775000,3.237775146484375,0.13931381467673926,6.520483133751154,0.5346202330507338
1772698641940732200,3.247732177734375,-0.012259798646904527,6.633567661139368,-0.09439889694489538
1772698641950689000,3.25768896484375,-0.19259649205300955,6.5832186991274355,-0.5720153132043778
1772698641960646100,3.267646240234375,-0.645834728783369,6.40704087896645,-0.9509738599002361
1772698641970603300,3.277603271484375,-1.1474059480607508,6.253464182192086,-1.0519958282466977
1772698641980560100,3.28756005859375,-1.1514742204129695,6.33124767909646,-0.9885347981400787
1772698641990517200,3.297517333984375,-0.6185773040235042,6.426442914050817,-0.8338057164601981
1772698642000474000,3.30747412109375,-0.2749976753532886,6.310702319195866,-0.6102418757461011
1772698642010431000,3.317430908203125,-0.3115256172835827,6.020691199105977,-0.3365210519282147
1772698642020388000,3.32738818359375,-0.47590833369996394,5.6871863897264,-0.13153840403542852
1772698642030344000,3.337343994140625,-0.6644774699330329,5.024821966424584,0.0004191113280598074
1772698642040301000,3.347301025390625,-0.8373860591650009,4.181220101484656,0.23368858182737604
1772698642050258200,3.357258056640625,-1.1522411131322383,2.7383699023693797,0.46193789521027356
1772698642060215300,3.36721533203125,-1.4765478860557077,0.6379857688486575,0.41134734299480913
1772698642070172200,3.377172119140625,-1.2588181583225726,-1.5627736326128243,-0.3993496658828109
1772698642080129000,3.38712890625,-0.5790401703398674,-3.691301910600066,-1.2509453791208565
1772698642090086100,3.397086181640625,-0.06079371059350669,-5.830272672146559,-1.5281345731690525
1772698642100043000,3.40704296875,-0.17187274337820707,-8.054520501223205,-1.0007635075289756
1772698642110000000,3.417000244140625,-0.8747031056463718,-10.030160649222134,0.26383495122808964
1772698642119957200,3.426957275390625,-0.9162905959885567,-11.471188309085369,1.2718909903854132
1772698642129914000,3.4369140625,0.36546770841665566,-12.382871776604652,1.7526444625616073
1772698642139871200,3.446871337890625,1.8573522067487238,-13.118555703139304,1.797837356984615
1772698642149828000,3.456828125,2.2679729890346527,-13.876023591458797,1.3843832509689031
1772698642159785000,3.466784912109375,1.7226795324087143,-14.376092589479684,0.9082534200053661
1772698642169741000,3.476740966796875,1.5296505306899546,-14.610105928015708,0.4305811088401824
1772698642179698200,3.4866982421875,2.065676977276802,-14.638458746796845,0.21431948089823125
1772698642189655000,3.496655029296875,2.643778478527069,-14.07391464625597,0.6017028146553784
1772698642199612200,3.506612060546875,3.095087829554081,-13.045433183783292,1.545811976417899
1772698642209569300,3.5165693359375,3.4774762045681475,-11.944286298072337,2.5434756913006304
1772698642219526100,3.526526123046875,3.5952047583699223,-10.956474699640273,2.9049285380527374
1772698642229483000,3.53648291015625,2.735245632869005,-10.170784925442934,2.962562396375835
1772698642239440100,3.546440185546875,0.5416250703115016,-9.12260273720026,2.787902579562366
1772698642249397000,3.55639697265625,-1.849464668369293,-7.374009011334181,2.2874042502135037
1772698642259354000,3.56635400390625,-2.887054150927067,-4.977408473342657,1.3008797689825295
1772698642269311200,3.576311279296875,-2.5872785926699637,-2.389870937475562,-0.0167104579128325
1772698642279268000,3.58626806640625,-2.0574737970769403,-0.1258791270315647,-1.1784984209388494
1772698642289225200,3.59622509765625,-1.8868471813023089,2.1348656643152237,-1.6673925294727086
1772698642299182000,3.60618212890625,-1.9241992990970611,4.417895352706313,-1.5581132395863533
1772698642309138200,3.61613818359375,-1.858129620862007,6.614950054430961,-1.336843647289276
1772698642319095000,3.626094970703125,-1.5840999137580394,8.703208281350136,-1.0955790224507451
1772698642329052200,3.63605224609375,-1.407779470255971,10.40818615285158,-0.5291106758490205
1772698642339009000,3.646009033203125,-1.658812917175889,11.114698929959536,0.35031412455700334
1772698642348966100,3.655966064453125,-2.0164397758990527,11.619312001150846,0.8712785380251705
1772698642358923300,3.66592333984375,-1.864194619989395,12.118040105956792,0.7159552167791873
1772698642368880000,3.675880126953125,-1.0120032058805226,12.28930618867874,0.11908236129721626
1772698642378837000,3.6858369140625,-0.016598649835120886,12.219841607308387,-0.6087669078227133
1772698642388794000,3.695794189453125,0.3510808346131816,12.009921092021465,-1.2271055077195168
1772698642398751000,3.7057509765625,0.42968496371805665,11.682713921481371,-1.8105995156630872
1772698642408708000,3.7157080078125,0.8134481342166662,11.27920209441781,-1.9202024845458565
1772698642418665200,3.725665283203125,1.3398457517147064,10.814315468937158,-1.5390619176357985
1772698642428622000,3.7356220703125,1.6279776339292524,10.318882898545265,-1.044031352173537
1772698642438578200,3.745578125,1.4682529359191656,9.81384897159338,-0.42306835858989505
1772698642448535300,3.755535400390625,1.1452438015908002,9.29015535235703,-0.013360014973767102
1772698642458492200,3.7654921875,0.943763782390952,8.87558261757493,0.06960866601616143
1772698642468449000,3.775448974609375,0.7994663706153631,8.451970251768827,0.04190009995531291
1772698642478406100,3.78540625,0.7425836959857494,8.081439487808943,-0.1199255158567801
1772698642488363000,3.795363037109375,0.6637818888843059,7.865027272415161,-0.4737314280522987
1772698642498320100,3.805320068359375,0.6636397769998759,7.79744075987637,-0.8070720233134925
1772698642508277200,3.81527734375,0.5904266567509621,7.881872024232148,-0.9249421775430441
1772698642518234000,3.825234130859375,0.5006926828771829,7.933222856763005,-0.9142711459249258
1772698642528191000,3.83519091796875,0.46145844113025813,7.826250674775243,-0.9894745632082224
1772698642538148000,3.845148193359375,0.4992249484121799,7.784608166310191,-1.078294417911768
1772698642548105200,3.855105224609375,0.5904782042751089,7.555404858404398,-1.1181098570801318
1772698642558062000,3.86506201171875,0.5108154694953934,7.046147760799527,-1.0653386363573372
1772698642568019200,3.875019287109375,0.24159696206543593,6.369899189051985,-1.0288915045782923
1772698642577976300,3.884976318359375,-0.05369129470977932,5.674361394944786,-1.0161203588757663
1772698642587932200,3.89493212890625,-0.19925415984392164,4.64287782804668,-0.9310166020859032
1772698642597889300,3.90488916015625,-0.17288464210079982,3.264698546284437,-0.8587444159489125
1772698642607846100,3.91484619140625,0.16593933474123476,1.7551561531215905,-0.5617507434953004
1772698642617803000,3.924802978515625,0.8174024248003959,-0.282296600189805,-0.2890456543249078
1772698642627760000,3.934760009765625,1.6029028139054775,-2.6856436898320912,-0.08806543787335977
1772698642637717000,3.944717041015625,2.3683798211574554,-5.133022228902578,0.08411898353621364
1772698642647674000,3.954674072265625,2.843428944212198,-7.502595059236883,0.4611105410080403
1772698642657631200,3.96463134765625,2.9679753613352773,-9.661189974185824,1.1504276339694857
1772698642667588400,3.97458837890625,2.7820623291015623,-11.66074408173561,2.0068711525648832
1772698642677545000,3.984544921875,2.0258429795384405,-13.63882694671154,3.038704263553023
1772698642687502000,3.994502197265625,0.9712228672027587,-14.82612417565584,3.693209790048003
1772698642697459200,4.004459228515625,0.577421190835908,-15.042313103687762,3.4721640696346756
1772698642707416000,4.014416015625,1.5997522409200668,-14.270255549001693,2.57484581207633
1772698642717372700,4.02437255859375,3.88350147575736,-13.312910400503872,1.5124930596619843
1772698642727329800,4.034329833984375,5.448076020312309,-13.75578042448759,0.8144930401597171
1772698642737286700,4.04428662109375,4.039038074427843,-15.677141285288332,0.6937494493857026
1772698642747243500,4.054243408203125,-0.06186809835936874,-17.201483188176155,0.9968081209667027
1772698642757200600,4.06420068359375,-4.173762186694145,-17.59305206398964,1.2174193954855204
1772698642767157500,4.074157470703125,-6.333627852231264,-16.583620169901845,1.2292232305258513
1772698642777114600,4.084114501953125,-5.7370086975157255,-13.481188407325744,1.1466492114093154
1772698642787071700,4.09407177734375,-2.4380536613643167,-9.67934230147004,1.0144580516867339
1772698642797028600,4.104028564453125,1.243914019179344,-6.424542633387446,1.0403658154033124
1772698642806985700,4.11398583984375,3.208951524621248,-3.774680451032519,1.1644916690267622
1772698642816942600,4.123942626953125,3.503448850214481,-1.8965835624188183,1.0580680608324706
1772698642826899500,4.1338994140625,2.7207120806038376,-0.6275736804276705,0.5687456438839436
1772698642836856600,4.143856689453125,1.6264976245045661,0.3234147925198078,-0.14946890526250936
1772698642846813700,4.153813720703125,0.5892390178689733,1.074618359747529,-0.657793827450648
1772698642856770600,4.1637705078125,-0.20180269354926422,1.7194465418368576,-0.9282204685613512
1772698642866726700,4.1737265625,-0.6929413478732108,2.4322891064882275,-1.1850787491772323
1772698642876683800,4.183683837890625,-1.085569377350807,2.9144296491086483,-1.4289998068086802
1772698642886640600,4.193640625,-1.4848258850574492,3.2951433689087626,-1.8270939927376806
1772698642896597500,4.203597412109375,-1.8012696695208548,3.777686647111177,-2.1864788010440765
1772698642906554600,4.2135546875,-1.8077829969376324,4.406310713374615,-2.269248123537004
1772698642916511500,4.223511474609375,-1.6085463727504015,5.141694195657968,-2.0908656329385935
1772698642926468600,4.233468505859375,-1.3269570440471172,5.949840131813287,-1.6361688314303755
1772698642936425700,4.24342578125,-1.0074679005384444,6.733571173158287,-1.053688895900175
1772698642946382600,4.253382568359375,-0.7346598441839217,7.437841139775514,-0.4683454241650179
1772698642956339700,4.263339599609375,-0.6270961260437965,7.965110279411077,0.10494776348806917
1772698642966296600,4.273296630859375,-0.5734931306719779,8.214113097286225,0.42283612073659893
1772698642976253400,4.28325341796875,-0.5324737225413322,8.28342394939959,0.3819107475649565
1772698642986210600,4.29321044921875,-0.41548751153945923,8.377508592763542,0.18017562109287827
1772698642996167700,4.303167724609375,-0.19679098460078237,8.502192372530699,-0.22651651650723068
1772698643006124800,4.313124755859375,-0.04898059626817703,8.442060267651081,-0.6881190422832966
1772698643016080600,4.32308056640625,-0.027407098896242675,8.445451079133152,-0.9562364566035568
1772698643026037800,4.333037841796875,-0.0530582392369397,8.535189802247285,-1.038166697923839
1772698643035994600,4.34299462890625,0.10365673729684204,8.637800281894206,-1.0654891507439315
1772698643045951500,4.352951416015625,0.24891163246035575,8.640438229182362,-1.04536391595155
1772698643055908600,4.36290869140625,0.2737970673918724,8.491925245538354,-0.964902870400995
1772698643065865500,4.372865478515625,0.013957250214554368,8.226820018646121,-0.8574198162816464
1772698643075822600,4.382822509765625,-0.4662134901702404,7.798917262169718,-0.7749981381826102
1772698643085779700,4.39277978515625,-0.8955190991818904,7.389982825535536,-0.7879578652597964
1772698643095736600,4.402736572265625,-1.094779104244709,7.042151384639739,-0.7351037885591387
1772698643105693700,4.412693603515625,-0.9668436292052268,6.618328590953349,-0.7887557376392185
1772698643115650600,4.422650634765625,-0.6396773751974105,6.130965929770469,-0.9031067047666758
1772698643125607700,4.432607666015625,-0.47364279992077496,5.342585601314902,-0.8120888285622
1772698643135564500,4.442564453125,-0.7076046639978886,4.403441295418143,-0.6915159181799739
1772698643145521700,4.452521728515625,-0.8370856149137019,3.3654029000490904,-0.3975483155492693
1772698643155477500,4.4624775390625,-0.4547708896577358,1.9253560679167507,-0.2483139953607693
1772698643165434600,4.4724345703125,0.38146011772062627,-0.03229191179573536,-0.5334744970817119
1772698643175391700,4.482391845703125,1.0832838967621325,-2.3960464112401008,-0.6289207111224532
1772698643185348600,4.4923486328125,1.697441046255827,-5.177376918935775,-0.1654413220912218
1772698643195305500,4.502305419921875,1.968991211503744,-8.486524847799538,0.3858961639393121
1772698643205262600,4.5122626953125,1.4423755673408507,-11.643926217925548,0.8084608473233879
1772698643215219700,4.5222197265625,0.671116396490857,-14.07976687941551,0.9664313951425254
1772698643225176600,4.532176513671875,0.8877905507564544,-15.775018306672573,0.838860077240318
1772698643235133700,4.5421337890625,2.334694993698597,-17.056641001999377,0.7170743570022284
1772698643245090800,4.5520908203125,4.148450050783157,-18.47490387234688,0.9919391997560858
1772698643255047700,4.562047607421875,4.941993461090326,-20.48698019233942,1.5323152198545633
1772698643265004500,4.572004638671875,3.498420792919397,-22.51015307588577,1.6894997318625449
1772698643274961700,4.581961669921875,0.4462263486742973,-23.360216245794295,0.9840085528872906
1772698643284918500,4.59191845703125,-2.0615525908231733,-23.28198383607864,-0.49373511882424354
1772698643294875600,4.601875732421875,-3.2567315129280088,-22.36462349196672,-1.9407984055899083
1772698643304831500,4.61183154296875,-3.7928725258052345,-19.958422766458987,-1.8489234010994433
1772698643314788600,4.62178857421875,-3.826835585683584,-15.896570802676676,-0.23456753835268318
1772698643324745700,4.631745849609375,-3.1088918985009193,-11.505955671083926,1.7558697082184254
1772698643334702800,4.641702880859375,-2.022069306218624,-7.707276504826545,2.992603022113442
1772698643344659500,4.651659423828125,-1.250298167258501,-4.682077035012841,3.2932992023468017
1772698643354616600,4.661616455078125,-0.945268926256895,-2.281933709847927,2.9019749489441513
1772698643364573700,4.67157373046875,-1.0197627339661122,-0.22317980983257293,2.349894608657062
1772698643374530600,4.681530517578125,-1.1170797833800314,1.6392442933529614,2.0038690481394528
1772698643384487700,4.69148779296875,-0.8700865517616272,3.5192145746231076,1.8368803504757583
1772698643394444800,4.70144482421875,-0.2681271867956035,5.296873066931963,1.6786989363849163
1772698643404401700,4.711401611328125,0.4647755663216114,6.785511203753948,1.5769982650592922
1772698643414358500,4.721358642578125,1.119960307252407,7.989496532648801,1.391609548960626
1772698643424315600,4.731315673828125,1.335719027173519,8.912392299056053,1.1836693938359617
1772698643434272500,4.7412724609375,1.1182698699474334,9.582945874032378,1.0696792228449135
1772698643444229600,4.751229736328125,0.7321966689407825,10.122331567919254,0.8745989146195352
1772698643454185700,4.761185791015625,0.2892331214547157,10.517914940071105,0.6162945999138056
1772698643464142600,4.771142578125,0.048205520242452615,10.821420917028188,0.08930610385052859
1772698643474099700,4.781099609375,-0.019049568384885786,10.948504159152508,-0.7183051409061998
1772698643484056800,4.791056884765625,0.06139584120512008,11.125679758179187,-1.616624757526815
1772698643494013400,4.801013427734375,0.263435832375288,11.351277150547503,-2.325173716637492
1772698643503970600,4.810970458984375,0.37921325210928913,11.43537816003561,-2.7502695989996195
1772698643513927700,4.820927734375,0.27051263889372346,11.264414859652518,-2.9897753974720835
1772698643523884500,4.830884521484375,0.2683136675447225,11.21827270168066,-2.952546906057
1772698643533841700,4.840841552734375,0.4598901323676109,11.189394982242584,-2.64003666165024
1772698643543798800,4.850798828125,0.6731973674833774,11.05015953003168,-2.2279016754090786
1772698643553755600,4.860755615234375,0.6707599112033844,10.841424425137042,-1.8844404124215244
1772698643563712500,4.87071240234375,0.5713865137815475,10.678359184527396,-1.6066270951256154
1772698643573669600,4.880669677734375,0.5624708013981581,10.518534533274174,-1.3794991321891545
1772698643583626500,4.89062646484375,0.5631722276657819,10.280549953019618,-1.1013312293019144
1772698643593582600,4.90058251953125,0.4699994384497404,10.04943584305644,-0.8559464557934552
1772698643603539700,4.910539794921875,0.3360018868923187,9.917409883832931,-0.7652560579776764
1772698643613496600,4.92049658203125,0.26613634177194906,9.758373168087005,-0.8260570020295679
1772698643623453700,4.93045361328125,0.3192056503921747,9.596187048399448,-1.0215219987235962
1772698643633410800,4.940410888671875,0.34484921021461484,9.400597840803862,-1.073680932766944
1772698643643367400,4.950367431640625,0.24231530293524264,9.25480989820957,-1.014015130224824
1772698643653324500,4.960324462890625,0.03278409749316052,9.07165113312006,-0.9601607904404401
1772698643663281700,4.97028173828125,-0.13183659239755943,8.853382476204633,-0.9142390702862292
1772698643673238500,4.980238525390625,-0.2572498189504258,8.67667917086482,-0.8362054710783063
1772698643683195600,4.990195556640625,-0.24677405417608095,8.451040277442335,-0.7797403642736375
1772698643693152800,5.00015283203125,-0.2531786422550678,8.04354960987568,-0.7605268374986947
1772698643703109600,5.010109619140625,-0.5025327577859163,7.429584768083691,-0.8513575205679983
1772698643713066200,5.020066162109375,-0.8188841877907514,6.821682587331533,-0.8587705002382398
1772698643723023400,5.0300234375,-0.7751713027924299,5.8890557005047794,-1.1119303647276013
1772698643732980500,5.03998046875,-0.4296218353539705,4.383164815586805,-1.5197423001378774
1772698643742936300,5.049936279296875,-0.16563947501182555,2.126507585814595,-1.6464942644812166
1772698643752893400,5.0598935546875,0.018565588826802558,-0.7156020924925803,-1.413952313672006
1772698643762850300,5.069850341796875,0.22327450237870214,-4.00360903365016,-0.6639535921894013
1772698643772807400,5.079807373046875,0.49313656840920445,-7.483482947009802,0.5554244630832225
1772698643782764500,5.0897646484375,1.0255261197984218,-10.408735603427886,1.794158083949983
1772698643792721200,5.09972119140625,1.5446365028977393,-13.306193074947595,3.3241090588912368
1772698643802678300,5.10967822265625,1.4481097270786762,-16.136916851365566,5.002381002035737
1772698643812635400,5.119635498046875,0.46005730562806124,-18.26737755872011,6.1272816882997745
1772698643822592300,5.12959228515625,0.18429624468684194,-19.155792378854752,6.2659548304528
1772698643832549400,5.13954931640625,1.2070528997719288,-19.414595290732382,5.750213047003745
1772698643842506500,5.149506591796875,1.5599866322427987,-19.534198990756273,4.924981536012887
1772698643852463400,5.15946337890625,0.15397886610077693,-19.817536624431607,4.0605820899769665
1772698643862420200,5.169420166015625,-2.2419798851221797,-20.001153654682636,3.407073173303902
1772698643872377300,5.17937744140625,-3.678101068243384,-18.87164459784031,2.823971671809256
1772698643882334500,5.18933447265625,-3.3120851513594385,-16.01414971887469,2.280124322338402
1772698643892291300,5.199291259765625,-1.6635060434281825,-12.441356698799133,1.5737097449079156
1772698643902247400,5.209247314453125,0.11824351758658885,-9.011959173223376,1.118865132426843
1772698643912204300,5.219204345703125,1.632314786350727,-6.448381774136424,0.7837148939277976
1772698643922161400,5.229161376953125,2.2859224872231483,-4.907269938233495,0.43480427949316797
1772698643932118500,5.239118408203125,1.6797580900490283,-4.123635343000292,-0.09187244720719755
1772698643942075400,5.249075439453125,0.3207189775645733,-3.312394363439083,-0.6976923417925834
1772698643952032300,5.2590322265625,-0.6855681887567043,-2.1481004089415072,-1.3713289774760604
1772698643961989400,5.2689892578125,-0.6649591159701347,-0.7327975574433803,-1.9579392177440225
1772698643971946500,5.278946533203125,-0.10680793133676052,0.6212719499349594,-2.1583694356299934
1772698643981903400,5.2889033203125,0.4650661102334037,1.733987692886591,-2.137160789515078
1772698643991860500,5.298860595703125,0.5777174703687429,2.6350381227105855,-2.1500075577370823
1772698644001817300,5.3088173828125,0.3417869000345468,3.2742087174296377,-2.221712026988715
1772698644011774200,5.318774169921875,-0.044348844814300535,3.6979239590883255,-2.1868208924800157
1772698644021731300,5.3287314453125,-0.46754503103494643,3.956416489842534,-1.902738870178163
1772698644031688400,5.3386884765625,-0.9040501961618661,4.162147152224183,-1.3601225238069892
1772698644041645300,5.348645263671875,-1.0253051705241203,4.619698612511158,-0.6900758023742586
1772698644051601400,5.358601318359375,-0.7029366721868514,5.2324827200859785,-0.06329334538951516
1772698644061558500,5.36855859375,-0.24536826076507567,5.77691225335896,0.3097650373518467
1772698644071515400,5.378515380859375,0.02557283267378807,6.3723752237766975,0.5021763455636798
1772698644081472500,5.388472412109375,0.13022621632516385,6.827999515393376,0.4923747902564704
1772698644091429400,5.398429443359375,0.15638824706375598,7.245338792279362,0.34223552058488127
1772698644101386200,5.40838623046875,0.2019885532438755,7.65051475316286,0.20828531530052422
1772698644111343400,5.41834326171875,0.22777415188550948,7.9512746462821955,-0.04400193107277155
1772698644121300500,5.428300537109375,0.18857611396312712,8.225631101122499,-0.327970190801844
1772698644131257300,5.43825732421875,0.03343931913203559,8.406902445030212,-0.6158720636527985
1772698644141214500,5.44821435546875,-0.20561025087237356,8.512259008514881,-1.00212573579289
1772698644151171300,5.45817138671875,-0.2679962721586227,8.643095465692877,-1.4356523965656756
1772698644161128200,5.468128173828125,-0.06599018325805664,8.82026463497877,-1.8672069535478948
1772698644171085300,5.478085205078125,0.08619242880940436,8.938255639109014,-2.279577063719183
1772698644181042400,5.48804248046875,0.10889759709239005,8.918854773068427,-2.601261525315046
1772698644190999300,5.497999267578125,-0.03386365462448448,8.7574887375921,-2.8653005842804906
1772698644200955400,5.507955322265625,-0.32766075952649115,8.367326221445202,-2.9302409662246705
1772698644210912500,5.51791259765625,-0.5664367458870634,7.806013357910514,-2.789741193166375
1772698644220869400,5.527869384765625,-0.6529425149619579,6.98793464128375,-2.660670284356177
1772698644230826500,5.537826416015625,-0.4487819149086252,5.809440311998128,-2.6997671999916433
1772698644240783400,5.547783447265625,0.1358743782799691,4.146384350425005,-2.694713131472468
1772698644250740200,5.557740234375,1.0424807617306708,2.1647563601881266,-2.0421347736477853
1772698644260697300,5.567697265625,2.2959914612948893,-0.6225573135703801,-0.7778473901338875
1772698644270654500,5.577654541015625,3.5233962442219253,-4.603647641420364,0.8177354561470449
1772698644280611300,5.587611328125,3.2132851699113845,-9.484549212688208,2.574073658660054
1772698644290568400,5.597568359375,0.5687549231689423,-14.661691153824329,4.234655923596025
1772698644300525300,5.607525390625,-2.8712989479124547,-19.014377829039095,5.14392940736413
1772698644310482200,5.617482177734375,-4.528911841648817,-21.959734531331062,4.926629303219914
1772698644320439300,5.627439208984375,-3.495416350406408,-23.193000899767874,4.070726175111532
1772698644330396400,5.637396484375,-1.0288812754452228,-23.20509348862171,3.240225783807039
1772698644340353500,5.647353515625,0.7141045474112033,-22.70291904275417,2.6749621368199583
1772698644350310400,5.657310302734375,0.7568927187800407,-21.87579484988451,2.1933786435604095
1772698644360266500,5.6672666015625,0.10250994188189506,-20.960662703216073,1.904426677134633
1772698644370223400,5.677223388671875,-0.01310731885433197,-20.052874489569664,1.8106993227757513
1772698644380180500,5.687180419921875,0.5468284111082553,-18.737017516207693,2.0649431100443003
1772698644390137300,5.697137451171875,1.0776561200082302,-16.706245848095417,2.799093835662305
1772698644400094200,5.70709423828125,1.0656231523871422,-13.874108697748184,3.9164357771098612
1772698644410051300,5.71705126953125,0.6708184364575892,-10.486149682497977,4.88309849679023
1772698644420008400,5.727008544921875,0.10727379528284073,-7.251580317017436,4.899890057115257
1772698644429965300,5.73696533203125,-0.8857833025872707,-4.249562400826812,3.9615827865645286
1772698644439922400,5.74692236328125,-2.0671265915632246,-1.261335109579563,2.361511688953638
1772698644449879300,5.75687939453125,-2.788606636178493,1.6776806992530822,0.627824074992165
1772698644459836400,5.76683642578125,-3.024927667135,4.448884949731826,-0.9473477783575653
1772698644469793300,5.776793212890625,-3.0784231104791164,6.794415810221433,-1.96558578697443
1772698644479750400,5.78675048828125,-2.748378670686483,8.815407258075474,-2.4106134273834523
1772698644489707500,5.79670751953125,-1.94546245187819,10.640030915176867,-2.57367998316735
1772698644499664400,5.806664306640625,-1.0512129342406988,11.946657118856907,-2.4267387788847086
1772698644509621500,5.81662158203125,-0.4564578198313713,12.966406993341446,-2.031734521795064
1772698644519577300,5.826577392578125,-0.13247662560045717,13.932631029343604,-1.698517881707102
1772698644529534500,5.836534423828125,0.22232933048307893,14.661368497741222,-1.6007956124931573
1772698644539491300,5.8464912109375,0.8613222305476665,14.971232903814315,-1.6496410380743443
1772698644549448400,5.856448486328125,1.6134177781790493,14.836007271766661,-1.5995787840493023
1772698644559405300,5.8664052734375,2.111544994482398,14.341964694428443,-1.5113465199753642
1772698644569362400,5.876362548828125,2.2576117540180682,13.656294798862934,-1.3443768192730843
1772698644579319600,5.886319580078125,2.084313288685679,12.55637540912032,-1.0978984783742576
1772698644589276400,5.8962763671875,1.6918752288222312,11.22804356958866,-0.9041347326401621
1772698644599233300,5.9062333984375,1.1851017647266386,10.003792866778372,-0.6818562555614859
1772698644609190400,5.9161904296875,0.9234627526402472,8.729873585435747,-0.4571256360903382
1772698644619147300,5.926147216796875,0.963600117239356,7.620242949017882,-0.253144045865722
1772698644629104400,5.9361044921875,1.122811605030298,6.724757167583704,-0.015843116476794237
1772698644639061500,5.9460615234375,1.0714257011860608,6.169059221321344,0.3545228282932192
1772698644649018400,5.956018310546875,0.912301307156682,6.0240399250119925,0.684047335864976
1772698644658975500,5.9659755859375,0.9101946902662515,6.175777131399512,0.8792813002821057
1772698644668931600,5.975931640625,1.1143863065123558,6.419664213696122,0.9723444916438311
1772698644678888400,5.985888427734375,1.4531652569025755,6.811269914388657,1.0155169861551374
1772698644688845300,5.99584521484375,1.7228256628811358,7.313121119651198,0.9483414655700325
1772698644698802400,6.005802490234375,1.8005284957647323,7.832028089132905,0.7974903213020413
1772698644708759300,6.01575927734375,1.5767407831668854,8.223990932700037,0.7233449617043137
1772698644718716700,6.025716552734375,0.9853203661382198,8.464806352466343,0.5988121347151696
1772698644728673500,6.035673583984375,0.7740659718990326,8.564450968044996,0.29540439396817236
1772698644738630700,6.045630615234375,0.9892173735767602,8.519004975643753,0.10546996073126792
1772698644748587500,6.05558740234375,1.1032184312880038,8.341956217867136,-0.0589744227444753
1772698644758544400,6.06554443359375,0.7048106493651867,7.92261962968409,-0.06280698664467782
1772698644768501500,6.07550146484375,0.15717731508221477,7.410211374571919,-0.022076588055863974
1772698644778458600,6.085458740234375,-0.05978899053037166,6.7626061289846895,-0.123384606802091
1772698644788415500,6.09541552734375,0.1752531065315008,5.718703225496411,-0.3059469403684139
1772698644798372600,6.10537255859375,0.643796500954032,4.310100748419761,-0.4228601591993123
1772698644808329500,6.11532958984375,0.9504776008158922,2.3842729713380337,-0.38118265248611566
1772698644818286600,6.12528662109375,1.3497282633036374,-0.18674889853596685,0.026256723284721374
1772698644828242400,6.135242431640625,2.1677835990548133,-3.698836397758126,0.7633894603881984
1772698644838199600,6.145199462890625,2.698426599037647,-7.698622658249735,1.6510586497873068
1772698644848156400,6.155156494140625,1.966661891773343,-11.358979980009794,2.545320734645426
1772698644858113500,6.165113525390625,0.2854366700475104,-13.816265580588578,2.9356857876271008
1772698644868070700,6.175070556640625,-1.0706500406384467,-15.472203234589099,2.7374358363896607
1772698644878027500,6.185027587890625,-1.4094178851127623,-16.84027671740055,2.1851646497055888
1772698644887984600,6.194984619140625,-0.8539636844784021,-17.456470341157914,1.2293833895236252
1772698644897941500,6.20494140625,0.46373570187985896,-18.056199152326585,0.1696936457734555
1772698644907898400,6.2148984375,1.0235206251949072,-19.526019191432,-0.3930851986605674
1772698644917855500,6.22485546875,-0.7224146951168775,-20.702893226039407,-0.4744274109598249
1772698644927812600,6.2348125,-3.891245806273818,-20.132378818917275,-0.7013157929867505
1772698644937769700,6.244769775390625,-5.771026702451706,-18.09220336264372,-0.9586452713109552
1772698644947726600,6.2547265625,-5.4428971563696855,-14.924551816660165,-1.0564456472624093
1772698644957683500,6.264683349609375,-3.4881998431563375,-11.265817712187767,-0.869856030941382
1772698644967640600,6.274640625,-0.7943161482453346,-7.903172586414217,-0.41912981356456874
1772698644977597400,6.284597412109375,1.3453379193902015,-4.921180974686146,-0.1502335238263011
1772698644987554600,6.294554443359375,2.3133447471559045,-2.582367439752817,-0.17689166751876473
1772698644997510400,6.304510498046875,2.4138427646934986,-0.7397136204421519,-0.5212106067815795
1772698645007467500,6.314467529296875,1.805924801850319,0.8221417282819747,-1.0900221189759671
1772698645017424600,6.324424560546875,0.9802245043039322,2.207054117691517,-1.5491905129402874
1772698645027381500,6.334381591796875,0.30671149500012396,3.338201589390635,-1.6386122790597377
1772698645037338400,6.34433837890625,-0.5062970787554979,3.742002170267701,-1.3778871669478714
1772698645047295500,6.35429541015625,-1.512122472783923,3.937022053542733,-1.2501070286005735
1772698645057252600,6.364252685546875,-2.469469374847412,4.347786628213525,-1.3267740886956452
1772698645067209500,6.37420947265625,-2.517767834070325,4.867269936278462,-1.4841599684946238
1772698645077166600,6.38416650390625,-1.6604378880292177,5.1653205704391,-1.4673529183395206
1772698645087123700,6.394123779296875,-0.5610170954585075,5.380796381765603,-1.231316111151874
1772698645097080600,6.40408056640625,0.071482944588596,5.498350163522362,-0.8223504025965929
1772698645107037400,6.414037353515625,-0.016743035875027998,5.511244131886959,-0.1999808666832745
1772698645116994600,6.42399462890625,-0.4518874431759119,5.477948011484742,0.416369116679579
1772698645126951400,6.433951416015625,-0.8153571827083825,5.162853888064623,0.8928227727700024
1772698645136908500,6.443908447265625,-0.8632482301741838,4.648997187709808,1.0307453157514332
1772698645146865700,6.45386572265625,-0.7913491151332854,4.208696721953153,0.9694907827131449
1772698645156821500,6.463821533203125,-0.5731804114609956,3.8590737214654682,0.7125371519640088
1772698645166778600,6.473778564453125,-0.24393033691644667,3.4642163255006073,0.38513171890545633
1772698645176735700,6.48373583984375,-0.1685784510731697,3.018582682022452,0.18300204015783963
1772698645186692400,6.4936923828125,-0.43608021771311756,2.701394216671586,0.08240679105715826
1772698645196649500,6.5036494140625,-0.593079290151596,2.5828841571033,-0.07428885972164571
1772698645206606600,6.513606689453125,-0.41302082916498184,2.396670680618286,-0.37479331677518785
1772698645216563500,6.5235634765625,-0.08498363754153251,1.9880624071985482,-0.7148748011313378
1772698645226520600,6.5335205078125,0.1449064470520243,1.3467758432388306,-0.8603313928794115
1772698645236477700,6.543477783203125,0.31997078954577446,0.6077361765354872,-0.8890383588604629
1772698645246434600,6.5534345703125,0.6032803661704063,-0.08231880224645137,-0.8622804811205714
1772698645256391400,6.563391357421875,1.088106202352047,-0.5933943474501371,-0.7571637908063829
1772698645266348500,6.5733486328125,1.5772726980865002,-0.8515595459461212,-0.5152187094230205
1772698645276305400,6.583305419921875,2.0002514421641826,-0.909953282725811,-0.05775613299589604
1772698645286262500,6.593262451171875,2.1951462377548214,-0.9576964461535215,0.3877985269619152
1772698645296219600,6.6032197265625,2.0373872868597505,-1.0901473527908325,0.6261571646932512
1772698645306176500,6.613176513671875,1.5789911924421787,-1.3488275150716305,0.6694220136631279
1772698645316132600,6.623132568359375,0.8625906430482864,-1.6461036577284336,0.5611584036253392
1772698645326089700,6.63308984375,-0.1725017802630551,-1.9620593664139507,0.38643180518597364
1772698645336046300,6.64304638671875,-1.2922878817260264,-2.1408920849978923,0.16487440892346203
1772698645346003500,6.65300341796875,-2.274108130788803,-1.9583564202427863,0.05666757057420909
1772698645355960600,6.662960693359375,-2.9290970568865538,-1.3347013745635747,0.08236161847487092
1772698645365917400,6.67291748046875,-3.0156320155233143,-0.43394262116253374,0.14188202119693158
1772698645375874600,6.68287451171875,-2.4171307003229856,0.614745178514719,0.2930182660166174
1772698645385831700,6.692831787109375,-1.5061042354077099,1.5329408044070005,0.5750278294259682
1772698645395788500,6.70278857421875,-0.5332639961361885,2.4304724124550816,0.8592220433980226
1772698645405745400,6.712745361328125,0.3665764733761549,3.1083985620260237,0.9868836699321866
1772698645415702500,6.72270263671875,0.8806488623082638,3.4944103882342574,1.0630594393789767
1772698645425659600,6.73265966796875,0.6112158353447914,3.3815380422919987,1.1236882417343557
1772698645435616500,6.742616455078125,-0.13632864311980084,2.9342747517853973,1.1074524155959486
1772698645445573600,6.75257373046875,-0.8631389245808124,2.2577269048303363,0.8193265247307717
1772698645455530800,6.76253076171875,-1.1537632081329823,1.38133511544466,-0.7231929860129952
1772698645465487400,6.7724873046875,-1.1524100399583577,0.653473845359683,-2.9160569580495355
1772698645475444500,6.782444580078125,-0.36208150004446504,0.39162557443678375,-3.7179537706822154
1772698645485401600,6.792401611328125,0.20218729068636893,0.7292921796709299,-3.6880092987954614
1772698645495357400,6.802357421875,0.038756139373779294,0.9793956522643565,-3.240987123568356
1772698645505314600,6.812314453125,0.05663958658874035,1.0047282464414835,-0.45079358352459964
1772698645515271400,6.822271484375,1.6950906837373971,0.39087154119908807,1.2835226837292313
1772698645525228500,6.832228515625,3.3576772742331027,-0.3905044614523649,2.4749463449537754
1772698645535185700,6.842185546875,1.509049056687951,-1.2543226004689931,0.7568805168855934
1772698645545142500,6.852142578125,-0.9838865339428186,-2.8473464099168777,-0.13761997983828186
1772698645555099400,6.862099365234375,-1.4921622192949056,-3.7470980321019884,0.20807079576700924
1772698645565056500,6.872056396484375,-0.30120354523360726,-3.4213632722020146,0.6467696715459227
1772698645575013600,6.882013671875,-0.35732411291692406,-2.3068086233854292,1.0825944531932472
1772698645584970500,6.891970458984375,-0.8063152135968208,-1.7320599396944045,1.3937335553772747
1772698645594927600,6.901927734375,-0.9403466674238443,-1.6799048050433396,1.5120689890310168
1772698645604884700,6.911884765625,-0.7635171053558587,-1.2313380307227373,1.296301355151087
1772698645614841300,6.92184130859375,-0.13467851955890656,-0.32290801204144953,0.7746447947002947
1772698645624798500,6.931798583984375,0.09016016339659691,0.4823509705007076,0.3791594395628199
1772698645634755600,6.941755615234375,0.25884149032235143,1.0497896234393118,0.02543309540953487
1772698645644712400,6.95171240234375,0.6082429570138455,1.743433566623926,-0.47122514431979506
1772698645654669600,6.961669677734375,0.2734475233018398,1.7552730574995279,-0.08859306021034717
1772698645664625700,6.971625732421875,-0.12497779427766799,1.2087334002047776,0.13931931283576413
1772698645674582500,6.98158251953125,1.0302058020472527,2.0056810659974813,-1.5662744803406297
1772698645684539600,6.99153955078125,1.1022925486147404,1.3471189575880764,-2.096312792428583
1772698645694496500,7.00149658203125,1.1422703387379645,0.6144540866136551,-1.891221304733306
1772698645704453400,7.011453369140625,0.7330044781923294,0.1193354044765234,-0.49857097801547495
1772698645714410200,7.02141015625,0.5024164379298687,-0.4832394437730312,0.17133918449077754
1772698645724367400,7.031367431640625,0.3118073568344116,-1.4479559978216885,0.04722676117105875
1772698645734324500,7.041324462890625,0.3853250495204702,-2.8958436065822837,-0.16568477545827626
1772698645744281300,7.05128125,0.7824106063961982,-2.3853514142245054,-1.1465139676570892
1772698645754238500,7.061238525390625,0.6622820057153701,-2.02095754558444,-1.1825071451235563
1772698645764195300,7.0711953125,0.5009469498991966,-1.6619745960772037,-1.0420742998216301
1772698645774152200,7.081152099609375,0.2880453912411816,-1.1964905892252922,-0.48014122202936554
1772698645784109300,7.091109375,0.08556465229988097,-0.7381260589897632,0.12003562516774982
1772698645794066400,7.10106640625,-0.048371524459123606,-0.3651145841300487,0.3676878686841577
1772698645804023300,7.111023193359375,-0.18231939165592193,-0.09008885172605514,0.4962403796434402
1772698645813980400,7.12098046875,-0.27591479019820686,0.08103986835181713,0.5793736035453155
1772698645823937500,7.1309375,-0.285181800237298,0.24713877756893635,0.5646191385384649
1772698645833894400,7.140894287109375,-0.3958721259653568,0.3537771975576877,0.393839560691826
1772698645843850500,7.1508505859375,-0.5484639033555985,0.5214280123919248,0.3214564249936491
1772698645853807400,7.160807373046875,-0.763320706000924,0.8840607165783643,0.45748146379068494
1772698645863764200,7.17076416015625,-1.0330407332122324,0.8945791879832744,0.7762287028908729
1772698645873721300,7.180721435546875,-0.7537766325861215,0.8642951088786125,0.47563101459592577
1772698645883678500,7.190678466796875,-0.7079904484450816,0.7748714430630207,0.32925610242653636
1772698645893635300,7.20063525390625,-0.6474409949362278,0.5651695389628411,0.26559759525274856
1772698645903592400,7.210592529296875,-0.6264484027247875,0.45524435238838196,0.09454752076850272
1772698645913549300,7.22054931640625,-0.5609148041278124,0.434096934941411,-0.14154749201294034
1772698645923506200,7.230506103515625,-0.4064513876467943,0.4705845448613167,-0.3028780543170869
1772698645933463300,7.24046337890625,-0.25503216116726396,0.42021161745190616,-0.3427740479083732
1772698645943420400,7.25042041015625,-0.22119236234240233,0.33528117140233515,-0.3632013343872502
1772698645953377500,7.26037744140625,-0.21127302587442098,0.28734453122913833,-0.4356673991285264
1772698645963334400,7.27033447265625,-0.18476335074193775,0.3329413302779197,-0.4077853761969134
1772698645973291500,7.28029150390625,-0.18726846543066203,0.2777706471979618,-0.23537494574543089
1772698645983248400,7.290248291015625,-0.16629413952827451,0.009054244071245193,-0.2147704212698154
1772698645993205200,7.300205322265625,-0.12691482675485313,-0.1722521711498499,-0.13323689678269438
1772698646003162400,7.310162353515625,0.004781389057636261,0.10214403117895125,0.05884696043990552
1772698646013118200,7.3201181640625,0.026509236741065978,0.22950667476654052,0.015540263355989008
1772698646023075300,7.330075439453125,0.04578494203202426,0.2307365088224411,-0.0999171854423359
1772698646033032400,7.340032470703125,0.09245850346684455,0.25470658247470856,-0.14013635570653712
1772698646042989300,7.3499892578125,0.13708916089721024,0.34133331104815007,-0.1863455053668469
1772698646052946400,7.359946533203125,0.17649642112348227,0.4482575622409582,-0.2128858313659206
1772698646062903300,7.3699033203125,0.17976269291043281,0.5745458545953035,-0.23919227554388342
1772698646072860400,7.3798603515625,0.2389192307561636,0.6889782894611358,-0.23578891510749234
1772698646082817300,7.3898173828125,0.2449351300448179,0.7456237212687731,-0.12526225550854578
1772698646092774400,7.3997744140625,0.28657361992187796,0.7618629084080457,-0.10542832267978228
1772698646102731500,7.4097314453125,0.2764169675666839,0.5893365964919328,0.007109147018613294
1772698646112688400,7.4196884765625,0.23769531498439608,0.2733347105771303,0.035926094446470956
1772698646122645500,7.4296455078125,0.18698504537940025,0.08289572535157202,0.15300406625187024
1772698646132602400,7.439602294921875,0.1705039027104154,-0.043991117417812343,0.31510698290169237
1772698646142559200,7.449559326171875,0.13859722737260163,-0.2737964828699827,0.3710281190227717
1772698646152516400,7.459516357421875,0.13380232124626637,-0.44853287205100056,0.3954751990696415
1772698646162473500,7.469473388671875,0.13171966975331306,-0.4993032743453979,0.44796628767680374
1772698646172430300,7.479430419921875,0.21624390962217002,-0.4214601562082767,0.3910128858985379
1772698646182387500,7.489387451171875,0.1692191235968843,-0.34049218404889103,0.2744660892272368
1772698646192343600,7.499343505859375,0.22153149463627486,-0.23553894066810607,0.10397899152114987
1772698646202300400,7.509300537109375,0.3030143940478563,-0.07507949864268303,0.03339154360070824
1772698646212257300,7.51925732421875,0.37156471011750397,0.00697217710018158,0.030562329790461806
1772698646222214400,7.52921435546875,0.29590010506324466,-0.11463584848344326,0.011039371740166098
1772698646232171300,7.539171142578125,0.2271720943391323,-0.3461100239306688,-0.039038956636842335
1772698646242128400,7.54912841796875,0.2456143444806337,-0.6873831292241811,-0.06395644894074648
1772698646252085500,7.55908544921875,0.2783663480687886,-0.8102215733855962,-0.03788222434977069
1772698646262042400,7.56904248046875,0.24324754228405654,-0.6131611241936683,0.1294609401742462
1772698646271999200,7.578999267578125,0.1397526810180396,-0.3587017944782972,0.3057660308435559
1772698646281956400,7.588956298828125,0.11002565127424895,-0.3147796506434679,0.3425200366146862
1772698646291913200,7.598913330078125,0.11960245791487395,-0.32921266514360903,0.2845062390632927
1772698646301870300,7.608870361328125,0.18237543269209563,-0.04419979173243046,0.17541549401897935
