time,seconds_elapsed,z,y,x
1772698638774429400,0.081429443359375,0.3221650719642639,-0.03822779282927513,0.13286404311656952
1772698638784386000,0.091385986328125,0.3467113673686981,-0.03331531956791878,0.10072129219770432
1772698638794343200,0.10134326171875,0.36093345284461975,-0.007701834663748741,0.12634490430355072
1772698638804300300,0.11130029296875,0.3005191683769226,0.01702800765633583,0.2714485228061676
1772698638814257200,0.121257080078125,0.2295919954776764,0.0790298581123352,0.39055466651916504
1772698638824214300,0.13121435546875,0.1765700876712799,0.10331069678068161,0.4402443468570709
1772698638834171400,0.14117138671875,0.15153157711029053,0.10858508944511414,0.43458008766174316
1772698638844128300,0.151128173828125,0.1500835418701172,0.0738726556301117,0.3861112892627716
1772698638854085000,0.161085205078125,0.17475426197052002,0.04145239293575287,0.30234020948410034
1772698638864041200,0.171041259765625,0.20064528286457062,0.03284931927919388,0.18581929802894592
1772698638873998000,0.180998046875,0.20758947730064392,0.03399554267525673,0.056769970804452896
1772698638883955200,0.190955078125,0.18954181671142578,0.05249758064746857,-0.06753899157047272
1772698638893912300,0.200912353515625,0.15677161514759064,0.07490915060043335,-0.1681271195411682
1772698638903869200,0.210869140625,0.127053901553154,0.09140557050704956,-0.2479853332042694
1772698638913826300,0.220826416015625,0.10541731864213943,0.09844004362821579,-0.2975670099258423
1772698638923783400,0.230783447265625,0.09590955078601837,0.10050798952579498,-0.31792375445365906
1772698638933740000,0.240739990234375,0.09230869263410568,0.10959842056035995,-0.31474578380584717
1772698638943697200,0.250697265625,0.07710070163011551,0.12678833305835724,-0.27368786931037903
1772698638953654300,0.260654296875,0.03317771852016449,0.1645258516073227,-0.19357651472091675
1772698638963611400,0.270611328125,-0.025452904403209686,0.157907634973526,-0.10086282342672348
1772698638973568300,0.280568359375,-0.05086665228009224,0.12077970802783966,-0.07994768768548965
1772698638983525400,0.290525390625,-0.013520028442144394,0.05380040779709816,-0.11795584857463837
1772698638993482200,0.300482177734375,0.05298123136162758,-0.013306458480656147,-0.17659012973308563
1772698639003438300,0.310438232421875,0.11055238544940948,-0.06497205048799515,-0.2196158766746521
1772698639013395200,0.320395263671875,0.12434037774801254,-0.09680667519569397,-0.21347036957740784
1772698639023352000,0.33035205078125,0.10302973538637161,-0.10887105762958527,-0.163503959774971
1772698639033309200,0.34030908203125,0.06365276873111725,-0.0975174754858017,-0.08370847254991531
1772698639043266300,0.350266357421875,0.005085608456283808,-0.08657587319612503,-0.008254945278167725
1772698639053223200,0.36022314453125,-0.05088098719716072,-0.07122674584388733,0.06502912193536758
1772698639063180300,0.37018017578125,-0.1015176773071289,-0.05898234620690346,0.11532101780176163
1772698639073137400,0.380137451171875,-0.1398158073425293,-0.0728939026594162,0.15441009402275085
1772698639083094300,0.39009423828125,-0.13041676580905914,-0.10700632631778717,0.22674579918384552
1772698639093051100,0.400051025390625,-0.08322609215974808,-0.11445412039756775,0.30965641140937805
1772698639103008300,0.41000830078125,-0.030497174710035324,-0.10000060498714447,0.36601948738098145
1772698639112965400,0.41996533203125,0.02524198777973652,-0.06323699653148651,0.38088953495025635
1772698639122922200,0.429922119140625,0.10462693870067596,-0.03371214121580124,0.34750568866729736
1772698639132878300,0.43987841796875,0.21224874258041382,-0.025988971814513206,0.2821810245513916
1772698639142835200,0.449835205078125,0.28325629234313965,-0.04625562205910683,0.17935213446617126
1772698639152792300,0.459792236328125,0.25754666328430176,-0.06952765583992004,0.04204169660806656
1772698639162749200,0.469749267578125,0.10465194284915924,-0.0697212666273117,-0.07886948436498642
1772698639172706300,0.479706298828125,-0.1360621303319931,-0.01300685852766037,-0.13759110867977142
1772698639182663200,0.4896630859375,-0.30264076590538025,0.06124607101082802,-0.12630966305732727
1772698639192620300,0.499620361328125,-0.29707157611846924,0.060817304998636246,-0.0986442044377327
1772698639202577400,0.509577392578125,-0.2082362174987793,0.029077213257551193,-0.11083147674798965
1772698639212534300,0.5195341796875,-0.15850886702537537,0.004020596854388714,-0.1161724403500557
1772698639222491400,0.529491455078125,-0.11425088346004486,-0.011142907664179802,-0.1287091076374054
1772698639232448300,0.5394482421875,-0.04863645136356354,-0.04940587282180786,-0.13974469900131226
1772698639242405000,0.549405029296875,0.0372680202126503,-0.10976561903953552,-0.15009340643882751
1772698639252362200,0.5593623046875,0.06467993557453156,-0.1164991557598114,-0.11990968137979507
1772698639262319400,0.5693193359375,0.010647887364029884,-0.07197163254022598,-0.062533900141716
1772698639272275200,0.579275146484375,-0.06230727955698967,-0.005168636329472065,-0.0023248849902302027
1772698639282232300,0.589232421875,-0.11883365362882614,0.07845435291528702,0.038005582988262177
1772698639292189400,0.599189453125,-0.14930234849452972,0.15232351422309875,0.071659155189991
1772698639302146300,0.609146240234375,-0.16439345479011536,0.1875763237476349,0.10061556100845337
1772698639312103200,0.619103271484375,-0.1555940955877304,0.18706445395946503,0.13407500088214874
1772698639322060300,0.629060302734375,-0.13011051714420319,0.17804992198944092,0.1265733540058136
1772698639332017200,0.63901708984375,-0.10105862468481064,0.16150636970996857,0.11125805228948593
1772698639341974300,0.648974365234375,-0.07252585887908936,0.12147799134254456,0.10089696943759918
1772698639351931400,0.658931396484375,-0.04639625921845436,0.09525837004184723,0.10104717314243317
1772698639361888300,0.66888818359375,-0.04358842968940735,0.049740951508283615,0.10366395860910416
1772698639371845000,0.67884521484375,-0.08507994562387466,-0.017290282994508743,0.10517743229866028
1772698639381802200,0.68880224609375,-0.14389020204544067,-0.0363614521920681,0.10497026145458221
1772698639391759000,0.698759033203125,-0.20399855077266693,-0.01661491207778454,0.09195326268672943
1772698639401716200,0.70871630859375,-0.2436182051897049,-0.004518028814345598,0.09486913681030273
1772698639411672300,0.71867236328125,-0.22556409239768982,0.012831399217247963,0.081064373254776
1772698639421629200,0.728629150390625,-0.16146676242351532,0.010846003890037537,0.0765528529882431
1772698639431586300,0.73858642578125,-0.08303454518318176,-0.013975722715258598,0.0489254891872406
1772698639441543400,0.74854345703125,-0.01699281670153141,0.02925458550453186,0.05306584760546684
1772698639451500300,0.758500244140625,0.05095773562788963,-0.020968370139598846,0.0486772246658802
1772698639461457200,0.76845703125,0.18045075237751007,-0.11193688958883286,-0.012104079127311707
1772698639471414300,0.778414306640625,0.2612646520137787,-0.11076217144727707,0.13397322595119476
1772698639481371100,0.78837109375,0.2707899808883667,-0.0575101338326931,0.13686354458332062
1772698639491328300,0.798328369140625,0.24993103742599487,-0.07072900235652924,0.11448047310113907
1772698639501285400,0.808285400390625,0.1864064633846283,-0.08630210906267166,0.057395175099372864
1772698639511242200,0.8182421875,0.11418499797582626,-0.09104599803686142,-0.0031440681777894497
1772698639521199000,0.82819921875,0.04894499480724335,-0.08822064846754074,-0.035801924765110016
1772698639531156200,0.83815625,0.0011756091844290495,-0.07043792307376862,-0.03636625036597252
1772698639541113000,0.848113037109375,-0.01366754062473774,-0.09384950995445251,0.006826670374721289
1772698639551069200,0.858069091796875,-0.011704524978995323,-0.14841687679290771,0.07414445281028748
1772698639561026300,0.8680263671875,-0.004303105175495148,-0.173631951212883,0.13458234071731567
1772698639570983200,0.877983154296875,-0.002749416744336486,-0.1915145367383957,0.19787955284118652
1772698639580940300,0.887940185546875,-0.006837885826826096,-0.22444932162761688,0.25795015692710876
1772698639590897400,0.8978974609375,0.0032062267418950796,-0.25936710834503174,0.3114205598831177
1772698639600854300,0.907854248046875,0.049867186695337296,-0.2843816578388214,0.37659311294555664
1772698639610811100,0.91781103515625,0.11274655163288116,-0.31683865189552307,0.43575790524482727
1772698639620768300,0.927768310546875,0.1488812118768692,-0.3485638201236725,0.46895885467529297
1772698639630725000,0.93772509765625,0.10173153877258301,-0.30306291580200195,0.4716430604457855
1772698639640682200,0.94768212890625,-0.02966655232012272,-0.21382303535938263,0.44867223501205444
1772698639650639400,0.957639404296875,-0.18139110505580902,-0.12810814380645752,0.41380345821380615
1772698639660596200,0.96759619140625,-0.3036642074584961,-0.08016485720872879,0.3402113616466522
1772698639670553000,0.977552978515625,-0.3737647235393524,-0.13368798792362213,0.2439117282629013
1772698639680510200,0.98751025390625,-0.3802679181098938,-0.1739715039730072,0.14361904561519623
1772698639690466000,0.997466064453125,-0.34923890233039856,-0.21275831758975983,0.0671868547797203
1772698639700423200,1.007423095703125,-0.2884495258331299,-0.31054720282554626,0.007966175675392151
1772698639710387500,1.017387451171875,-0.20909611880779266,-0.4279443919658661,-0.03775843605399132
1772698639720344600,1.027344482421875,-0.1285744160413742,-0.4776991903781891,-0.06186370924115181
1772698639730301700,1.0373017578125,-0.08986110985279083,-0.46419695019721985,-0.051070716232061386
1772698639740258600,1.047258544921875,-0.10198144614696503,-0.39769062399864197,-0.0024244417436420918
1772698639750215400,1.05721533203125,-0.14665357768535614,-0.27973949909210205,0.05608707293868065
1772698639760172500,1.067172607421875,-0.22065113484859467,-0.20029817521572113,0.11937618255615234
1772698639770129400,1.07712939453125,-0.30429303646087646,-0.13280275464057922,0.1657700389623642
1772698639780086500,1.08708642578125,-0.34463638067245483,-0.1046353131532669,0.19493892788887024
1772698639790043600,1.097043701171875,-0.33750948309898376,-0.12941868603229523,0.2207755744457245
1772698639800000500,1.10700048828125,-0.299437552690506,-0.1580234318971634,0.24094678461551666
1772698639809957600,1.11695751953125,-0.26259058713912964,-0.171390101313591,0.2682550847530365
1772698639819914500,1.12691455078125,-0.2482350617647171,-0.18910332024097443,0.3097691833972931
1772698639829870300,1.136870361328125,-0.24541211128234863,-0.18648196756839752,0.33128777146339417
1772698639839827500,1.146827392578125,-0.20502793788909912,-0.19420060515403748,0.339252233505249
1772698639849784600,1.15678466796875,-0.12362787872552872,-0.17978784441947937,0.35432758927345276
1772698639859741400,1.166741455078125,-0.056069113314151764,-0.11715908348560333,0.39362847805023193
1772698639869698600,1.176698486328125,0.0010082870721817017,-0.02808300405740738,0.49966248869895935
1772698639879655700,1.18665576171875,0.05521645396947861,0.09681098908185959,0.6044741272926331
1772698639889612500,1.196612548828125,0.1290864199399948,0.21687188744544983,0.654238760471344
1772698639899569400,1.2065693359375,0.21166756749153137,0.2714115381240845,0.6752246022224426
1772698639909526500,1.216526611328125,0.3062523901462555,0.2734203636646271,0.614376425743103
1772698639919483400,1.2264833984375,0.3754572570323944,0.23212593793869019,0.4071762263774872
1772698639929440500,1.2364404296875,0.4682590961456299,0.18832919001579285,0.08441708981990814
1772698639939397600,1.246397705078125,0.5919261574745178,0.11368265002965927,-0.19802355766296387
1772698639949354800,1.256354736328125,0.6960158348083496,0.08786463737487793,-0.26756027340888977
1772698639959311400,1.266311279296875,0.7251484394073486,0.10259298235177994,-0.16662462055683136
1772698639969267700,1.276267822265625,0.6425400972366333,0.11823319643735886,-0.06119272857904434
1772698639979224300,1.286224365234375,0.4414149522781372,0.0942719355225563,-0.03774958848953247
1772698639989181400,1.296181396484375,0.20413050055503845,-0.013910993002355099,-0.0637577548623085
1772698639999138600,1.306138671875,-0.02506321296095848,-0.1751696616411209,-0.15251614153385162
1772698640009095400,1.316095458984375,-0.24162374436855316,-0.32078438997268677,-0.2903006374835968
1772698640019052500,1.326052490234375,-0.4325803816318512,-0.42066091299057007,-0.453019380569458
1772698640029009700,1.336009765625,-0.5264847874641418,-0.48186036944389343,-0.6634011268615723
1772698640038966500,1.345966552734375,-0.4883783757686615,-0.5186090469360352,-0.8962706327438354
1772698640048923400,1.35592333984375,-0.3216647803783417,-0.5976386070251465,-1.0696648359298706
1772698640058880500,1.365880615234375,-0.1265333592891693,-0.6919296979904175,-1.1243336200714111
1772698640068837600,1.375837646484375,-0.06748948246240616,-0.7337104678153992,-1.0593106746673584
1772698640078794500,1.38579443359375,-0.2331240028142929,-0.6999024152755737,-0.9420685768127441
1772698640088751600,1.395751708984375,-0.5326206684112549,-0.6243027448654175,-0.825066864490509
1772698640098708700,1.405708740234375,-0.831169605255127,-0.5353606343269348,-0.7449855208396912
1772698640108664600,1.41566455078125,-1.0618023872375488,-0.4422224164009094,-0.6981450319290161
1772698640118621700,1.42562158203125,-1.2270623445510864,-0.3314706087112427,-0.6935487985610962
1772698640128578300,1.435578369140625,-1.3272826671600342,-0.24167786538600922,-0.7319158911705017
1772698640138535400,1.445535400390625,-1.3453232049942017,-0.16852480173110962,-0.7737840414047241
1772698640148492500,1.455492431640625,-1.2873938083648682,-0.10777516663074493,-0.7286746501922607
1772698640158449700,1.46544970703125,-1.171512484550476,-0.06507671624422073,-0.6254792213439941
1772698640168406500,1.475406494140625,-1.0152525901794434,-0.03916442021727562,-0.5158318281173706
1772698640178363600,1.48536376953125,-0.7842720746994019,-0.04144515469670296,-0.3953076899051666
1772698640188320500,1.495320556640625,-0.5085715651512146,-0.05794157460331917,-0.2625192701816559
1772698640198277400,1.50527734375,-0.2773454785346985,-0.047167759388685226,-0.1349465250968933
1772698640208234500,1.515234375,-0.14766578376293182,-0.0305246002972126,-0.012748712673783302
1772698640218191600,1.525191650390625,-0.10347355902194977,-0.003945453092455864,0.09363067895174026
1772698640228148500,1.5351484375,-0.11448919028043747,0.018866918981075287,0.16287100315093994
1772698640238105600,1.545105712890625,-0.18469390273094177,0.016162216663360596,0.1907447725534439
1772698640248061700,1.555061767578125,-0.2826979458332062,-0.014215130358934402,0.21896469593048096
1772698640258018600,1.5650185546875,-0.4032134711742401,-0.06488176435232162,0.2719825208187103
1772698640267975700,1.5749755859375,-0.5101865530014038,-0.12896540760993958,0.312204509973526
1772698640277932500,1.5849326171875,-0.5696730017662048,-0.21005013585090637,0.33808374404907227
1772698640287889400,1.594889404296875,-0.5141095519065857,-0.298351526260376,0.35554447770118713
1772698640297846500,1.604846435546875,-0.38210707902908325,-0.3468223810195923,0.3395690321922302
1772698640307803600,1.6148037109375,-0.22672386467456818,-0.33933916687965393,0.276370108127594
1772698640317760500,1.624760498046875,-0.10480757057666779,-0.25546902418136597,0.17207661271095276
1772698640327717600,1.634717529296875,-0.018685469403862953,-0.1394484043121338,0.0743870660662651
1772698640337674500,1.644674560546875,0.0855315625667572,-0.04932732135057449,-0.014017816632986069
1772698640347631400,1.65463134765625,0.25950387120246887,-0.02120247669517994,-0.06682324409484863
1772698640357588500,1.66458837890625,0.4574986696243286,-0.03417632356286049,-0.06647282093763351
1772698640367545600,1.674545654296875,0.6080812215805054,-0.0497606098651886,-0.026379995048046112
1772698640377501400,1.68450146484375,0.6710732579231262,-0.058517616242170334,0.02295752801001072
1772698640387458600,1.69445849609375,0.6468648314476013,-0.07711633294820786,0.08310528844594955
1772698640397415700,1.704415771484375,0.5775041580200195,-0.11446823179721832,0.13295131921768188
1772698640407372500,1.71437255859375,0.48511457443237305,-0.152751162648201,0.19375234842300415
1772698640417329700,1.72432958984375,0.3643876016139984,-0.16788645088672638,0.26102960109710693
1772698640427286500,1.73428662109375,0.253357470035553,-0.1629931479692459,0.3753524422645569
1772698640437243400,1.744243408203125,0.19529154896736145,-0.14322610199451447,0.5248703956604004
1772698640447200500,1.754200439453125,0.20666217803955078,-0.1251823902130127,0.6741594672203064
1772698640457157600,1.76415771484375,0.2145293951034546,-0.09490145742893219,0.7718960642814636
1772698640467114500,1.774114501953125,0.17496973276138306,-0.03431613743305206,0.8413510322570801
1772698640477071600,1.784071533203125,0.10371924936771393,0.031796038150787354,0.8676558136940002
1772698640487028500,1.794028564453125,0.05426780506968498,0.09463146328926086,0.8378190994262695
1772698640496985300,1.8039853515625,0.08307097107172012,0.1843419075012207,0.7717096209526062
1772698640506942500,1.8139423828125,0.2256113439798355,0.28122448921203613,0.6948558688163757
1772698640516898600,1.823898681640625,0.39722734689712524,0.3908223509788513,0.5741605162620544
1772698640526855400,1.83385546875,0.5839820504188538,0.4952124357223511,0.38912034034729004
1772698640536812500,1.8438125,0.820837140083313,0.5226648449897766,0.13146378099918365
1772698640546769700,1.853769775390625,1.046179175376892,0.4652784764766693,-0.10168717801570892
1772698640556726500,1.8637265625,1.2139098644256592,0.40568599104881287,-0.19571296870708466
1772698640566683600,1.87368359375,1.2581210136413574,0.3134562075138092,-0.08906082063913345
1772698640576640500,1.883640625,1.1666499376296997,0.15595793724060059,0.06494855880737305
1772698640586597400,1.893597412109375,0.903079092502594,-0.05204853042960167,0.07467522472143173
1772698640596554500,1.903554443359375,0.5271693468093872,-0.21961142122745514,-0.035176508128643036
1772698640606511600,1.91351171875,0.13908736407756805,-0.2803634703159332,-0.06018359214067459
1772698640616468500,1.923468505859375,-0.16041038930416107,-0.19257394969463348,0.057312946766614914
1772698640626425600,1.933425537109375,-0.2825850546360016,-0.017702804878354073,0.22177539765834808
1772698640636382500,1.943382568359375,-0.15868918597698212,0.13325555622577667,0.3180044889450073
1772698640646339600,1.953339599609375,0.16535839438438416,0.22099632024765015,0.3022950291633606
1772698640656295400,1.96329541015625,0.5597890019416809,0.2518423795700073,0.1683909296989441
1772698640666252500,1.97325244140625,0.9344537258148193,0.21647082269191742,-0.02345467172563076
1772698640676209400,1.98320947265625,1.1907182931900024,0.14364375174045563,-0.16235069930553436
1772698640686166500,1.99316650390625,1.2750790119171143,0.055995117872953415,-0.22488971054553986
1772698640696123600,2.00312353515625,1.177456021308899,-0.03933273255825043,-0.24462346732616425
1772698640706080500,2.01308056640625,0.9317237734794617,-0.1414058357477188,-0.2686004340648651
1772698640716030200,2.0230302734375,0.6111816763877869,-0.241999551653862,-0.2803680896759033
1772698640725987000,2.032987060546875,0.2744627892971039,-0.33903369307518005,-0.29828450083732605
1772698640735944000,2.04294384765625,-0.034299056977033615,-0.414346307516098,-0.3130975663661957
1772698640745901000,2.052901123046875,-0.2788392901420593,-0.4735153615474701,-0.33313891291618347
1772698640755858200,2.062858154296875,-0.4494381844997406,-0.5170753598213196,-0.371650755405426
1772698640765815000,2.07281494140625,-0.49860092997550964,-0.5609485507011414,-0.37786364555358887
1772698640775772200,2.082772216796875,-0.4364115595817566,-0.6009353399276733,-0.3196687400341034
1772698640785729300,2.092729248046875,-0.34064429998397827,-0.6184791922569275,-0.24482832849025726
1772698640795685000,2.10268505859375,-0.30633145570755005,-0.5788660049438477,-0.2087668925523758
1772698640805642200,2.112642333984375,-0.3353881239891052,-0.5356101393699646,-0.1394978016614914
1772698640815599000,2.12259912109375,-0.3552919626235962,-0.5191715359687805,-0.030573120340704918
1772698640825556000,2.132555908203125,-0.3509520888328552,-0.5052562355995178,0.08862198144197464
1772698640835513000,2.14251318359375,-0.3741024434566498,-0.465043306350708,0.22585879266262054
1772698640845470200,2.15247021484375,-0.4212028384208679,-0.3807326853275299,0.34107327461242676
1772698640855427000,2.162427001953125,-0.4248388707637787,-0.2935551702976227,0.382385790348053
1772698640865384200,2.17238427734375,-0.33319365978240967,-0.24647553265094757,0.32902029156684875
1772698640875341000,2.182341064453125,-0.12499994039535522,-0.23562687635421753,0.26786139607429504
1772698640885298000,2.1922978515625,0.09144847840070724,-0.2069837749004364,0.2539181411266327
1772698640895255000,2.202255126953125,0.21864672005176544,-0.14533933997154236,0.28208914399147034
1772698640905212200,2.212212158203125,0.2419794648885727,-0.07486677169799805,0.29503104090690613
1772698640915169300,2.222169189453125,0.20037101209163666,-0.04370591416954994,0.2830921709537506
1772698640925125000,2.232125,0.11678583174943924,-0.04202066361904144,0.2732882797718048
1772698640935082200,2.242082275390625,0.00886837299913168,-0.0586550310254097,0.32043564319610596
1772698640945039000,2.2520390625,-0.10301581770181656,-0.07769423723220825,0.4122457206249237
1772698640954996200,2.261996337890625,-0.19160853326320648,-0.11153822392225266,0.5014390349388123
1772698640964953000,2.271953125,-0.2513043284416199,-0.1535612940788269,0.5322784185409546
1772698640974910000,2.281909912109375,-0.32011884450912476,-0.19928617775440216,0.541003406047821
1772698640984867000,2.2918671875,-0.41908562183380127,-0.2001868635416031,0.5548385381698608
1772698640994824200,2.30182421875,-0.6407862901687622,-0.17064760625362396,0.5354090332984924
1772698641004781000,2.311781005859375,-0.9166831374168396,-0.12334534525871277,0.46945294737815857
1772698641014738200,2.32173828125,-1.1023118495941162,-0.04908496513962746,0.35729876160621643
1772698641024695000,2.331695068359375,-1.0811301469802856,0.03904489427804947,0.20101380348205566
1772698641034652200,2.341652099609375,-0.7984696626663208,0.13096018135547638,-0.0011252390686422586
1772698641044609000,2.351609130859375,-0.26051753759384155,0.18782159686088562,-0.1885734349489212
1772698641054566100,2.361566162109375,0.3874356150627136,0.18004250526428223,-0.3492775559425354
1772698641064522000,2.37152197265625,0.8876630067825317,0.1330970972776413,-0.4987109899520874
1772698641074479000,2.38147900390625,0.9769021272659302,0.04983415827155113,-0.5645033121109009
1772698641084436200,2.391436279296875,0.6135513782501221,-0.0916161835193634,-0.49781516194343567
1772698641094393000,2.40139306640625,-0.013384239748120308,-0.27380356192588806,-0.33636850118637085
1772698641104350200,2.41135009765625,-0.6575746536254883,-0.451412171125412,-0.14142242074012756
1772698641114307000,2.42130712890625,-1.1404978036880493,-0.5687825083732605,-0.00130933104082942
1772698641124264200,2.43126416015625,-1.371384620666504,-0.564870297908783,0.03833688050508499
1772698641134221000,2.441220947265625,-1.2225441932678223,-0.42138877511024475,0.005970288533717394
1772698641144178200,2.45117822265625,-0.7246993184089661,-0.17756623029708862,-0.08534736931324005
1772698641154135300,2.46113525390625,-0.041489601135253906,0.062069255858659744,-0.2576138377189636
1772698641164092200,2.471092041015625,0.648670494556427,0.24308378994464874,-0.4903078079223633
1772698641174049000,2.481049072265625,1.2021211385726929,0.3394390642642975,-0.7062050700187683
1772698641184006100,2.491006103515625,1.492905616760254,0.3519388735294342,-0.8368381857872009
1772698641193963000,2.500962890625,1.4525232315063477,0.2981475591659546,-0.8654215335845947
1772698641203919000,2.510919189453125,1.1097867488861084,0.19356390833854675,-0.8105345964431763
1772698641213876000,2.5208759765625,0.6073538661003113,0.06320882588624954,-0.733556866645813
1772698641223833000,2.5308330078125,0.08812401443719864,-0.08083463460206985,-0.6422812938690186
1772698641233790200,2.540790283203125,-0.3560619354248047,-0.20314110815525055,-0.5331088304519653
1772698641243747300,2.550747314453125,-0.6616716384887695,-0.2742704153060913,-0.3880339562892914
1772698641253704200,2.5607041015625,-0.8172016143798828,-0.28118932247161865,-0.22431564331054688
1772698641263661000,2.5706611328125,-0.8228525519371033,-0.2494364231824875,-0.08991523087024689
1772698641273618200,2.5806181640625,-0.7125028371810913,-0.18279190361499786,-0.04081949591636658
1772698641283575000,2.590574951171875,-0.5360082387924194,-0.1185508593916893,-0.10767282545566559
1772698641293532200,2.6005322265625,-0.33462369441986084,-0.06883949786424637,-0.23635488748550415
1772698641303489300,2.6104892578125,-0.17869026958942413,-0.04393202066421509,-0.35194700956344604
1772698641313446100,2.620446044921875,-0.07746589183807373,-0.01716165989637375,-0.42754417657852173
1772698641323403000,2.630403076171875,-0.05206838995218277,0.00620651338249445,-0.4691598117351532
1772698641333359400,2.640359375,-0.09828418493270874,0.015507612377405167,-0.4544329047203064
1772698641343316000,2.65031591796875,-0.1802232414484024,0.020802242681384087,-0.37073296308517456
1772698641353273000,2.660273193359375,-0.25382909178733826,0.009482214227318764,-0.2433190643787384
1772698641363230200,2.670230224609375,-0.2834932506084442,-0.012741331942379475,-0.11481993645429611
1772698641373187000,2.68018701171875,-0.2790698707103729,-0.03321172669529915,-0.02320725843310356
1772698641383144200,2.690144287109375,-0.24458567798137665,-0.03256377950310707,0.04619205370545387
1772698641393101300,2.700101318359375,-0.1802181899547577,-0.0011089146137237549,0.09454790502786636
1772698641403058200,2.71005810546875,-0.10056357830762863,0.06066150590777397,0.1272142380475998
1772698641413015000,2.72001513671875,0.007462517358362675,0.09926348924636841,0.15780316293239594
1772698641422972200,2.72997216796875,0.1463514268398285,0.11474098265171051,0.1538427770137787
1772698641432929000,2.739928955078125,0.28695887327194214,0.10897710174322128,0.13163021206855774
1772698641442886100,2.74988623046875,0.3788382112979889,0.10549715161323547,0.1174217164516449
1772698641452843300,2.75984326171875,0.4164734482765198,0.11155824363231659,0.15463843941688538
1772698641462800100,2.769800048828125,0.40048620104789734,0.10657546669244766,0.22123104333877563
1772698641472756200,2.779756103515625,0.3472038805484772,0.09409882128238678,0.26662805676460266
1772698641482713300,2.78971337890625,0.30272960662841797,0.06390523165464401,0.322785347700119
1772698641492670000,2.799669921875,0.2802780568599701,0.03338035196065903,0.42540255188941956
1772698641502627000,2.809626953125,0.265046089887619,-0.0003547081723809242,0.5666390061378479
1772698641512584200,2.819584228515625,0.21917396783828735,-0.04802395775914192,0.6872097253799438
1772698641522541000,2.829541015625,0.14813414216041565,-0.08354174345731735,0.7408362030982971
1772698641532498200,2.839498291015625,0.03718796372413635,-0.08729733526706696,0.7702979445457458
1772698641542455300,2.849455322265625,-0.12700870633125305,-0.06657234579324722,0.8175780773162842
1772698641552412200,2.859412109375,-0.3361448645591736,-0.0662493109703064,0.86392742395401
1772698641562369000,2.869369140625,-0.5329828262329102,-0.07665400952100754,0.9372823238372803
1772698641572326100,2.879326171875,-0.7064483165740967,-0.047114498913288116,1.0507053136825562
1772698641582283000,2.889282958984375,-0.8523293733596802,0.08917730301618576,1.1412711143493652
1772698641592240000,2.899240234375,-0.8308497071266174,0.30922284722328186,1.0957030057907104
1772698641602197200,2.909197265625,-0.4586513936519623,0.5012082457542419,0.9790877103805542
1772698641612153000,2.919153076171875,0.18786033987998962,0.6302722096443176,0.8645023107528687
1772698641622110200,2.929110107421875,0.9077993035316467,0.6958554983139038,0.6726327538490295
1772698641632067300,2.9390673828125,1.4983973503112793,0.5785976052284241,0.16328498721122742
1772698641642024000,2.94902392578125,1.8140751123428345,0.3159041702747345,-0.6612046360969543
1772698641651981000,2.95898095703125,1.7622143030166626,0.05897999182343483,-1.378515601158142
1772698641661938200,2.968938232421875,1.3746005296707153,-0.012241462245583534,-1.425286054611206
1772698641671895000,2.97889501953125,0.8050240874290466,0.0793830007314682,-0.7032774686813354
1772698641681852200,2.98885205078125,0.2274150550365448,0.16899996995925903,0.4379322826862335
1772698641691809300,2.998809326171875,-0.1783803552389145,0.23748955130577087,1.362293004989624
1772698641701766000,3.008765869140625,-0.32539138197898865,0.22674289345741272,1.4618712663650513
1772698641711723000,3.018722900390625,-0.16596679389476776,0.07591476291418076,0.8612411618232727
1772698641721680100,3.02868017578125,0.1956377476453781,-0.09547030925750732,0.06322414427995682
1772698641731637200,3.03863720703125,0.5309968590736389,-0.19770321249961853,-0.569416344165802
1772698641741594000,3.048593994140625,0.6483234763145447,-0.15935689210891724,-0.8457645773887634
1772698641751550200,3.05855029296875,0.5931012034416199,-0.08127539604902267,-0.8857902884483337
1772698641761507000,3.068507080078125,0.523960530757904,-0.037634171545505524,-0.8255834579467773
1772698641771464200,3.078464111328125,0.49596112966537476,-0.08028469979763031,-0.7360475659370422
1772698641781421300,3.08842138671875,0.4603743851184845,-0.16849792003631592,-0.648044228553772
1772698641791378000,3.0983779296875,0.35079407691955566,-0.26926180720329285,-0.6119817495346069
1772698641801335000,3.1083349609375,0.13077543675899506,-0.35532426834106445,-0.6473807692527771
1772698641811292200,3.118292236328125,-0.20209068059921265,-0.40483641624450684,-0.6943081617355347
1772698641821249000,3.1282490234375,-0.5762062668800354,-0.39521121978759766,-0.6823620200157166
1772698641831206100,3.1382060546875,-0.9169334769248962,-0.3768777549266815,-0.5494785904884338
1772698641841163300,3.148163330078125,-1.1212838888168335,-0.3675748109817505,-0.3498333990573883
1772698641851120000,3.1581201171875,-1.1798121929168701,-0.37540581822395325,-0.16103725135326385
1772698641861077000,3.168076904296875,-1.1089860200881958,-0.36673083901405334,-0.014791889116168022
1772698641871034000,3.1780341796875,-0.9476173520088196,-0.32718023657798767,0.0792594850063324
1772698641880990000,3.187989990234375,-0.7211149334907532,-0.2417079508304596,0.10909807682037354
1772698641890947000,3.197947021484375,-0.4717290699481964,-0.1470847725868225,0.08691130578517914
1772698641900904200,3.207904296875,-0.22996598482131958,-0.06110221892595291,0.025151796638965607
1772698641910861000,3.217861083984375,-0.036565981805324554,0.005417962558567524,-0.03138430044054985
1772698641920818200,3.227818115234375,0.08878448605537415,0.06288818269968033,-0.06344662606716156
1772698641930775000,3.237775146484375,0.13332302868366241,0.09781046211719513,-0.06347866356372833
1772698641940732200,3.247732177734375,0.1229739785194397,0.11880601942539215,-0.055808231234550476
1772698641950689000,3.25768896484375,0.05638189613819122,0.11468665301799774,0.00011118175461888313
1772698641960646100,3.267646240234375,-0.019400212913751602,0.10621407628059387,0.11832118034362793
1772698641970603300,3.277603271484375,-0.08247321844100952,0.09420614689588547,0.24525611102581024
1772698641980560100,3.28756005859375,-0.12431147694587708,0.08671574294567108,0.3046238422393799
1772698641990517200,3.297517333984375,-0.15160545706748962,0.09523999691009521,0.28665396571159363
1772698642000474000,3.30747412109375,-0.15242303907871246,0.1167716532945633,0.24432940781116486
1772698642010431000,3.317430908203125,-0.1268068104982376,0.12969063222408295,0.20969828963279724
1772698642020388000,3.32738818359375,-0.10111956298351288,0.1376311182975769,0.1796085685491562
1772698642030344000,3.337343994140625,-0.04165014624595642,0.13427633047103882,0.1559464931488037
1772698642040301000,3.347301025390625,0.05486787110567093,0.11122135072946548,0.14146529138088226
1772698642050258200,3.357258056640625,0.15940488874912262,0.09482081234455109,0.19448569416999817
1772698642060215300,3.36721533203125,0.1514231264591217,0.0964655727148056,0.27098792791366577
1772698642070172200,3.377172119140625,0.0009415706153959036,0.11490316689014435,0.30685314536094666
1772698642080129000,3.38712890625,-0.21869304776191711,0.12985734641551971,0.308476060628891
1772698642090086100,3.397086181640625,-0.41105568408966064,0.11004530638456345,0.30874937772750854
1772698642100043000,3.40704296875,-0.4458128809928894,0.07891695201396942,0.3817245364189148
1772698642110000000,3.417000244140625,-0.33141401410102844,0.06039198487997055,0.5364343523979187
1772698642119957200,3.426957275390625,-0.17434848845005035,0.07886606454849243,0.6006796360015869
1772698642129914000,3.4369140625,-0.034270524978637695,0.13401854038238525,0.4990535378456116
1772698642139871200,3.446871337890625,0.059780340641736984,0.1865888088941574,0.32823488116264343
1772698642149828000,3.456828125,0.08958005905151367,0.19729816913604736,0.2506059408187866
1772698642159785000,3.466784912109375,0.044949475675821304,0.17445890605449677,0.25603294372558594
1772698642169741000,3.476740966796875,-0.07714078575372696,0.1494547575712204,0.23381324112415314
1772698642179698200,3.4866982421875,-0.199968159198761,0.16280466318130493,0.14307934045791626
1772698642189655000,3.496655029296875,-0.20952381193637848,0.1928488314151764,-0.009093478322029114
1772698642199612200,3.506612060546875,-0.06365262717008591,0.22755274176597595,-0.23764541745185852
1772698642209569300,3.5165693359375,0.14840099215507507,0.2616958022117615,-0.5558282136917114
1772698642219526100,3.526526123046875,0.3587574064731598,0.26524844765663147,-0.892320990562439
1772698642229483000,3.53648291015625,0.5432996153831482,0.23499763011932373,-1.1039913892745972
1772698642239440100,3.546440185546875,0.7123796939849854,0.16365207731723785,-1.1056140661239624
1772698642249397000,3.55639697265625,0.8085549473762512,0.04243749380111694,-0.9573281407356262
1772698642259354000,3.56635400390625,0.749244213104248,-0.08651009947061539,-0.8130742907524109
1772698642269311200,3.576311279296875,0.49038174748420715,-0.17871804535388947,-0.7316038012504578
1772698642279268000,3.58626806640625,0.1103912740945816,-0.20691266655921936,-0.6884395480155945
1772698642289225200,3.59622509765625,-0.28339219093322754,-0.16569893062114716,-0.6361960768699646
1772698642299182000,3.60618212890625,-0.651792585849762,-0.04816537722945213,-0.5903545618057251
1772698642309138200,3.61613818359375,-0.9680762887001038,0.06926671415567398,-0.5430824756622314
1772698642319095000,3.626094970703125,-1.1652679443359375,0.101767398416996,-0.5413282513618469
1772698642329052200,3.63605224609375,-1.1225122213363647,0.02640180103480816,-0.5426965355873108
1772698642339009000,3.646009033203125,-0.8706141710281372,-0.11933036893606186,-0.46505844593048096
1772698642348966100,3.655966064453125,-0.5576213598251343,-0.2947070002555847,-0.33946460485458374
1772698642358923300,3.66592333984375,-0.30214831233024597,-0.41351327300071716,-0.2567548155784607
1772698642368880000,3.675880126953125,-0.15788745880126953,-0.4878900349140167,-0.2758010923862457
1772698642378837000,3.6858369140625,-0.13049285113811493,-0.461496502161026,-0.30978891253471375
1772698642388794000,3.695794189453125,-0.24494020640850067,-0.39894336462020874,-0.2793106734752655
1772698642398751000,3.7057509765625,-0.41148096323013306,-0.3061750829219818,-0.24504989385604858
1772698642408708000,3.7157080078125,-0.5355032682418823,-0.23812571167945862,-0.2417047619819641
1772698642418665200,3.725665283203125,-0.5577244162559509,-0.21334049105644226,-0.2854463756084442
1772698642428622000,3.7356220703125,-0.4527111351490021,-0.23358771204948425,-0.32196924090385437
1772698642438578200,3.745578125,-0.26491594314575195,-0.2604542076587677,-0.32317110896110535
1772698642448535300,3.755535400390625,-0.06659246981143951,-0.2810351252555847,-0.29450860619544983
1772698642458492200,3.7654921875,0.11293628066778183,-0.2780068516731262,-0.2570435404777527
1772698642468449000,3.775448974609375,0.25641220808029175,-0.2501096725463867,-0.22359716892242432
1772698642478406100,3.78540625,0.334323525428772,-0.1965274214744568,-0.1806747317314148
1772698642488363000,3.795363037109375,0.3577808439731598,-0.1516323685646057,-0.1217636987566948
1772698642498320100,3.805320068359375,0.3697211444377899,-0.10424036532640457,-0.045598629862070084
1772698642508277200,3.81527734375,0.38490942120552063,-0.08475800603628159,0.034789711236953735
1772698642518234000,3.825234130859375,0.4022652208805084,-0.07984607666730881,0.11973389238119125
1772698642528191000,3.83519091796875,0.3962864875793457,-0.08775833249092102,0.21271298825740814
1772698642538148000,3.845148193359375,0.364698201417923,-0.08974398672580719,0.26784786581993103
1772698642548105200,3.855105224609375,0.31405678391456604,-0.08996395021677017,0.3094679117202759
1772698642558062000,3.86506201171875,0.2426912486553192,-0.09293869882822037,0.3797202408313751
1772698642568019200,3.875019287109375,0.15078458189964294,-0.09418986737728119,0.4857693016529083
1772698642577976300,3.884976318359375,0.04569331184029579,-0.0980120375752449,0.6103774905204773
1772698642587932200,3.89493212890625,-0.08251585066318512,-0.11048680543899536,0.7306624054908752
1772698642597889300,3.90488916015625,-0.20047977566719055,-0.12360686808824539,0.8245119452476501
1772698642607846100,3.91484619140625,-0.2881726026535034,-0.11967391520738602,0.8511527180671692
1772698642617803000,3.924802978515625,-0.3666607439517975,-0.0851668044924736,0.8209084868431091
1772698642627760000,3.934760009765625,-0.4595624506473541,-0.03365381062030792,0.7684042453765869
1772698642637717000,3.944717041015625,-0.5496776700019836,0.015187496319413185,0.7197821140289307
1772698642647674000,3.954674072265625,-0.5983850359916687,0.09043564647436142,0.6677119731903076
1772698642657631200,3.96463134765625,-0.5760762691497803,0.15641838312149048,0.5565676093101501
1772698642667588400,3.97458837890625,-0.4132997989654541,0.21832436323165894,0.4345991909503937
1772698642677545000,3.984544921875,-0.11724843084812164,0.2721303403377533,0.37960463762283325
1772698642687502000,3.994502197265625,0.23165090382099152,0.2873300611972809,0.4368835985660553
1772698642697459200,4.004459228515625,0.5468133687973022,0.24352692067623138,0.46489232778549194
1772698642707416000,4.014416015625,0.7476708889007568,0.11924225091934204,0.2248719185590744
1772698642717372700,4.02437255859375,0.7926620841026306,-0.04206594079732895,-0.29094403982162476
1772698642727329800,4.034329833984375,0.6766840815544128,-0.15851932764053345,-0.834229052066803
1772698642737286700,4.04428662109375,0.4839601516723633,-0.19719241559505463,-1.0055770874023438
1772698642747243500,4.054243408203125,0.23326820135116577,-0.11293931305408478,-0.70816969871521
1772698642757200600,4.06420068359375,-0.05524347350001335,0.05360119789838791,-0.1469508856534958
1772698642767157500,4.074157470703125,-0.29436734318733215,0.209802508354187,0.47267046570777893
1772698642777114600,4.084114501953125,-0.4118811786174774,0.3637324273586273,0.7913352847099304
1772698642787071700,4.09407177734375,-0.37672504782676697,0.42184045910835266,0.6980250477790833
1772698642797028600,4.104028564453125,-0.16229745745658875,0.3953936696052551,0.34499531984329224
1772698642806985700,4.11398583984375,0.13909967243671417,0.30384379625320435,-0.06292002648115158
1772698642816942600,4.123942626953125,0.4097309112548828,0.22330553829669952,-0.4017111361026764
1772698642826899500,4.1338994140625,0.5565727949142456,0.17193584144115448,-0.607951819896698
1772698642836856600,4.143856689453125,0.596522867679596,0.12572786211967468,-0.7158540487289429
1772698642846813700,4.153813720703125,0.5915883183479309,0.053282417356967926,-0.7244601845741272
1772698642856770600,4.1637705078125,0.5502147674560547,-0.031879082322120667,-0.6882752776145935
1772698642866726700,4.1737265625,0.4622470736503601,-0.0922127291560173,-0.6172989010810852
1772698642876683800,4.183683837890625,0.27190136909484863,-0.10497353225946426,-0.502991795539856
1772698642886640600,4.193640625,-0.016625769436359406,-0.06584450602531433,-0.34231024980545044
1772698642896597500,4.203597412109375,-0.3489677608013153,-0.011726141907274723,-0.16494238376617432
1772698642906554600,4.2135546875,-0.6478897333145142,0.02881675586104393,-0.006232558283954859
1772698642916511500,4.223511474609375,-0.855529248714447,0.03422323986887932,0.11685661226511002
1772698642926468600,4.233468505859375,-0.9473592042922974,0.021561235189437866,0.20017221570014954
1772698642936425700,4.24342578125,-0.9316388368606567,0.00747124757617712,0.24284803867340088
1772698642946382600,4.253382568359375,-0.8157333135604858,-0.0027201343327760696,0.26272228360176086
1772698642956339700,4.263339599609375,-0.6267727017402649,0.003136156592518091,0.2748657763004303
1772698642966296600,4.273296630859375,-0.4305616021156311,0.015479633584618568,0.2761603593826294
1772698642976253400,4.28325341796875,-0.25376206636428833,0.03506212309002876,0.27964723110198975
1772698642986210600,4.29321044921875,-0.12233296781778336,0.07483324408531189,0.26543426513671875
1772698642996167700,4.303167724609375,-0.06675039976835251,0.12360450625419617,0.23775389790534973
1772698643006124800,4.313124755859375,-0.05223993957042694,0.16168345510959625,0.20713458955287933
1772698643016080600,4.32308056640625,-0.035718753933906555,0.17567996680736542,0.18456774950027466
1772698643026037800,4.333037841796875,0.005068650469183922,0.15490490198135376,0.1566355675458908
1772698643035994600,4.34299462890625,0.06653866171836853,0.10388940572738647,0.11218021810054779
1772698643045951500,4.352951416015625,0.13303297758102417,0.04615473374724388,0.047772906720638275
1772698643055908600,4.36290869140625,0.19012263417243958,0.006418771576136351,-0.010601984336972237
1772698643065865500,4.372865478515625,0.22352935373783112,0.0019286787137389183,-0.026735544204711914
1772698643075822600,4.382822509765625,0.22553923726081848,0.009628144092857838,0.00010192906484007835
1772698643085779700,4.39277978515625,0.21723124384880066,0.02285260334610939,0.06223694235086441
1772698643095736600,4.402736572265625,0.20017023384571075,0.028367210179567337,0.11433316022157669
1772698643105693700,4.412693603515625,0.15579982101917267,0.02394743077456951,0.1347837597131729
1772698643115650600,4.422650634765625,0.10736598074436188,0.030239949002861977,0.13826397061347961
1772698643125607700,4.432607666015625,0.062112268060445786,0.021721020340919495,0.18605992197990417
1772698643135564500,4.442564453125,0.04895252361893654,-0.00028467876836657524,0.28583553433418274
1772698643145521700,4.452521728515625,0.06354288011789322,-0.013576511293649673,0.38052862882614136
1772698643155477500,4.4624775390625,0.03100677765905857,-0.0025566171389073133,0.4035995900630951
1772698643165434600,4.4724345703125,-0.06907721608877182,0.04732945188879967,0.35922864079475403
1772698643175391700,4.482391845703125,-0.14400658011436462,0.10601194202899933,0.28901758790016174
1772698643185348600,4.4923486328125,-0.16025613248348236,0.12889941036701202,0.17667101323604584
1772698643195305500,4.502305419921875,-0.1477683037519455,0.13300307095050812,0.12039549648761749
1772698643205262600,4.5122626953125,-0.14546579122543335,0.12509162724018097,0.1720568835735321
1772698643215219700,4.5222197265625,-0.178947314620018,0.13690808415412903,0.2778016924858093
1772698643225176600,4.532176513671875,-0.21761232614517212,0.12766475975513458,0.2667800188064575
1772698643235133700,4.5421337890625,-0.1799677461385727,0.07839468866586685,0.01635713502764702
1772698643245090800,4.5520908203125,-0.02194165624678135,-0.035910844802856445,-0.43027183413505554
1772698643255047700,4.562047607421875,0.20354712009429932,-0.24741163849830627,-0.8483756184577942
1772698643265004500,4.572004638671875,0.357073575258255,-0.4958435595035553,-0.9803143739700317
1772698643274961700,4.581961669921875,0.2526819407939911,-0.695328950881958,-0.7801133394241333
1772698643284918500,4.59191845703125,-0.20384755730628967,-0.7619543075561523,-0.4457520842552185
1772698643294875600,4.601875732421875,-0.790250301361084,-0.6775878071784973,-0.14473417401313782
1772698643304831500,4.61183154296875,-1.1808645725250244,-0.584001362323761,0.06561417132616043
1772698643314788600,4.62178857421875,-1.2080397605895996,-0.5508522391319275,0.14460833370685577
1772698643324745700,4.631745849609375,-0.9599275588989258,-0.6006535887718201,0.08497382700443268
1772698643334702800,4.641702880859375,-0.6309190392494202,-0.6703400015830994,-0.043748728930950165
1772698643344659500,4.651659423828125,-0.3948816955089569,-0.6663851737976074,-0.16896040737628937
1772698643354616600,4.661616455078125,-0.32007110118865967,-0.5840154886245728,-0.22548119723796844
1772698643364573700,4.67157373046875,-0.3336241841316223,-0.4487343728542328,-0.1955385059118271
1772698643374530600,4.681530517578125,-0.35601791739463806,-0.3224581778049469,-0.11899445950984955
1772698643384487700,4.69148779296875,-0.35526928305625916,-0.22852450609207153,-0.03939729928970337
1772698643394444800,4.70144482421875,-0.307541161775589,-0.1448405236005783,-0.011145688593387604
1772698643404401700,4.711401611328125,-0.23977623879909515,-0.05260860174894333,-0.05404889956116676
1772698643414358500,4.721358642578125,-0.14856137335300446,0.038155391812324524,-0.1328907161951065
1772698643424315600,4.731315673828125,-0.014207799918949604,0.12044839560985565,-0.21166424453258514
1772698643434272500,4.7412724609375,0.1693899929523468,0.17070864140987396,-0.25981608033180237
1772698643444229600,4.751229736328125,0.3987256586551666,0.1873459368944168,-0.25876885652542114
1772698643454185700,4.761185791015625,0.6033539175987244,0.19633464515209198,-0.22938565909862518
1772698643464142600,4.771142578125,0.7348592877388,0.20871487259864807,-0.18887491524219513
1772698643474099700,4.781099609375,0.7557171583175659,0.2051779329776764,-0.15451480448246002
1772698643484056800,4.791056884765625,0.6855678558349609,0.1845344454050064,-0.1328660398721695
1772698643494013400,4.801013427734375,0.5556785464286804,0.17729783058166504,-0.13341732323169708
1772698643503970600,4.810970458984375,0.3789442479610443,0.16157266497612,-0.11269590258598328
1772698643513927700,4.820927734375,0.20307791233062744,0.12062150239944458,-0.07475011795759201
1772698643523884500,4.830884521484375,0.0707794651389122,0.061038605868816376,-0.04261397942900658
1772698643533841700,4.840841552734375,-0.01142459362745285,-0.009777242317795753,-0.051746759563684464
1772698643543798800,4.850798828125,-0.05103830620646477,-0.04936247318983078,-0.06933821737766266
1772698643553755600,4.860755615234375,-0.07450581341981888,-0.05501050502061844,-0.07477479428052902
1772698643563712500,4.87071240234375,-0.08167848736047745,-0.05845769867300987,-0.0755171999335289
1772698643573669600,4.880669677734375,-0.04017072170972824,-0.07170479744672775,-0.09530209004878998
1772698643583626500,4.89062646484375,0.04567759856581688,-0.10767132043838501,-0.12170815467834473
1772698643593582600,4.90058251953125,0.14003978669643402,-0.13237133622169495,-0.13719336688518524
1772698643603539700,4.910539794921875,0.20519672334194183,-0.1236012876033783,-0.13580092787742615
1772698643613496600,4.92049658203125,0.22458559274673462,-0.10591363161802292,-0.13783690333366394
1772698643623453700,4.93045361328125,0.23233318328857422,-0.10897945612668991,-0.14281313121318817
1772698643633410800,4.940410888671875,0.23890534043312073,-0.1267579197883606,-0.13843223452568054
1772698643643367400,4.950367431640625,0.24055121839046478,-0.13354046642780304,-0.12632152438163757
1772698643653324500,4.960324462890625,0.21340109407901764,-0.13083016872406006,-0.09050919860601425
1772698643663281700,4.97028173828125,0.1960766762495041,-0.12237542867660522,-0.032508544623851776
1772698643673238500,4.980238525390625,0.1747966855764389,-0.11710742861032486,0.03462361916899681
1772698643683195600,4.990195556640625,0.15577666461467743,-0.10352344065904617,0.10394325852394104
1772698643693152800,5.00015283203125,0.11862049251794815,-0.07732246071100235,0.19491177797317505
1772698643703109600,5.010109619140625,0.06390058249235153,-0.04396850988268852,0.30569952726364136
1772698643713066200,5.020066162109375,0.00038312701508402824,-0.03575052693486214,0.39895862340927124
1772698643723023400,5.0300234375,-0.10682729631662369,-0.0881974846124649,0.4211600124835968
1772698643732980500,5.03998046875,-0.25030454993247986,-0.16067993640899658,0.3469422459602356
1772698643742936300,5.049936279296875,-0.4259519875049591,-0.21924711763858795,0.24400606751441956
1772698643752893400,5.0598935546875,-0.5988093018531799,-0.2631690204143524,0.16465158760547638
1772698643762850300,5.069850341796875,-0.7302090525627136,-0.24164323508739471,0.1331489086151123
1772698643772807400,5.079807373046875,-0.830980122089386,-0.161112442612648,0.08280210942029953
1772698643782764500,5.0897646484375,-0.8309974670410156,-0.10431520640850067,-0.061157431453466415
1772698643792721200,5.09972119140625,-0.6577588319778442,-0.056433964520692825,-0.2515436112880707
1772698643802678300,5.10967822265625,-0.3576040267944336,0.045371752232313156,-0.3428826332092285
1772698643812635400,5.119635498046875,-0.015954550355672836,0.1568535417318344,-0.3227701783180237
1772698643822592300,5.12959228515625,0.2957596480846405,0.1910163015127182,-0.3931981027126312
1772698643832549400,5.13954931640625,0.5026640892028809,0.11159978061914444,-0.6079365015029907
1772698643842506500,5.149506591796875,0.5423902869224548,0.03424239531159401,-0.7028946280479431
1772698643852463400,5.15946337890625,0.42389026284217834,0.10130424797534943,-0.5141769051551819
1772698643862420200,5.169420166015625,0.2184581756591797,0.2657688558101654,-0.11711253225803375
1772698643872377300,5.17937744140625,0.0409393236041069,0.4073134660720825,0.2620089650154114
1772698643882334500,5.18933447265625,-0.05123429000377655,0.463426798582077,0.4730242192745209
1772698643892291300,5.199291259765625,-0.030739398673176765,0.4540809690952301,0.49055421352386475
1772698643902247400,5.209247314453125,0.09423073381185532,0.3657801151275635,0.3577438294887543
1772698643912204300,5.219204345703125,0.25971904397010803,0.26097142696380615,0.11474049091339111
1772698643922161400,5.229161376953125,0.38404929637908936,0.18975716829299927,-0.10818232595920563
1772698643932118500,5.239118408203125,0.42365822196006775,0.1523647904396057,-0.19869385659694672
1772698643942075400,5.249075439453125,0.3766465187072754,0.12276828289031982,-0.13978125154972076
1772698643952032300,5.2590322265625,0.26515433192253113,0.08212391287088394,-0.045957017689943314
1772698643961989400,5.2689892578125,0.13855904340744019,0.013925421983003616,-0.014524554833769798
1772698643971946500,5.278946533203125,0.04314623773097992,-0.08085967600345612,-0.06196504086256027
1772698643981903400,5.2889033203125,-0.04980200156569481,-0.16782547533512115,-0.13015975058078766
1772698643991860500,5.298860595703125,-0.1765138804912567,-0.2287450134754181,-0.1648535430431366
1772698644001817300,5.3088173828125,-0.3535620868206024,-0.2261684238910675,-0.15497037768363953
1772698644011774200,5.318774169921875,-0.5489981770515442,-0.18506039679050446,-0.09275467693805695
1772698644021731300,5.3287314453125,-0.6930678486824036,-0.13178545236587524,0.011559424921870232
1772698644031688400,5.3386884765625,-0.731521487236023,-0.09617285430431366,0.14518672227859497
1772698644041645300,5.348645263671875,-0.6632406711578369,-0.08013183623552322,0.24927791953086853
1772698644051601400,5.358601318359375,-0.5239642858505249,-0.05742785334587097,0.2953852415084839
1772698644061558500,5.36855859375,-0.34924912452697754,-0.02506805956363678,0.30201011896133423
1772698644071515400,5.378515380859375,-0.18128465116024017,0.0314364954829216,0.29538121819496155
1772698644081472500,5.388472412109375,-0.02274348773062229,0.1026153415441513,0.29335716366767883
1772698644091429400,5.398429443359375,0.12857173383235931,0.17558887600898743,0.27851802110671997
1772698644101386200,5.40838623046875,0.27107560634613037,0.23570255935192108,0.25681164860725403
1772698644111343400,5.41834326171875,0.3948098123073578,0.2727218270301819,0.2331361323595047
1772698644121300500,5.428300537109375,0.5023255348205566,0.2971738874912262,0.22953711450099945
1772698644131257300,5.43825732421875,0.5678925514221191,0.3187183439731598,0.25438201427459717
1772698644141214500,5.44821435546875,0.5917462706565857,0.3250851631164551,0.29076844453811646
1772698644151171300,5.45817138671875,0.5806507468223572,0.304620623588562,0.3182480037212372
1772698644161128200,5.468128173828125,0.5286474227905273,0.27028077840805054,0.31498703360557556
1772698644171085300,5.478085205078125,0.434785932302475,0.22761693596839905,0.3055384159088135
1772698644181042400,5.48804248046875,0.30335763096809387,0.17649568617343903,0.3079064190387726
1772698644190999300,5.497999267578125,0.15293003618717194,0.11054836213588715,0.3419423997402191
1772698644200955400,5.507955322265625,0.013922665268182755,0.03852583095431328,0.40543848276138306
1772698644210912500,5.51791259765625,-0.10636433213949203,-0.05063387006521225,0.4659156799316406
1772698644220869400,5.527869384765625,-0.23447762429714203,-0.12194480001926422,0.5089232921600342
1772698644230826500,5.537826416015625,-0.40850508213043213,-0.1606314778327942,0.47867539525032043
1772698644240783400,5.547783447265625,-0.5856968760490417,-0.14754869043827057,0.360086590051651
1772698644250740200,5.557740234375,-0.6757791042327881,-0.09530360251665115,0.12773004174232483
1772698644260697300,5.567697265625,-0.6230072379112244,-0.05200432986021042,-0.20278027653694153
1772698644270654500,5.577654541015625,-0.4276590645313263,-0.05731014534831047,-0.5516780614852905
1772698644280611300,5.587611328125,-0.13158348202705383,-0.09088381379842758,-0.7331622242927551
1772698644290568400,5.597568359375,0.16696885228157043,-0.03999293968081474,-0.5912655591964722
1772698644300525300,5.607525390625,0.34174707531929016,0.07766125351190567,-0.20254728198051453
1772698644310482200,5.617482177734375,0.3604600429534912,0.21223637461662292,0.17290277779102325
1772698644320439300,5.627439208984375,0.3000803291797638,0.2838956415653229,0.28380826115608215
1772698644330396400,5.637396484375,0.2470427006483078,0.23514142632484436,0.12243030220270157
1772698644340353500,5.647353515625,0.21070462465286255,0.08453940600156784,-0.06824075430631638
1772698644350310400,5.657310302734375,0.1647499054670334,-0.10129810124635696,-0.09650115668773651
1772698644360266500,5.6672666015625,0.06961219757795334,-0.23330408334732056,-0.027988186106085777
1772698644370223400,5.677223388671875,-0.06162891164422035,-0.23408173024654388,-0.0159661453217268
1772698644380180500,5.687180419921875,-0.13874578475952148,-0.11277366429567337,-0.11450250446796417
1772698644390137300,5.697137451171875,-0.041082609444856644,0.06721954047679901,-0.25110456347465515
1772698644400094200,5.70709423828125,0.266436368227005,0.21509048342704773,-0.39220061898231506
1772698644410051300,5.71705126953125,0.6897631287574768,0.30296894907951355,-0.5470796823501587
1772698644420008400,5.727008544921875,1.0830851793289185,0.33937036991119385,-0.6641189455986023
1772698644429965300,5.73696533203125,1.3197044134140015,0.3615177273750305,-0.6688843965530396
1772698644439922400,5.74692236328125,1.35446298122406,0.35446327924728394,-0.5695385336875916
1772698644449879300,5.75687939453125,1.205620288848877,0.3194427192211151,-0.4201357364654541
1772698644459836400,5.76683642578125,0.9380819201469421,0.23898543417453766,-0.2559237778186798
1772698644469793300,5.776793212890625,0.6535859704017639,0.15945039689540863,-0.08259088546037674
1772698644479750400,5.78675048828125,0.375164270401001,0.08929979056119919,0.04925200343132019
1772698644489707500,5.79670751953125,0.1303209364414215,0.03439207002520561,0.09345647692680359
1772698644499664400,5.806664306640625,-0.041769929230213165,-0.007593190297484398,0.07556987553834915
1772698644509621500,5.81662158203125,-0.1331496387720108,-0.04158817604184151,0.05890355259180069
1772698644519577300,5.826577392578125,-0.17079608142375946,-0.07682286202907562,0.05564410984516144
1772698644529534500,5.836534423828125,-0.18750396370887756,-0.1016339361667633,0.03613991290330887
1772698644539491300,5.8464912109375,-0.18604342639446259,-0.129823237657547,-0.061995141208171844
1772698644549448400,5.856448486328125,-0.15551188588142395,-0.16412103176116943,-0.21237558126449585
1772698644559405300,5.8664052734375,-0.11490877717733383,-0.22876287996768951,-0.3680460751056671
1772698644569362400,5.876362548828125,-0.06146872043609619,-0.2961232662200928,-0.49659472703933716
1772698644579319600,5.886319580078125,-0.03069007769227028,-0.32730433344841003,-0.5726007223129272
1772698644589276400,5.8962763671875,-0.02437971718609333,-0.3190927505493164,-0.5724760890007019
1772698644599233300,5.9062333984375,-0.04414380341768265,-0.308847039937973,-0.4931367039680481
1772698644609190400,5.9161904296875,-0.05967429280281067,-0.29867562651634216,-0.3926055431365967
1772698644619147300,5.926147216796875,-0.07506362348794937,-0.2938246726989746,-0.30476006865501404
1772698644629104400,5.9361044921875,-0.057196471840143204,-0.2849512994289398,-0.23128315806388855
1772698644639061500,5.9460615234375,0.005290517583489418,-0.2724190056324005,-0.13637301325798035
1772698644649018400,5.956018310546875,0.08941631019115448,-0.2574450969696045,-0.03278058394789696
1772698644658975500,5.9659755859375,0.18245308101177216,-0.2328939586877823,0.032326653599739075
1772698644668931600,5.975931640625,0.27689889073371887,-0.19885821640491486,0.04950696974992752
1772698644678888400,5.985888427734375,0.3769128620624542,-0.16600972414016724,0.030547533184289932
1772698644688845300,5.99584521484375,0.46222057938575745,-0.13171806931495667,-0.015833282843232155
1772698644698802400,6.005802490234375,0.5574202537536621,-0.0897812694311142,-0.037165701389312744
1772698644708759300,6.01575927734375,0.645668625831604,-0.02860313653945923,0.037142883986234665
1772698644718716700,6.025716552734375,0.6721218824386597,0.03557637706398964,0.13622279465198517
1772698644728673500,6.035673583984375,0.6723527908325195,0.07456931471824646,0.17109476029872894
1772698644738630700,6.045630615234375,0.6524693369865417,0.09921607375144958,0.1638513058423996
1772698644748587500,6.05558740234375,0.6344091296195984,0.1070159375667572,0.16654084622859955
1772698644758544400,6.06554443359375,0.6002721786499023,0.11039016395807266,0.24717962741851807
1772698644768501500,6.07550146484375,0.5361379384994507,0.11937380582094193,0.3506988286972046
1772698644778458600,6.085458740234375,0.43461477756500244,0.12105638533830643,0.44362953305244446
1772698644788415500,6.09541552734375,0.3065369725227356,0.1078212782740593,0.4857111871242523
1772698644798372600,6.10537255859375,0.13546767830848694,0.13540923595428467,0.47681868076324463
1772698644808329500,6.11532958984375,-0.045604635030031204,0.2307397574186325,0.4279238283634186
1772698644818286600,6.12528662109375,-0.16211123764514923,0.3940218985080719,0.3067200779914856
1772698644828242400,6.135242431640625,-0.19912384450435638,0.6038864254951477,0.12010199576616287
1772698644838199600,6.145199462890625,-0.1094711497426033,0.8282947540283203,-0.012004965916275978
1772698644848156400,6.155156494140625,0.035665273666381836,0.9907966256141663,-0.01285770907998085
1772698644858113500,6.165113525390625,0.17961548268795013,1.0907479524612427,0.03830600157380104
1772698644868070700,6.175070556640625,0.3022348880767822,1.1394460201263428,0.10534042865037918
1772698644878027500,6.185027587890625,0.38477447628974915,1.1380246877670288,0.13893693685531616
1772698644887984600,6.194984619140625,0.4003438651561737,0.9940041303634644,0.01370178908109665
1772698644897941500,6.20494140625,0.38711410760879517,0.6730197072029114,-0.30258700251579285
1772698644907898400,6.2148984375,0.3291434645652771,0.297333687543869,-0.5135266780853271
1772698644917855500,6.22485546875,0.15667131543159485,0.14104047417640686,-0.3600159287452698
1772698644927812600,6.2348125,-0.14748723804950714,0.17613615095615387,0.07954918593168259
1772698644937769700,6.244769775390625,-0.5031298398971558,0.35205259919166565,0.5845213532447815
1772698644947726600,6.2547265625,-0.7778357267379761,0.5678160190582275,0.9211547374725342
1772698644957683500,6.264683349609375,-0.8635963797569275,0.704886794090271,0.968127965927124
1772698644967640600,6.274640625,-0.7428475618362427,0.6945673227310181,0.7824574708938599
1772698644977597400,6.284597412109375,-0.517082691192627,0.5701655149459839,0.4671221673488617
1772698644987554600,6.294554443359375,-0.29935941100120544,0.4111787676811218,0.10521294921636581
1772698644997510400,6.304510498046875,-0.19034285843372345,0.27743667364120483,-0.21094165742397308
1772698645007467500,6.314467529296875,-0.1871606558561325,0.15022706985473633,-0.43909624218940735
1772698645017424600,6.324424560546875,-0.21156558394432068,-0.015760043635964394,-0.591069221496582
1772698645027381500,6.334381591796875,-0.1859169602394104,-0.1770152449607849,-0.6588349938392639
1772698645037338400,6.34433837890625,-0.15408124029636383,-0.2927226722240448,-0.6075866222381592
1772698645047295500,6.35429541015625,-0.16417062282562256,-0.3375870883464813,-0.40243375301361084
1772698645057252600,6.364252685546875,-0.2660183906555176,-0.3151579201221466,-0.12892305850982666
1772698645067209500,6.37420947265625,-0.41813042759895325,-0.24539591372013092,0.07234160602092743
1772698645077166600,6.38416650390625,-0.5657726526260376,-0.15899042785167694,0.12418123334646225
1772698645087123700,6.394123779296875,-0.6618597507476807,-0.08712690323591232,0.07498758286237717
1772698645097080600,6.40408056640625,-0.6672896146774292,-0.040933847427368164,0.016510367393493652
1772698645107037400,6.414037353515625,-0.561133086681366,-0.030331537127494812,0.022767996415495872
1772698645116994600,6.42399462890625,-0.3623887002468109,-0.056855812668800354,0.08634871244430542
1772698645126951400,6.433951416015625,-0.12390049546957016,-0.08063677698373795,0.1609552949666977
1772698645136908500,6.443908447265625,0.09360472857952118,-0.09106945246458054,0.22943077981472015
1772698645146865700,6.45386572265625,0.24166741967201233,-0.06401599198579788,0.26939550042152405
1772698645156821500,6.463821533203125,0.3156806230545044,0.0016903183422982693,0.2818011939525604
1772698645166778600,6.473778564453125,0.3384261727333069,0.0791771188378334,0.264716237783432
1772698645176735700,6.48373583984375,0.35194307565689087,0.13480283319950104,0.277601420879364
1772698645186692400,6.4936923828125,0.3859010338783264,0.15389050543308258,0.3196122646331787
1772698645196649500,6.5036494140625,0.42293843626976013,0.12356375902891159,0.3606541156768799
1772698645206606600,6.513606689453125,0.4366515874862671,0.05945134907960892,0.3755584955215454
1772698645216563500,6.5235634765625,0.4242817461490631,-0.009994837455451488,0.3816342353820801
1772698645226520600,6.5335205078125,0.40354448556900024,-0.07548143714666367,0.39232680201530457
1772698645236477700,6.543477783203125,0.34572216868400574,-0.10638981312513351,0.3914790451526642
1772698645246434600,6.5534345703125,0.2624203562736511,-0.08242402970790863,0.3548333942890167
1772698645256391400,6.563391357421875,0.17441433668136597,-0.03982889652252197,0.28543752431869507
1772698645266348500,6.5733486328125,0.1338495910167694,0.0042879655957221985,0.16715800762176514
1772698645276305400,6.583305419921875,0.16424186527729034,0.022316498681902885,0.0022825580090284348
1772698645286262500,6.593262451171875,0.2512630522251129,-0.001731312833726406,-0.19911739230155945
1772698645296219600,6.6032197265625,0.35181525349617004,-0.06123459339141846,-0.40793684124946594
1772698645306176500,6.613176513671875,0.42120471596717834,-0.13586701452732086,-0.5961160659790039
1772698645316132600,6.623132568359375,0.42150771617889404,-0.18693818151950836,-0.7172591686248779
1772698645326089700,6.63308984375,0.35651087760925293,-0.21390454471111298,-0.753497838973999
1772698645336046300,6.64304638671875,0.2401273250579834,-0.21376341581344604,-0.6732103228569031
1772698645346003500,6.65300341796875,0.09498558193445206,-0.16675835847854614,-0.4925329387187958
1772698645355960600,6.662960693359375,-0.061293747276067734,-0.0640823096036911,-0.26028579473495483
1772698645365917400,6.67291748046875,-0.21603351831436157,0.06663016974925995,-0.06636238843202591
1772698645375874600,6.68287451171875,-0.29867222905158997,0.17565305531024933,0.04525681585073471
1772698645385831700,6.692831787109375,-0.27803510427474976,0.23573316633701324,0.04764487221837044
1772698645395788500,6.70278857421875,-0.17769141495227814,0.25595664978027344,-0.05410364642739296
1772698645405745400,6.712745361328125,-0.022899970412254333,0.2394362837076187,-0.21084851026535034
1772698645415702500,6.72270263671875,0.18363666534423828,0.19657456874847412,-0.35744526982307434
1772698645425659600,6.73265966796875,0.4059363007545471,0.1436554342508316,-0.41031408309936523
1772698645435616500,6.742616455078125,0.6129017472267151,0.07518476247787476,-0.3565587103366852
1772698645445573600,6.75257373046875,0.6616157293319702,-0.003499393817037344,-0.22862575948238373
1772698645455530800,6.76253076171875,0.44089317321777344,-0.033698033541440964,-0.08987937122583389
1772698645465487400,6.7724873046875,0.11766397207975388,-0.08201736211776733,-0.00839250348508358
1772698645475444500,6.782444580078125,-0.19042375683784485,-0.1035812571644783,0.024045029655098915
1772698645485401600,6.792401611328125,-0.44416841864585876,-0.12735982239246368,0.12593863904476166
1772698645495357400,6.802357421875,-0.5072953104972839,-0.22245649993419647,0.2559570372104645
1772698645505314600,6.812314453125,-0.2850632667541504,-0.08683528006076813,0.27057990431785583
1772698645515271400,6.822271484375,0.0554589182138443,-0.23396295309066772,-0.08141214400529861
1772698645525228500,6.832228515625,0.0913466066122055,-0.14801235496997833,-0.31251060962677
1772698645535185700,6.842185546875,-0.05830417573451996,-0.04979550465941429,-0.24188296496868134
1772698645545142500,6.852142578125,-0.22885221242904663,0.09343009442090988,-0.11920071393251419
1772698645555099400,6.862099365234375,-0.37072569131851196,0.22197102010250092,-0.15758635103702545
1772698645565056500,6.872056396484375,-0.4389633536338806,0.2678050994873047,-0.18661479651927948
1772698645575013600,6.882013671875,-0.4148227870464325,0.26892760396003723,-0.16980700194835663
1772698645584970500,6.891970458984375,-0.34298640489578247,0.24573706090450287,-0.07789571583271027
1772698645594927600,6.901927734375,-0.3299603760242462,0.23307479918003082,0.030412601307034492
1772698645604884700,6.911884765625,-0.3514725863933563,0.20793747901916504,0.10453104227781296
1772698645614841300,6.92184130859375,-0.3758266568183899,0.18527105450630188,0.1982613056898117
1772698645624798500,6.931798583984375,-0.40198954939842224,0.19000588357448578,0.3246764838695526
1772698645634755600,6.941755615234375,-0.43768253922462463,0.19987715780735016,0.41121143102645874
1772698645644712400,6.95171240234375,-0.4310467541217804,0.1117696762084961,0.49375635385513306
1772698645654669600,6.961669677734375,-0.21751879155635834,0.1329689621925354,0.5570990443229675
1772698645664625700,6.971625732421875,-0.2684780955314636,0.3036656379699707,0.46273866295814514
1772698645674582500,6.98158251953125,-0.4222985506057739,0.3533024191856384,0.32124605774879456
1772698645684539600,6.99153955078125,-0.5807917714118958,0.10760049521923065,0.33406251668930054
1772698645694496500,7.00149658203125,-0.4955267012119293,0.042696334421634674,0.3921270966529846
1772698645704453400,7.011453369140625,-0.2655864357948303,0.000778712797909975,0.3685099184513092
1772698645714410200,7.02141015625,-0.0019977125339210033,-0.07945673167705536,0.30446740984916687
1772698645724367400,7.031367431640625,0.28855130076408386,-0.11021438241004944,0.27150171995162964
1772698645734324500,7.041324462890625,0.3521744906902313,-0.11164769530296326,0.16172097623348236
1772698645744281300,7.05128125,0.31068989634513855,0.021289849653840065,0.026339713484048843
1772698645754238500,7.061238525390625,0.2136656641960144,0.13889209926128387,-0.1150665134191513
1772698645764195300,7.0711953125,0.1567286103963852,0.1883920133113861,-0.23135557770729065
1772698645774152200,7.081152099609375,0.16725550591945648,0.21023952960968018,-0.31495827436447144
1772698645784109300,7.091109375,0.20234158635139465,0.19280515611171722,-0.36525872349739075
1772698645794066400,7.10106640625,0.2396164834499359,0.15549692511558533,-0.38834017515182495
1772698645804023300,7.111023193359375,0.2636509835720062,0.08110525459051132,-0.3731532096862793
1772698645813980400,7.12098046875,0.2304757982492447,0.024347420781850815,-0.3630518317222595
1772698645823937500,7.1309375,0.08319659531116486,-0.012078231200575829,-0.43680888414382935
1772698645833894400,7.140894287109375,-0.1343402862548828,-0.018804308027029037,-0.6074872016906738
1772698645843850500,7.1508505859375,-0.47169139981269836,-0.018924951553344727,-0.8959791660308838
1772698645853807400,7.160807373046875,-0.5404526591300964,0.05361556634306908,-1.0228571891784668
1772698645863764200,7.17076416015625,-0.4801368713378906,-0.002247163560241461,-0.9960165023803711
1772698645873721300,7.180721435546875,-0.3922296464443207,-0.05793333053588867,-0.8792840838432312
1772698645883678500,7.190678466796875,-0.3056841194629669,-0.1001145988702774,-0.7204701900482178
1772698645893635300,7.20063525390625,-0.19427315890789032,-0.13410985469818115,-0.5613372325897217
1772698645903592400,7.210592529296875,-0.060223210602998734,-0.16107594966888428,-0.39217081665992737
1772698645913549300,7.22054931640625,0.06486154347658157,-0.172615185379982,-0.2048719972372055
1772698645923506200,7.230506103515625,0.16440358757972717,-0.18194210529327393,-0.003528759814798832
1772698645933463300,7.24046337890625,0.21055860817432404,-0.17843258380889893,0.18633915483951569
1772698645943420400,7.25042041015625,0.1904674470424652,-0.16955840587615967,0.32723262906074524
1772698645953377500,7.26037744140625,0.13392315804958344,-0.14273184537887573,0.3587516248226166
1772698645963334400,7.27033447265625,0.07484092563390732,-0.07949322462081909,0.30649372935295105
1772698645973291500,7.28029150390625,-0.007093122694641352,0.006275480147451162,0.18041689693927765
1772698645983248400,7.290248291015625,-0.10997556149959564,0.035309527069330215,0.024503197520971298
1772698645993205200,7.300205322265625,-0.10081636905670166,0.0233407411724329,-0.04014986753463745
1772698646003162400,7.310162353515625,-0.05457936227321625,0.008224107325077057,-0.05417513847351074
1772698646013118200,7.3201181640625,-0.012574968859553337,-0.008722111582756042,-0.05218622833490372
1772698646023075300,7.330075439453125,0.024150289595127106,-0.006850176025182009,-0.03705254942178726
1772698646033032400,7.340032470703125,0.022348660975694656,0.004226443357765675,0.006829685065895319
1772698646042989300,7.3499892578125,0.0002699899487197399,0.03745417296886444,0.046574968844652176
1772698646052946400,7.359946533203125,-0.015404582023620605,0.06849118322134018,0.08488158881664276
1772698646062903300,7.3699033203125,-0.022963963449001312,0.094572052359581,0.11613644659519196
1772698646072860400,7.3798603515625,-0.010800493881106377,0.1276828646659851,0.1305231899023056
1772698646082817300,7.3898173828125,0.007155603263527155,0.13633200526237488,0.12103273719549179
1772698646092774400,7.3997744140625,0.04160625487565994,0.12168809026479721,0.08791179955005646
1772698646102731500,7.4097314453125,0.08078908175230026,0.0913618803024292,0.052510134875774384
1772698646112688400,7.4196884765625,0.11993459612131119,0.07456585019826889,0.003854089416563511
1772698646122645500,7.4296455078125,0.14096291363239288,0.07502418011426926,-0.037069372832775116
1772698646132602400,7.439602294921875,0.1469859629869461,0.0745924785733223,-0.06028689444065094
1772698646142559200,7.449559326171875,0.12183800339698792,0.06266817450523376,-0.08507479727268219
1772698646152516400,7.459516357421875,0.09284471720457077,0.056165535002946854,-0.10355997085571289
1772698646162473500,7.469473388671875,0.08696579188108444,0.020003801211714745,-0.08057103306055069
1772698646172430300,7.479430419921875,0.09445296227931976,0.004758274648338556,-0.07383500039577484
1772698646182387500,7.489387451171875,0.09685114026069641,0.003268768545240164,-0.0713430792093277
1772698646192343600,7.499343505859375,0.0827113538980484,0.007271499838680029,-0.05715242400765419
1772698646202300400,7.509300537109375,0.04579780995845795,0.03256860002875328,-0.04349200427532196
1772698646212257300,7.51925732421875,0.00872388668358326,0.05709446221590042,-0.08445407450199127
1772698646222214400,7.52921435546875,-0.01925182342529297,0.09026359766721725,-0.16647811233997345
1772698646232171300,7.539171142578125,-0.06326824426651001,0.13385768234729767,-0.2562669515609741
1772698646242128400,7.54912841796875,-0.14632265269756317,0.16928784549236298,-0.31992051005363464
1772698646252085500,7.55908544921875,-0.21419274806976318,0.1721171736717224,-0.37746384739875793
1772698646262042400,7.56904248046875,-0.23181675374507904,0.16474208235740662,-0.430172860622406
1772698646271999200,7.578999267578125,-0.2232046276330948,0.13754108548164368,-0.4527527093887329
1772698646281956400,7.588956298828125,-0.19890300929546356,0.09670710563659668,-0.43512311577796936
1772698646291913200,7.598913330078125,-0.1632443219423294,0.07197219133377075,-0.38919174671173096
1772698646301870300,7.608870361328125,-0.11054117232561111,0.07039506733417511,-0.31440141797065735
