time,seconds_elapsed,z,y,x
1772698489680970500,0.063970458984375,0.027743162450194356,-0.02247662022411823,-0.023040592516120523
1772698489690927600,0.073927734375,0.007552059347368776,-0.14838555787205696,0.03350841144602745
1772698489700884200,0.08388427734375,0.026277181550860403,-0.17993571138978004,0.20390872591780498
1772698489710841300,0.09384130859375,0.03737140701711177,-0.1964811879992485,0.2606066002987325
1772698489720798500,0.103798583984375,0.003161094379425049,-0.19141922843456266,0.19352034716596825
1772698489730755300,0.11375537109375,0.037277298992872236,-0.1636637910246849,0.11843836430525406
1772698489740712400,0.12371240234375,0.06806406692266463,-0.11333820988833904,0.05434855304211378
1772698489750670300,0.13367041015625,0.07216567528890445,-0.031626725885272024,-0.03643233606871217
1772698489760627500,0.14362744140625,0.017075601430796086,0.09897124636173248,0.0063217503674328325
1772698489770584300,0.153584228515625,-0.0496790999263525,0.20171499699950218,0.036931170702632514
1772698489780541400,0.16354150390625,-0.08100713512599468,0.21158932528197763,0.07136849702922626
1772698489790498600,0.17349853515625,-0.13750117576420307,0.1852823331147432,0.08635066984472796
1772698489800455400,0.183455322265625,-0.1590355101695284,0.16747779635488985,0.025560722110886124
1772698489810412300,0.193412353515625,-0.16103399051036685,0.220785023650527,0.016001615523733196
1772698489820369400,0.203369384765625,-0.20670853097047656,0.22849778998494147,0.07309917501304299
1772698489830326300,0.213326171875,-0.23994444561805575,0.16306348704397677,0.08378240852560848
1772698489840284400,0.223284423828125,-0.2938385328909382,0.07560206121206284,0.11129095850232988
1772698489850241500,0.233241455078125,-0.28449907867014407,0.026333295652270317,0.0718725923601538
1772698489860198400,0.243198486328125,-0.26867373302876946,-0.0011404022067785262,0.02802402521818876
1772698489870155300,0.2531552734375,-0.2476063950806856,-0.02289806050658226,0.024324111254327
1772698489880112400,0.2631123046875,-0.2172808149218559,-0.05076631064116954,-0.030480953383632003
1772698489890069500,0.273069580078125,-0.24643384416997433,-0.07217793198227881,-0.06996533396672457
1772698489900026400,0.2830263671875,-0.24978143756482749,-0.07382219205796718,-0.03797825033646077
1772698489909983500,0.2929833984375,-0.31116500381026413,-0.03802957866489887,0.04781140635833144
1772698489919940400,0.3029404296875,-0.37531741371452804,0.00869359406530857,0.145673997358419
1772698489929898500,0.3128984375,-0.3908358488311991,0.03629004152119159,0.18855810338240117
1772698489939855400,0.32285546875,-0.4080634259533137,0.017441548666357994,0.18276081528048962
1772698489949812500,0.3328125,-0.38938276394605636,-0.05945990470647811,0.09783694510217755
1772698489959769600,0.34276953125,-0.38576285641584546,-0.1175748245447874,0.18789485370069742
1772698489969726200,0.352726318359375,-0.3813859565058723,-0.1246983928143978,0.1628266095481813
1772698489979683300,0.362683349609375,-0.34634854539427906,-0.1541261473506689,0.06379102924596518
1772698489989640400,0.372640380859375,-0.2663245395541191,-0.08320435290932655,-0.09121091455854476
1772698489999597300,0.382597412109375,-0.15960899920854715,0.03348550549447536,-0.11141005483735351
1772698490009554400,0.392554443359375,-0.16263499596621842,0.09528349775969981,0.02169971756748855
1772698490019512300,0.40251220703125,-0.21240707140564918,0.14562018481194972,0.1497549099965021
1772698490029469400,0.412469482421875,-0.1529898733297363,0.1552197878062725,0.07539747855067253
1772698490039426300,0.42242626953125,-0.028947241010330617,0.20518413441479205,0.06388254345431923
1772698490049383400,0.432383544921875,-0.0008048501094803214,0.20593933669626713,0.0777513116678223
1772698490059341000,0.442341064453125,-0.052446226552128786,0.09680325467288493,0.12614135816432534
1772698490069298000,0.4522978515625,-0.06314882235229015,-0.03027180414497852,0.13352218913063407
1772698490079254800,0.4622548828125,-0.007207154899835586,-0.06620002661645412,0.12273228037320076
1772698490089212000,0.4722119140625,0.0924783406784758,-0.06007891338765621,0.06452266798876226
1772698490099169000,0.4821689453125,0.16652502567470073,-0.03052022594809532,0.032860395866073665
1772698490109127200,0.492127197265625,0.2971265781182796,0.01364975516796112,-0.0052723874449729915
1772698490119083800,0.502083740234375,0.4704126954257488,-0.05629179606437683,-0.14846574696879833
1772698490129041000,0.512041015625,0.7707680993974209,-0.14015665870904923,-0.3504323806418106
1772698490138998000,0.521998046875,0.8089777108043432,-0.22999124341309068,-0.2886814423887059
1772698490148955000,0.531954833984375,0.9852034617602825,-0.2567179222971201,-0.31074509789776056
1772698490158912000,0.541912109375,0.8966133241593838,-0.14274667520225048,0.04955876148231327
1772698490168869000,0.551869140625,0.66397945728302,0.0759609576523304,0.3665270812764764
1772698490178825700,0.56182568359375,0.6029302375584841,0.3578045533776283,0.5075295066272839
1772698490188782800,0.571782958984375,0.6931447614908218,0.39535014791786666,0.34798228407595305
1772698490198741000,0.581740966796875,0.5805933180660009,-0.23871055644154549,0.32621552915424107
1772698490208698000,0.591697998046875,0.11217150419652461,-1.0117810875624418,0.189453590917401
1772698490218655000,0.601655029296875,0.22842004857361314,-0.8053834857046603,-0.05777315719593316
1772698490228611800,0.61161181640625,0.09592879165960476,-0.28154373599588867,-0.15747070853821932
1772698490238569000,0.62156884765625,0.061446128353942184,0.2997106763273477,-0.15226481045819817
1772698490248525800,0.63152587890625,0.10499708252251147,0.7686912931233644,-0.04493643544390798
1772698490258483000,0.64148291015625,0.24346447297036647,0.9151607882410288,-0.07921009564138949
1772698490268440000,0.651440185546875,0.6275842018216848,0.9756476979076861,-0.0742887501237914
1772698490278397200,0.661397216796875,0.935065512150526,0.903009747198224,0.013893427730724215
1772698490288354800,0.671354736328125,0.9903390710830688,0.5727385129123925,0.22115524520240723
1772698490298312000,0.68131201171875,1.1321376517802477,0.23428046503961084,0.7287481359221041
1772698490308269000,0.69126904296875,1.0152969867289066,0.1813794804573059,0.8721312093317508
1772698490318226000,0.701225830078125,-1.2240168940544127,0.6360796429663896,-0.12105338737554848
1772698490328183000,0.71118310546875,-3.144957483616471,1.3866975192606448,0.2710470197650604
1772698490338140000,0.721139892578125,-2.9059207639604807,0.9004366818398236,1.0244847940519453
1772698490348097000,0.731096923828125,-1.4718810632884503,0.29914661270380016,-0.1290635657539591
1772698490358054000,0.741053955078125,-0.49837856071591374,0.5866302601426839,-0.5721975744361057
1772698490368012000,0.751011962890625,0.5371861380159855,0.9034884706258773,-0.605252944885008
1772698490377969200,0.76096923828125,1.3983651607006788,1.2811235136330128,-0.7752230329796671
1772698490387925800,0.77092578125,1.8929834921002386,1.517305428379774,-0.8005893832959234
1772698490397883000,0.7808828125,2.129060777428746,1.518366920131445,-0.530375508153066
1772698490407840000,0.790840087890625,1.858989452561736,1.310312198716402,-0.15301254181927068
1772698490417797000,0.800797119140625,1.2089134329468012,1.0777736089080572,0.18845104454504324
1772698490427754000,0.81075390625,0.4490197787851095,1.2398656205713747,0.41823677371498197
1772698490437711000,0.820711181640625,-0.1942494834244251,1.5613444765925406,0.5122944560067728
1772698490447668000,0.83066796875,-0.4810965865254402,1.8303256681352853,0.46186895815990864
1772698490457625900,0.8406259765625,-0.46719490242302414,2.016336315524578,0.4252872402157634
1772698490467583000,0.8505830078125,-0.4262976593673229,1.9537538948833941,0.42003509184122084
1772698490477540000,0.8605400390625,-0.8238210596710444,1.8645961865276097,0.36133024328574537
1772698490487497000,0.8704970703125,-1.225219255581498,2.3658342283278704,0.14846624015914275
1772698490497453800,0.880453857421875,-1.4113374549984932,3.164284699898958,-0.31242190853618085
1772698490507411000,0.890410888671875,-1.2954045524418354,3.7364053731739517,-0.6811344440929591
1772698490517368000,0.9003681640625,-0.9440618885546922,3.9542169339716433,-1.0239663231357932
1772698490527325000,0.910324951171875,-0.6256523569762706,3.9707939747631547,-1.1941025981102138
1772698490537282000,0.920281982421875,-0.4496832111299038,3.914936478462815,-1.0922405256778
1772698490547240000,0.930239990234375,-0.41441783648133274,3.821507084137201,-1.006738563350588
1772698490557196800,0.94019677734375,-0.3120516869843006,3.7417192616730928,-0.8642002702020108
1772698490567154000,0.95015380859375,-0.09810379761112853,3.549372981521487,-0.6792389857351779
1772698490577111000,0.960111083984375,0.246434428691864,3.2118916697263717,-0.5243893464155495
1772698490587068200,0.970068115234375,0.3541665256688371,2.6494062552809714,-0.3556024036908522
1772698490597025000,0.98002490234375,-0.005934066224098205,1.5247534062981605,0.25272640497554094
1772698490606982000,0.98998193359375,-0.6717898387730121,0.36240766325891016,0.9336884516436607
1772698490616939000,0.99993896484375,-0.9825228443741798,-0.3185176681280136,1.191012961531803
1772698490626896000,1.009895751953125,-0.5749835884254425,-0.5898930613309145,1.0456381297830493
1772698490636854000,1.01985400390625,0.5530956182768568,-0.8781669823646545,0.68154784719944
1772698490646811100,1.02981103515625,1.9201427171826362,-1.3803782531112432,0.01948401427939534
1772698490656768000,1.03976806640625,2.6938591449916363,-2.6629531345963477,-0.8355533638451248
1772698490666724900,1.049724853515625,2.2394366303801534,-4.775834346118569,-1.5418647000968455
1772698490676682000,1.059681884765625,0.6878875716149807,-6.971846845313906,-1.8771293587557971
1772698490686639000,1.06963916015625,-0.9807236859977245,-8.942856995424627,-2.207586617133021
1772698490696596000,1.079595947265625,-1.7629367239952087,-10.232640200853346,-2.269648813292384
1772698490706553000,1.089552978515625,-1.4295336214244365,-10.949324827885627,-2.1430035241939125
1772698490716511000,1.099510986328125,-0.19621347697377203,-11.6453571275115,-1.6562082876354456
1772698490726468000,1.109468017578125,1.4422341130435465,-12.268504223668575,-0.7488410028148442
1772698490736425000,1.119425048828125,2.9418074853777885,-12.640298723953961,0.10749724704148247
1772698490746382000,1.129382080078125,3.724439041048288,-13.063470360255241,0.555585791124776
1772698490756339200,1.139339111328125,3.442100939804315,-13.79037710609436,0.9928701969958841
1772698490766295800,1.1492958984375,2.4627111327588556,-14.486580086112022,1.1769042105499654
1772698490776253000,1.1592529296875,1.4040999049603937,-15.054479342299699,1.2751741037093103
1772698490786210000,1.1692099609375,0.7228139235675335,-14.983393297207355,1.540544119017571
1772698490796167000,1.1791669921875,0.7235948448121547,-13.90177411878705,1.8714706023417411
1772698490806124800,1.189124755859375,1.3636498211503028,-11.93518178511858,2.16043235950917
1772698490816082000,1.19908203125,1.9629238742887973,-9.702519178918003,1.958787797397375
1772698490826039000,1.2090390625,2.090976253706217,-7.677705542427301,1.177304681109637
1772698490835996000,1.218995849609375,1.4625485867977142,-5.995810440349579,0.3809835497174412
1772698490845953000,1.228953125,0.2788648721754551,-4.557388579070568,-0.017212854477018116
1772698490855910100,1.23891015625,-1.0180828180551529,-3.124459469988942,-0.09850910874269903
1772698490865867000,1.248866943359375,-1.8864543825924396,-1.5701362703353166,-0.06503970499965361
1772698490875823900,1.258823974609375,-2.0483950030863283,0.12266776376962661,-0.15073734516259282
1772698490885781000,1.268781005859375,-1.720639551013708,1.6210416971862316,-0.42588158937972037
1772698490895739100,1.2787392578125,-1.2897779447317124,2.921339866888523,-0.8057428936015814
1772698490905696000,1.288696044921875,-0.7908686381399631,4.139539599096775,-1.049595562171936
1772698490915652900,1.29865283203125,-0.3167185097515583,5.229895626202225,-1.0530635305434464
1772698490925610000,1.30860986328125,0.0018657893053023143,6.159675306904315,-0.7880713355716318
1772698490935566800,1.31856689453125,-0.053062897145748134,6.833748288178444,-0.2639638748373836
1772698490945524000,1.32852392578125,-0.5452805971443653,7.168065582984686,0.5492801151093095
1772698490955481000,1.338481201171875,-1.012836149573326,7.769830868417024,1.1040469910666346
1772698490965438000,1.34843798828125,-0.950669908517599,8.582127494511008,0.9532840365387498
1772698490975395000,1.35839501953125,-0.35501053874492644,9.266296337863803,0.44088169971071184
1772698490985353000,1.36835302734375,0.48090252525806426,9.781394562712311,-0.23795221235491334
1772698490995310000,1.37831005859375,1.1222843662858009,9.97809845355153,-1.02191837763004
1772698491005267000,1.388266845703125,1.1964695464372634,9.909164618057012,-1.8126409583628176
1772698491015224000,1.39822412109375,0.9682429746091366,10.062406383788584,-2.2093708702012895
1772698491025181000,1.408180908203125,0.8092424992203712,10.25738651957512,-2.2323326435938475
1772698491035137800,1.4181376953125,0.7036766768991947,10.29356608645916,-2.0854266567550597
1772698491045095000,1.428094970703125,0.5368003170361743,10.027367803633213,-1.804443623381853
1772698491055051000,1.438051025390625,0.023180950834881513,9.505737546667456,-1.4511870886974036
1772698491065008000,1.448008056640625,-0.5412976649880409,9.196908913382888,-1.0540555372554807
1772698491074966000,1.457966064453125,-0.846925456404686,9.073851858034729,-0.6948372446224093
1772698491084923100,1.467923095703125,-0.7408511000394821,9.08567498229742,-0.44285365737080573
1772698491094880000,1.4778798828125,-0.3623089155921712,9.066807784742116,-0.34147841860726474
1772698491104836900,1.4878369140625,0.10750058977603912,8.966798427504301,-0.3261953631490469
1772698491114794000,1.4977939453125,0.38684243181347844,8.888986289027333,-0.18538783931583164
1772698491124751000,1.507751220703125,0.27139347684886306,8.831620726251602,0.1605799996651709
1772698491134708200,1.517708251953125,-0.22740593962762504,8.637087165188788,0.5988429317122325
1772698491144665000,1.5276650390625,-0.7471592602729797,8.501356506228447,0.8726283451989293
1772698491154623000,1.537623046875,-1.0934861418247221,8.325596619218587,0.7862102178748697
1772698491164580000,1.547580078125,-1.3756921411216259,8.048073809301853,0.44339667820632456
1772698491174537000,1.557536865234375,-1.5104922412335873,7.767589811491966,-0.2140358599175699
1772698491184494000,1.567494140625,-1.5768483351945877,7.429933727651834,-0.9139094730056821
1772698491194451200,1.577451171875,-1.7117279302835464,7.095504789164662,-1.2164884713109583
1772698491204408000,1.587407958984375,-1.74489954752326,6.860286166492104,-1.3091584986366331
1772698491214365000,1.597364990234375,-1.6605261508345603,6.519731438601017,-1.1690144802134483
1772698491224322000,1.607322021484375,-1.6240180826485155,5.835993387880921,-0.8112877413123846
1772698491234279200,1.617279052734375,-1.7626865486264227,4.794051555332541,-0.2975901587757282
1772698491244237000,1.627237060546875,-1.6859049222409723,3.7659663987010714,0.003723605366703123
1772698491254194000,1.63719384765625,-1.1477367874503135,2.511107207137346,-0.036532545040175314
1772698491264151000,1.647151123046875,-0.3790355574548244,0.622580109924078,-0.12567688245773315
1772698491274108200,1.657108154296875,-0.014440028762817383,-1.7570885824888944,-0.1668974757162854
1772698491284065000,1.66706494140625,-0.19887546272464096,-4.060774689939618,0.07370967159420251
1772698491294022100,1.677022216796875,-0.5782020390152931,-5.443979106387496,0.3923286446722224
1772698491303979300,1.686979248046875,-0.5127169557351619,-5.981386193677783,0.3869344209458679
1772698491313936000,1.696935791015625,0.6136168320719152,-6.160204299214482,-0.0858233763013035
1772698491323893000,1.70689306640625,2.65420167286396,-6.471745698589086,-0.9175113699551671
1772698491333851100,1.71685107421875,4.793928221213817,-6.959061598020791,-1.9698045737132428
1772698491343808000,1.72680810546875,6.617662235999107,-8.53037041926682,-2.841485701189935
1772698491353765000,1.73676513671875,7.163944703662395,-12.790718418002127,-2.87298587808609
1772698491363722000,1.746721923828125,4.390686443263292,-18.239140475273132,-1.6211114014215766
1772698491373679000,1.75667919921875,-0.884503199648857,-21.649149994289875,0.26635668825805187
1772698491383636000,1.766635986328125,-5.758966846823692,-22.136323270380494,1.8934620693974196
1772698491393593000,1.776593017578125,-7.506716523081064,-19.933412243843076,2.459463236878812
1772698491403550200,1.78655029296875,-5.386289718484878,-16.271586018574236,1.9645259026579558
1772698491413507800,1.7965078125,-1.2826608062028884,-12.103652684164047,0.7248834233179688
1772698491423465000,1.80646484375,2.745571796572208,-8.953918487665057,-0.1541423313004896
1772698491433422000,1.816422119140625,5.03505051497221,-6.621395577308535,-0.5248307700401171
1772698491443379200,1.826379150390625,4.747959081721306,-4.664180728316307,-0.4503436478000134
1772698491453336000,1.836336181640625,2.70864170358181,-3.150886873665452,0.07612964701643213
1772698491463293200,1.846293212890625,0.7163057107172905,-1.8255185601145028,0.5012570387616754
1772698491473250000,1.85625,-0.04341470576934516,-0.5877180553793907,0.3932764469163492
1772698491483207000,1.86620703125,0.402059874689579,0.5255372012764216,-0.12609689796809107
1772698491493164000,1.8761640625,1.2639116820693015,1.5297300256669522,-0.7081542607046664
1772698491503122200,1.8861220703125,1.796091974622011,2.3563503606677054,-1.2259347103744744
1772698491513079000,1.8960791015625,1.691144576460123,2.931567246392369,-1.449014566963911
1772698491523036000,1.906035888671875,1.1735258932232857,3.3801860431611535,-1.3874290484055876
1772698491532993000,1.915992919921875,0.421448465770483,3.560984508860111,-1.2549943622507154
1772698491542950100,1.9259501953125,-0.4692833626022562,3.5205893701076505,-0.9498564001776277
1772698491552907000,1.935906982421875,-1.2010311552643775,3.564037466689944,-0.5400689634433016
1772698491562864000,1.945864013671875,-1.5340893899202346,3.66395330042541,-0.26432017746176567
1772698491572821200,1.9558212890625,-1.2552327010512352,4.129240323400497,-0.17120194971086455
1772698491582777900,1.96577783203125,-0.5526139722397551,4.633566978865861,-0.10602732975254767
1772698491592736000,1.975736083984375,0.07127071747686714,4.930948919984698,0.12915974700427613
1772698491602693000,1.985693115234375,0.3376618194611743,5.302925206577777,0.36537005672845985
1772698491612650200,1.995650146484375,0.3217196790397167,5.717308556267619,0.43176158732902253
1772698491622607000,2.005607177734375,0.07083119354844093,6.095474345150589,0.29733846730329094
1772698491632564000,2.01556396484375,-0.17608718273546545,6.413741837909817,0.08338300654501654
1772698491642521000,2.02552099609375,-0.38747488449811934,6.555628681412339,-0.3124757210826501
1772698491652478000,2.03547802734375,-0.6816109755635261,6.667465839087963,-0.5989241071896627
1772698491662435000,2.04543505859375,-0.9557225157320499,6.837604963606595,-0.6068094901446253
1772698491672392200,2.05539208984375,-1.0847791768211872,6.887900734126568,-0.5243904789267108
1772698491682350000,2.06535009765625,-0.960450128775835,6.895740341711044,-0.4495307239819318
1772698491692307000,2.075306884765625,-0.6582207476258277,6.872131502586603,-0.2775784490941092
1772698491702264000,2.08526416015625,-0.3201683579444885,6.566981850075721,-0.010612999554257839
1772698491712221200,2.09522119140625,0.008966565787792206,6.15934914368987,0.2493815332607366
1772698491722178000,2.105177978515625,0.12081833651065825,5.584710934635996,0.4157960294993594
1772698491732135200,2.11513525390625,-0.032408231651782984,4.740815639707446,0.6083286625359207
1772698491742092000,2.125092041015625,-0.4638205306190997,3.519515603396296,0.7738791440900414
1772698491752049000,2.135048828125,-1.08887667526789,1.8872902488946914,0.8290243274025618
1772698491762006000,2.145006103515625,-1.337817460757494,0.22346797912418842,0.5137714332241564
1772698491771964200,2.154964111328125,-1.0621593487340957,-1.3664765690088272,0.028484610200952738
1772698491781921000,2.164921142578125,-0.24606727587990462,-2.854002360674739,-0.3797352301567793
1772698491791878000,2.1748779296875,0.5981622925043105,-4.252056555730104,-0.6554375466480851
1772698491801835000,2.1848349609375,1.1454243457894773,-5.711778394669294,-0.6848678584676235
1772698491811792100,2.194792236328125,1.3418518308401106,-7.41664462248981,-0.6799554634414613
1772698491821749000,2.2047490234375,1.1838906353712082,-9.305442353338002,-0.5581903475999832
1772698491831706000,2.2147060546875,0.7448455765031278,-11.304576189649104,-0.11599811327997595
1772698491841663200,2.224663330078125,0.18001885962858796,-13.09557113339305,0.26824564380981025
1772698491851619800,2.234619873046875,0.0344390068270266,-13.70184308259487,0.33112069072201844
1772698491861578000,2.244577880859375,0.5528113579753786,-13.26190852754116,0.18030100103821603
1772698491871535000,2.25453515625,1.8152222070276736,-12.28919396047592,-0.1918267680558376
1772698491881492200,2.2644921875,3.3790228446006774,-11.1714221031785,-0.5008074683632702
1772698491891449000,2.274448974609375,4.928729490369558,-10.578812768626213,-0.6006570319294929
1772698491901406000,2.284406005859375,5.957423718810081,-10.908304250711202,-0.42181123466826975
1772698491911363000,2.294363037109375,5.799200657534599,-12.069158878409862,0.20407743354821575
1772698491921320000,2.30431982421875,4.082643407398462,-12.997186747008561,1.0584750341981648
1772698491931277000,2.314277099609375,0.7685247043848037,-13.364052558720111,1.6927014505133031
1772698491941235000,2.32423486328125,-2.6481261523425577,-13.210532560569048,1.9153174889832734
1772698491951192000,2.334192138671875,-4.640444463419914,-11.934704815256595,1.5042138916164636
1772698491961149000,2.34414892578125,-4.447085791355371,-9.73260919675529,0.6903335034623742
1772698491971106000,2.35410595703125,-2.7852573257505893,-7.209974633431434,0.2858147826449014
1772698491981063200,2.364063232421875,-0.7030933240532875,-4.695044068613648,0.6354567618276924
1772698491991020000,2.37402001953125,0.9374375019788741,-2.23817523214221,1.640462290840596
1772698492000977200,2.38397705078125,1.4330664717257022,0.0256891525298357,2.7433833466172217
1772698492010934000,2.39393408203125,1.0142460163712501,1.8284978681862354,3.45299321295768
1772698492020891000,2.403890869140625,0.20770985350012777,2.960756515997648,3.4454163479626176
1772698492030849000,2.41384912109375,-0.47498014947175976,3.7227357442617413,2.658778479260206
1772698492040806100,2.42380615234375,-0.9448352110147475,4.535566623362898,1.4996090281695127
1772698492050763000,2.433762939453125,-1.3150105856657028,5.414962855261564,0.44030883172620083
1772698492060720400,2.443720458984375,-1.6213286974340677,6.208044493275881,-0.37520116692371663
1772698492070677500,2.453677490234375,-1.7096230669587849,7.142877950236201,-0.845552706746757
1772698492080634600,2.463634521484375,-1.3438573254436255,8.210611226645112,-1.2555328530415892
1772698492090591700,2.473591796875,-0.6845300778806209,9.22118878363669,-1.411294784900546
1772698492100548600,2.483548583984375,0.3088800712108612,10.191702625787258,-1.4246904191769658
1772698492110505500,2.49350537109375,1.2172247496962547,11.007592307937145,-1.2859636471405624
1772698492120463600,2.503463623046875,1.8160148187100886,11.630600287884473,-1.1123046048674732
1772698492130420500,2.51342041015625,2.1002993778467176,11.995125673949717,-0.9500023114543408
1772698492140377600,2.523377685546875,2.0814871253490446,11.983673721086978,-0.8711815073914826
1772698492150334700,2.533334716796875,1.566107160949707,11.574611274158954,-0.9258293356411158
1772698492160291600,2.54329150390625,0.6283318053185939,10.902987439602613,-1.0552048534210772
1772698492170248400,2.55324853515625,-0.21422610352635382,10.364552762830257,-1.3417264508947728
1772698492180205600,2.56320556640625,-0.7800958997130394,9.767845929831266,-1.779028465487808
1772698492190162700,2.57316259765625,-0.9957178415119647,9.18380977783501,-2.2314675511971114
1772698492200119600,2.58311962890625,-1.0619991166710854,8.84913592467606,-2.4022984573721886
1772698492210077400,2.593077392578125,-1.013788920253515,8.71504134248495,-2.1216908331826327
1772698492220034600,2.60303466796875,-0.9125953216671943,8.66523072513342,-1.5891573432780801
1772698492229991400,2.612991455078125,-0.7562848160147666,8.678854761338233,-0.9150910840056836
1772698492239948500,2.622948486328125,-0.6881459302902221,8.76146114835441,-0.11203929265160113
1772698492249905700,2.63290576171875,-0.6971756244421005,8.826417312389612,0.6852364725843072
1772698492259862800,2.64286279296875,-0.6216285082876682,8.926770953020453,1.24255544417724
1772698492269819400,2.6528193359375,-0.5667465790212154,8.896660476917027,1.486994315137714
1772698492279776500,2.662776611328125,-0.5474772669384256,8.685159998962282,1.45562813988477
1772698492289734700,2.672734619140625,-0.5172152900677174,8.495937403789162,1.1214843750145285
1772698492299691500,2.68269140625,-0.5578782494435086,8.188920203840732,0.5804426940815522
1772698492309648600,2.692648681640625,-0.7925788761239498,7.645743885499239,0.11772064448995515
1772698492319605500,2.70260546875,-1.2223732185006142,6.942647054314613,-0.3639134281793609
1772698492329562600,2.712562744140625,-1.6329799722611904,6.229629717618226,-0.8695261413998902
1772698492339519500,2.72251953125,-1.6606676051318645,5.256708229804039,-1.24513391636312
1772698492349476600,2.7324765625,-1.1794224769812076,4.15148371939063,-1.3575496045790612
1772698492359433700,2.742433837890625,-0.5169605115890502,2.64151988594532,-1.3123477961972354
1772698492369390600,2.752390625,-0.12862287278175352,0.2509516138553619,-0.9846924434982239
1772698492379347500,2.762347412109375,-0.10169175736680626,-2.6113679087877273,-0.4512367972474545
1772698492389305600,2.7723056640625,0.13990056505613027,-5.02264754499495,-0.06972273911619559
1772698492399262700,2.7822626953125,1.207755495083332,-6.351778425949812,0.09375760336667299
1772698492409219600,2.792219482421875,2.798773809927702,-7.014689377218485,-0.3709019718924537
1772698492419176700,2.8021767578125,4.282636402910947,-7.701767386016249,-1.0674236259378491
1772698492429133600,2.812133544921875,4.910083242088556,-8.458224051466583,-1.9846105131790042
1772698492439090400,2.82209033203125,4.736801727890968,-9.557039863881469,-3.021149317640066
1772698492449047600,2.832047607421875,4.113834664475918,-12.116897950184345,-3.5851518586501476
1772698492459004700,2.842004638671875,2.1734452780783173,-15.99136388657093,-3.234496592505276
1772698492468962600,2.851962646484375,-1.3129483924388885,-19.519818583226204,-1.7589448778800665
1772698492478919400,2.86191943359375,-5.172753350788355,-20.83739405094385,0.3173064291747287
1772698492488876500,2.87187646484375,-6.849343332195281,-19.24511199977398,2.3486828947797416
1772698492498833700,2.881833740234375,-4.471974733418226,-15.496126546490192,3.9427135431826112
1772698492508790500,2.89179052734375,0.5335037231761962,-11.144013871771097,4.670034130519628
1772698492518747600,2.90174755859375,5.0898400897800915,-7.251645198947191,5.0871939591854805
1772698492528704800,2.911704833984375,7.274781744384765,-4.730379001367091,4.735721823699772
1772698492538661400,2.921661376953125,6.682855131399631,-4.053857457897067,3.5488960116595027
1772698492548618500,2.931618408203125,3.658352996200323,-4.552434756055474,2.0172657053291796
1772698492558576600,2.94157666015625,0.30093758777379986,-5.090834946036338,0.6767407391786575
1772698492568533800,2.95153369140625,-1.7683844680070877,-4.9079631811946625,-0.7209036329668015
1772698492578490400,2.961490478515625,-2.3832032962799072,-4.187555149725079,-2.2403709886208176
1772698492588447500,2.971447509765625,-1.9506839859187601,-3.047274523499608,-3.5722187273189423
1772698492598404600,2.981404541015625,-1.0355682058632374,-1.6438719531536101,-4.1582779095754026
1772698492608361500,2.991361572265625,-0.31298341487646103,-0.2215998471647501,-3.895148658931255
1772698492618318600,3.001318603515625,-0.05276712906956672,1.1482044049620628,-2.999697948810458
1772698492628275700,3.011275634765625,-0.07433774036467075,2.3798107312321664,-1.7590183815076945
1772698492638233600,3.021233642578125,-0.32479367965757844,3.2893530950695276,-0.43144554364979265
1772698492648190500,3.0311904296875,-0.5834533836722373,3.9817631125450133,0.7786560761682688
1772698492658147600,3.041147705078125,-0.6588929477989673,4.61038893237412,1.6023614005051552
1772698492668104700,3.051104736328125,-0.4157441166490316,5.142386269575357,1.828169220753759
1772698492678061600,3.0610615234375,0.03498889579474926,5.4117848097473376,1.5880438290782273
1772698492688018700,3.071018798828125,0.42575463853180406,5.63880960457027,1.1085493439871816
1772698492697975600,3.0809755859375,0.42158056771755215,5.884288339972496,0.5423413653546943
1772698492707932400,3.090932373046875,0.22430676803588867,6.289595233759283,0.09198032802846282
1772698492717889500,3.1008896484375,0.12572013707756996,6.782102856615185,-0.1920520099127665
1772698492727847700,3.11084765625,0.2155950537919998,7.228574119961261,-0.27628055477067825
1772698492737804500,3.120804443359375,0.3337771965801716,7.588273108783364,-0.2698714549133554
1772698492747761400,3.130761474609375,0.4796107318818569,7.890116705486178,-0.32183534130863845
1772698492757718500,3.140718505859375,0.5061187995791435,8.052016993969678,-0.5157323945662007
1772698492767675600,3.150675537109375,0.24474048425555228,7.927978526368737,-0.7425745628312229
1772698492777632500,3.160632568359375,-0.060661681711673736,7.730961331796646,-0.943074777213484
1772698492787589600,3.170589599609375,-0.28512276352643967,7.544063964700698,-1.1887497658401727
1772698492797546800,3.180546630859375,-0.4821989948093891,7.3714511435449115,-1.327635527830571
1772698492807503400,3.19050341796875,-0.5871370406210422,7.34689187182784,-1.3602327061831951
1772698492817461500,3.20046142578125,-0.5755085621476173,7.335258132657408,-1.410364664443582
1772698492827418600,3.210418701171875,-0.45144379106163973,6.973861692267656,-1.348261113360524
1772698492837375700,3.220375732421875,-0.306909063398838,6.479759493696689,-1.2048292323730885
1772698492847332400,3.230332275390625,-0.17766776645779608,5.928755842730403,-1.0057272674161941
1772698492857289500,3.24028955078125,-0.18715923290252684,5.233314494735002,-0.8954049712829292
1772698492867246600,3.25024658203125,-0.19469960181210189,4.2592140262693166,-0.8264804150734096
1772698492877203500,3.260203369140625,0.05474748923182487,2.82365632224977,-0.7120944496978074
1772698492887160600,3.27016064453125,0.25544894354091957,0.8911229100495577,-0.6404496016789227
1772698492897117700,3.28011767578125,0.20981765770064664,-1.7371265754342078,-0.616239581790939
1772698492907075600,3.29007568359375,0.11079026070488616,-4.761365675783157,-0.33734504512958224
1772698492917032400,3.300032470703125,-0.2848176248337142,-7.568747155058383,0.36121816121339795
1772698492926989600,3.309989501953125,-0.8142600351214409,-9.73747475696504,1.2916609819993377
1772698492936946700,3.31994677734375,-0.8523217624902725,-11.16733980230093,2.1030001612380147
1772698492946903600,3.329903564453125,-0.05440262131690979,-11.938633971399069,2.260174882504344
1772698492956860400,3.3398603515625,1.4379168343663216,-12.539024461346864,1.751032789581269
1772698492966817500,3.349817626953125,3.007870149350166,-13.105146770989894,0.6969796634785831
1772698492976774400,3.3597744140625,3.9249230349481103,-13.761891016322373,-0.4898864805720746
1772698492986731500,3.3697314453125,3.9774879194438455,-14.85809284684658,-1.5161767166107891
1772698492996689700,3.379689697265625,3.125169664084911,-16.530434523159265,-1.9104384847700595
1772698493006646500,3.389646484375,1.7930314180076121,-18.405867160999772,-1.2200636994492262
1772698493016603400,3.399603271484375,0.8355728722631931,-20.32903068730831,0.7710016158923506
1772698493026560500,3.409560546875,0.5327215963551775,-22.011436661517617,3.511887884996831
1772698493036517600,3.419517578125,0.0008358663022518157,-22.128682400238514,6.387083548086881
1772698493046474500,3.429474609375,-0.6927578079998493,-20.199070428442955,8.757515625599027
1772698493056431900,3.439431884765625,-0.7576105116605758,-16.976839735531804,9.60047159385085
1772698493066388500,3.449388427734375,-0.031788674981333316,-13.589862717056274,8.846078875193
1772698493076346600,3.4593466796875,0.5296294024934992,-10.112762944585084,6.8322256086558095
1772698493086303700,3.4693037109375,0.24904720500614494,-6.6526458710968495,3.8678798359945414
1772698493096260900,3.4792607421875,-0.5055985750973224,-3.428844567868113,0.48823959014788265
1772698493106217700,3.4892177734375,-0.9862065013229846,-0.48341187773048877,-2.564080964694917
1772698493116174600,3.499174560546875,-1.0381026927769184,2.0972569414108992,-4.68902612349838
1772698493126131700,3.509131591796875,-0.862072756654024,4.281998689529299,-5.768800843095779
1772698493136088600,3.519088623046875,-0.785367118114233,6.068102354100346,-5.697103972628712
1772698493146045700,3.529045654296875,-0.9886883812665939,7.431028537151217,-4.718822419086099
1772698493156002800,3.5390029296875,-1.246782852613926,8.447699734842777,-3.3655984226211904
1772698493165960700,3.548960693359375,-1.2783061181247233,9.23422069916725,-2.075321442326158
1772698493175917600,3.55891748046875,-1.0089408957004546,9.853163913893699,-0.824059763797745
1772698493185874700,3.568874755859375,-0.6530570812523364,10.376219819748401,0.342035796761699
1772698493195831800,3.578831787109375,-0.38778234301209447,10.773368541520833,1.17974001849778
1772698493205788700,3.58878857421875,-0.4194833031773567,10.98833348071575,1.476872003443539
1772698493215745800,3.598745849609375,-0.571857674957253,11.240779132521151,1.2766660958327352
1772698493225702700,3.60870263671875,-0.5950993978023529,11.500720693039893,0.6235775234635919
1772698493235659500,3.618659423828125,-0.3274574189741164,11.605544172561167,-0.24458403331851586
1772698493245616600,3.62861669921875,0.06006311303032562,11.544466311264037,-1.0289864893853664
1772698493255574800,3.63857470703125,0.38771921464800835,11.212149250364304,-1.6970967628628015
1772698493265532000,3.648531982421875,0.2676058480689302,10.733456217849254,-2.0365217560715974
1772698493275488500,3.658488525390625,-0.18138300585495307,10.222422758221626,-1.94355983312726
1772698493285445600,3.668445556640625,-0.6701882487952708,9.812045137041807,-1.6162180764220655
1772698493295402800,3.67840283203125,-0.9231260680317879,9.529291440734267,-1.3089733513280748
1772698493305359600,3.688359619140625,-0.8229238185703754,9.458083815088868,-1.0434752526607365
1772698493315316700,3.698316650390625,-0.5140624885926023,9.475489707919955,-0.8518678812429309
1772698493325273900,3.70827392578125,-0.31825934598539024,9.462775772297382,-0.6886486191153526
1772698493335230500,3.71823046875,-0.13828973232600836,9.644055299511551,-0.4873966730503365
1772698493345188600,3.728188720703125,0.11889292140603065,9.853747266739607,-0.3770896110188216
1772698493355145700,3.738145751953125,0.3014250424971804,9.907349093067646,-0.26254606219502163
1772698493365102800,3.748102783203125,0.21458963960912078,9.91605262400508,-0.12615894861994312
1772698493375059700,3.758059814453125,0.11110467868261038,9.919358679813145,0.015338167195918503
1772698493385016600,3.7680166015625,0.07148593113012612,9.806334942701458,0.08292592869359068
1772698493394973700,3.7779736328125,-0.06675115769319236,9.614362756559252,0.03852496553298551
1772698493404930600,3.7879306640625,-0.2939140458125621,9.369617011606692,-0.0510174906569533
1772698493414887700,3.7978876953125,-0.5152479355175048,8.851417313611506,-0.22217333620376883
1772698493424844800,3.8078447265625,-0.8193149804234504,8.172913071891665,-0.4463799318008125
1772698493434802700,3.817802734375,-1.2189900058031082,7.4463780819743866,-0.5289955981019884
1772698493444759600,3.827759521484375,-1.6324129860281944,6.40497167147696,-0.5075581847324967
1772698493454716700,3.837716552734375,-1.908581020335108,5.145851315337419,-0.5221941013935953
1772698493464673800,3.847673828125,-1.6961014682151376,4.071051169282198,-0.7025371514752506
1772698493474630700,3.857630615234375,-1.1600503255784511,3.1078859363287688,-0.8890427427746355
1772698493484587800,3.867587890625,-0.4823077158808708,1.8502754002302884,-0.7736490616612136
1772698493494544600,3.877544677734375,0.41509697785191235,0.47477498228847975,-0.5269491139009594
1772698493504501500,3.88750146484375,1.54450922325626,-1.1627595845371483,-0.20851764448536558
1772698493514458600,3.897458740234375,2.797595413798094,-3.1841403239697215,0.060576715975115075
1772698493524416800,3.907416748046875,3.375349709045887,-5.4141240663498635,0.29962299804389475
1772698493534374000,3.917373779296875,2.847373297923803,-7.874009035772085,0.6895748671147972
1772698493544330500,3.92733056640625,1.5532301437199114,-10.621964512610434,1.1513171301551162
1772698493554287600,3.93728759765625,0.058438087378069756,-13.155475274735688,1.4226808329202234
1772698493564244700,3.94724462890625,-0.7901648737847805,-14.776889896887539,1.1632046979561448
1772698493574201600,3.95720166015625,-0.14369308920688925,-15.085151543939112,0.20432254914939402
1772698493584158700,3.96715869140625,1.2818483207762241,-15.226418794238567,-0.5569699754921719
1772698493594115800,3.97711572265625,1.7055062792897224,-15.638824706375598,-0.5772326094612479
1772698493604073700,3.98707373046875,0.8979482260249555,-15.445156237709522,0.0064582362286746495
1772698493614030600,3.997030517578125,0.27441775657348333,-14.502598323976994,1.1117558849435298
1772698493623987700,4.00698779296875,0.7517698958735912,-12.84741002703905,2.4931688148647546
1772698493633944800,4.01694482421875,1.620031643360853,-11.019732827585935,3.871480198574066
1772698493643901700,4.026901611328125,2.1489070491492748,-9.366260102394223,4.765586216087639
1772698493653858600,4.036858642578125,2.2554876014709473,-7.8802645890355105,4.632178154855966
1772698493663815700,4.046815673828125,2.2500527169406412,-6.918191827493906,3.709863987728953
1772698493673772500,4.0567724609375,2.088668561285734,-6.269390065598487,2.453450552460551
1772698493683730700,4.066730712890625,1.4894564674675463,-5.524034055355191,1.2471683448001742
1772698493693687600,4.0766875,0.5731997006833554,-4.522430662935972,0.4230417993765324
1772698493703644700,4.086644775390625,-0.24471595260249449,-3.5286896744549274,-0.19405038065575062
1772698493713601500,4.0966015625,-0.8824737396478652,-2.648589678201079,-0.8057548032350837
1772698493723558700,4.10655859375,-1.4427379709124564,-1.8426205015629529,-1.4218123795226216
1772698493733515800,4.116515869140625,-1.794763940888643,-1.0751847614586352,-1.9463522403247653
1772698493743472600,4.12647265625,-1.7347990092694758,-0.15752981831431387,-2.19531268036291
1772698493753429800,4.1364296875,-1.4535083712518215,0.8654302503883838,-2.166296429236978
1772698493763386600,4.14638671875,-1.1464999391317368,1.887975308549404,-1.8923845032937823
1772698493773344800,4.1563447265625,-0.8311328439891338,2.8728520225733516,-1.3999579828500748
1772698493783301600,4.166301513671875,-0.49938160027861594,3.8288299743711947,-0.8418810324966907
1772698493793258800,4.1762587890625,-0.18918637308226896,4.650572474202513,-0.2772401935830712
1772698493803215600,4.186215576171875,0.07619708622945472,5.3345986942142245,0.12114691087789833
1772698493813172500,4.19617236328125,0.1279658701777458,5.843239705747366,0.33575032328404486
1772698493823129600,4.206129638671875,-0.01653725677039474,6.1176470139920704,0.3875139013342559
1772698493833086700,4.216086669921875,-0.2192775416970253,6.298673443228006,0.3348217371970415
1772698493843043600,4.226043701171875,-0.3602279811322689,6.42104777700901,0.23901487315036354
1772698493853000700,4.236000732421875,-0.3924433205604553,6.585436375176906,-0.041648755542747676
1772698493862958600,4.24595849609375,-0.3491782158622518,6.827946908423304,-0.36676187641303987
1772698493872915700,4.255915771484375,-0.21935824225042014,7.158453705030679,-0.6449386567264795
1772698493882872600,4.26587255859375,-0.13219897770285605,7.471677942925691,-0.8068522430829703
1772698493892829700,4.27582958984375,-0.15689619658589363,7.637726583260298,-0.9511636833839118
1772698493902786800,4.285786865234375,-0.12607315176632256,7.916251263695955,-1.1952760258037596
1772698493912743700,4.29574365234375,0.06358896733522415,8.06973209888041,-1.39562141495049
1772698493922700500,4.305700439453125,0.23259762651920318,7.904403004992008,-1.512982596744597
1772698493932657700,4.31565771484375,0.25739417759086936,7.505819281980395,-1.3661578584484755
1772698493942614800,4.32561474609375,0.10353753136396407,6.952683295160532,-1.059111432405561
1772698493952572700,4.33557275390625,-0.12392101523373275,6.210162216082215,-0.8647020091790706
1772698493962529500,4.345529541015625,-0.4504969021329656,5.371164045545458,-0.6267088802918791
1772698493972486700,4.355486572265625,-0.919232056267932,4.462028508943319,-0.20792263773428274
1772698493982443500,4.365443603515625,-1.4671066884934902,3.603367022037506,0.2787073983251117
1772698493992400600,4.375400634765625,-1.8964613973438738,2.9334762948840853,0.6310870223108679
1772698494002357800,4.385357666015625,-1.6694878943167626,2.3759850354641676,0.7709007858663797
1772698494012315000,4.39531494140625,-0.8551169461667537,1.6392361100465058,0.8103960531696677
1772698494022271700,4.405271728515625,0.12275310396552085,0.5428805502653121,0.7524773865558206
1772698494032229600,4.415229736328125,0.83754380700998,-0.9202133954554795,0.9245035669300705
1772698494042186800,4.425186767578125,1.396557234495878,-2.7770138135403393,0.914415742027387
1772698494052143600,4.4351435546875,1.4435411039888857,-5.084050984984636,0.5855678916081786
1772698494062100500,4.4451005859375,1.4274538925409317,-7.475350493958592,0.16438465264514088
1772698494072057300,4.455057373046875,1.5027262834072113,-9.948995108664036,-0.5403857377748936
1772698494082014200,4.46501416015625,1.7448188835024834,-11.951785713917017,-1.14418596310094
1772698494091971300,4.474971435546875,1.9712135637283323,-13.407711667704582,-1.7126862539216876
1772698494101928200,4.48492822265625,2.375126372808218,-14.55832780998349,-2.3404518036596476
1772698494111885300,4.49488525390625,2.6986031246483324,-16.115778201746938,-2.8988877965837716
1772698494121843500,4.504843505859375,2.5789608461797235,-18.352951563370226,-2.6934499796688556
1772698494131800300,4.51480029296875,1.673532931923866,-20.571228501343725,-1.5704516198948024
1772698494141757200,4.524757080078125,0.2755740139365196,-22.060136687278746,0.06443661540681496
1772698494151714300,4.53471435546875,-0.7659387795448303,-21.842673501527308,2.205214627304673
1772698494161671400,4.54467138671875,-0.2997603972205892,-19.910627580583096,4.6310929899677635
1772698494171628300,4.554628173828125,1.576618033570051,-16.957330732941628,6.721807085606455
1772698494181585400,4.56458544921875,3.4288884070098398,-13.853870211839675,7.9088593998789785
1772698494191542300,4.574542236328125,4.036813384115696,-10.986793850058316,7.941601978051662
1772698494201500400,4.58450048828125,3.3224013781905173,-8.498269061607122,6.8939727475166315
1772698494211457300,4.594457275390625,1.8469453790247439,-6.3615726747334,5.111185075625777
1772698494221414400,4.604414306640625,0.2728033801794052,-4.440378402671218,2.8516256946712732
1772698494231371500,4.61437158203125,-1.2467746693074702,-2.7294144424974918,0.3859365324823186
1772698494241328000,4.624328125,-2.3745804293632506,-1.1099562151104212,-1.862412851139158
1772698494251285200,4.63428515625,-3.045800943815708,0.608006810170412,-3.5967581252917644
1772698494261242400,4.644242431640625,-3.1685622310876846,2.357427634510398,-4.590077673490345
1772698494271199200,4.65419921875,-2.7960815021038052,4.049429704582691,-4.76751484606266
1772698494281156400,4.66415625,-2.1605986559867856,5.560504714140295,-4.301410661485791
1772698494291114200,4.6741142578125,-1.4534429048001765,6.908228067362308,-3.32401816573739
1772698494301071400,4.6840712890625,-0.8373124094069003,8.187854620435834,-1.9588481492824852
1772698494311028200,4.6940283203125,-0.49202130064368244,9.29977833622694,-0.42583208768218755
1772698494320985300,4.7039853515625,-0.5283329694747925,10.086395162141322,1.0762120586797594
1772698494330942500,4.7139423828125,-0.7388789231836795,10.705326686429977,2.2042538194485006
1772698494340899300,4.7238994140625,-0.9189303699076176,11.269453438341618,2.526540630851686
1772698494350856200,4.733856201171875,-0.8893979859530925,11.844700134682654,2.007750711878389
1772698494360813300,4.743813232421875,-0.5684405599901452,12.292630949187277,1.0432697932165116
1772698494370771500,4.753771484375,-0.21072836107108742,12.459306196987628,-0.035186749604542274
1772698494380728300,4.763728271484375,0.035746984153054655,12.534545854628085,-1.0307661393437535
1772698494390685400,4.773685546875,0.05051087457537651,12.56722764252424,-1.8509788723245262
1772698494400642300,4.783642333984375,-0.018963059145212173,12.417013700181245,-2.3380926733128726
1772698494410599200,4.79359912109375,-0.20379004970788955,11.977754852432012,-2.555489369699359
1772698494420556300,4.803556396484375,-0.5088344517460093,11.43552896668315,-2.4022100484363733
1772698494430513400,4.813513427734375,-0.892670139491558,10.85457616765499,-2.0360249124653635
1772698494440470300,4.82347021484375,-1.225696809965372,10.30363622957468,-1.5164356598079203
1772698494450427400,4.833427490234375,-1.4628127906918524,9.925980143779515,-0.9814065536953508
1772698494460385300,4.84338525390625,-1.535162572109699,9.677181908565759,-0.5658290988501161
1772698494470342400,4.85334228515625,-1.436774678593874,9.543149870216846,-0.23279470172757283
1772698494480299300,4.86329931640625,-1.0667103631019592,9.493757770538329,-0.05498394660251215
1772698494490256400,4.87325634765625,-0.6245148773789405,9.539313653054833,-0.010422244488820433
1772698494500213500,4.883213623046875,-0.22024901707768438,9.583551438710092,0.07311331313624977
1772698494510170000,4.893170166015625,0.15671733288764952,9.628018941468,0.1959106946349144
1772698494520127200,4.903127197265625,0.3757786014854908,9.59897872494459,0.32066527461595834
1772698494530084400,4.91308447265625,0.3838029179871082,9.253242795023322,0.36341070282161236
1772698494540041200,4.923041259765625,0.061953475087881085,8.655463364356756,0.44949448362477123
1772698494549999400,4.932999267578125,-0.35317046383619305,7.845989978989958,0.4435986305192113
1772698494559956200,4.942956298828125,-0.8849719862043857,6.820126005539298,0.229988923591841
1772698494569913300,4.952913330078125,-1.3794447716534137,5.701422420349717,-0.26515474685607476
1772698494579870200,4.9628701171875,-1.4038649271607397,4.690092583686113,-0.8626977566845715
1772698494589827300,4.972827392578125,-0.7749684736967086,3.5993256376922127,-1.2192025525752455
1772698494599784400,4.982784423828125,0.4476841097345575,1.8582208062767982,-1.0594386915985494
1772698494609741300,4.9927412109375,1.5768541804134846,-0.4789145663112402,-0.23788879172988234
1772698494619698200,5.0026982421875,2.191145769941807,-3.270612738764286,0.9386265656329691
1772698494629656300,5.01265625,2.2360756295144557,-6.025356852829456,1.9547591264031827
1772698494639613400,5.022613525390625,1.5298866775333881,-8.155984148922562,2.5902526400446892
1772698494649570300,5.0325703125,0.30953122859597204,-9.53786579233408,2.5353856160864234
1772698494659527400,5.04252734375,-0.8554676593005657,-10.300360568904877,1.6703300442293285
1772698494669484300,5.052484375,-1.4215081358790398,-10.434853210502862,0.28538762500770387
1772698494679441200,5.062441162109375,0.02800437066964805,-9.070759737238287,-1.9190597442515194
1772698494689398300,5.072398193359375,3.5374306147933003,-7.335268069529533,-4.501382321949303
1772698494699355400,5.08235546875,7.146515429955721,-8.010231277641653,-5.7621881469577545
1772698494709313300,5.092313232421875,7.127822419923543,-11.775742918312549,-4.656521737995743
1772698494719270100,5.102270263671875,3.158307379055023,-15.21902576137781,-2.602011174638569
1772698494729227300,5.112227294921875,-1.5433610761344432,-16.37497391233444,-0.7385310595940798
1772698494739184400,5.122184326171875,-4.243472267258167,-16.18258203947544,1.1883740643955767
1772698494749141200,5.132141357421875,-3.51380190192461,-14.927106177318095,3.0783687499433756
1772698494759098400,5.142098388671875,0.042057519006729126,-13.112804007744788,4.61054646102339
1772698494769055500,5.152055419921875,4.427765004813671,-11.733790613245963,5.511723439836501
1772698494779012000,5.16201220703125,6.9763926720499985,-11.009617091763019,5.734854149830341
1772698494788969200,5.17196923828125,6.515992836594581,-10.726736554205416,5.172209745430946
1772698494798927400,5.18192724609375,3.85974182998538,-10.025786087399721,3.9717482067480683
1772698494808884500,5.191884521484375,0.9124830934643745,-8.62904648207426,2.523858552160859
1772698494818841300,5.20184130859375,-1.0363841984212399,-7.061990642097592,1.0153029780782759
1772698494828798200,5.211798095703125,-2.0801918248414992,-5.500693511778116,-0.33831783568449314
1772698494838755300,5.22175537109375,-2.525352005589008,-3.9134868641763925,-1.3230955463133751
1772698494848712200,5.231712158203125,-2.5902351043879985,-2.299640046930313,-1.9675746227040887
1772698494858669300,5.24166943359375,-2.5269009885966778,-0.6488473546028137,-2.333269344809651
1772698494868626400,5.25162646484375,-2.328723518073559,1.0023293686062098,-2.426103257460147
1772698494878584300,5.261584228515625,-2.025719060897827,2.662256969025731,-2.2011543921284376
1772698494888541200,5.271541259765625,-1.6139701513648033,4.205448533812165,-1.6515025941625237
1772698494898498300,5.281498291015625,-1.0902782856941222,5.647732331216335,-1.0302521254070103
1772698494908455400,5.291455322265625,-0.5012590845882893,6.8698337470382445,-0.5384936404179781
1772698494918412300,5.301412353515625,0.08784545671343803,7.88789435326159,-0.19196604866236447
1772698494928369400,5.311369384765625,0.5064262580931186,8.488930739897489,-0.07156177284531295
1772698494938326300,5.321326171875,0.5437982496321201,8.684860723754763,-0.04686564994081854
1772698494948283100,5.331283203125,0.1779120966076851,8.620031400969625,-0.0787943544473499
1772698494958240300,5.341240234375,-0.4402805920124054,8.533421039009093,-0.1246471010185778
1772698494968198400,5.351198486328125,-0.9749848500847816,8.477971538987756,-0.15035177991110832
1772698494978155300,5.3611552734375,-1.1069652166008948,8.531846921560168,-0.3907265432378277
1772698494988112100,5.371112060546875,-0.9576561141431331,8.54687439482212,-0.7946588242031634
1772698494998069200,5.3810693359375,-0.6904653131484985,8.633417536765336,-1.0203852497786283
1772698495008026400,5.3910263671875,-0.45708208920955656,8.710757966077328,-1.0076002947464584
1772698495017983200,5.400983154296875,-0.34066987870335574,8.744912164613604,-0.8474857206359505
1772698495027940400,5.4109404296875,-0.312992767226696,8.729047656005621,-0.664549219994992
1772698495037897500,5.4208974609375,-0.3396925581037998,8.738303560128807,-0.44530042946841564
1772698495047855400,5.43085546875,-0.45890345941781996,8.725852659356594,-0.149418700312078
1772698495057812700,5.440812744140625,-0.613159955149889,8.640607156008482,-0.021293146060593425
1772698495067769900,5.450769775390625,-0.5819032316207885,8.609982300642132,-0.14673651202339677
1772698495077726700,5.460726806640625,-0.448700081844069,8.354210719284415,-0.4309348541812971
1772698495087683600,5.47068359375,-0.4449497528672218,7.791893647143245,-0.6924499110944569
1772698495097640700,5.480640625,-0.7584989849328995,7.157132101038098,-0.9295837197385728
1772698495107597600,5.49059765625,-1.1783470297694205,6.4878825943976635,-1.1183746454961598
1772698495117554700,5.5005546875,-1.4782605351924896,5.5937815453201525,-1.1260477374073117
1772698495127511800,5.51051171875,-1.5096657272815703,4.405791073414683,-1.1270374060317874
1772698495137469700,5.5204697265625,-1.1247042869091033,2.9229519782602784,-1.3237233228228986
1772698495147426600,5.530426513671875,-0.4541676630675792,1.1396236236214636,-1.4309906883649528
1772698495157383700,5.5403837890625,-0.08463175536394119,-1.1082137553572655,-0.9810566442791372
1772698495167340800,5.5503408203125,-0.19375150730703025,-3.376490695774555,-0.3193939760385081
1772698495177297700,5.560297607421875,-0.3335398806929588,-5.310844309139251,0.028221867611538616
1772698495187254800,5.5702548828125,-0.22232059918735175,-7.023381217718124,0.36481161912810056
1772698495197211600,5.580211669921875,0.41520686796717343,-8.454019000992178,0.9572657265860587
1772698495207168500,5.59016845703125,1.580116981601715,-9.65427858736217,1.311256932220608
1772698495217126700,5.600126708984375,2.6902432925820348,-11.007744283628464,1.22735129917413
1772698495227083800,5.610083740234375,3.5593221286058423,-12.821901491773128,1.1143334072813391
1772698495237040600,5.62004052734375,4.100342730218172,-15.019383478999137,0.9515616697255521
1772698495246997500,5.62999755859375,3.9926913337945935,-17.43017854655981,0.8394655688527971
1772698495256954600,5.63995458984375,3.263121506226063,-20.15450647957325,0.8209072180509567
1772698495266911700,5.649911865234375,1.6214543696403503,-22.924247087240218,1.1374977905739099
1772698495276868600,5.65986865234375,-0.8364625145792961,-24.90120533210039,1.8742707544542847
1772698495286825700,5.66982568359375,-2.9497242498517036,-24.64698273375034,2.5519801925346255
1772698495296783600,5.67978369140625,-3.0402573382139204,-21.973772409033774,3.3759602421596644
1772698495306740700,5.68974072265625,-0.9571674538433551,-18.272275852155683,4.110172342576086
1772698495316697600,5.699697509765625,1.27053548412323,-14.591905085414647,4.577525065909326
1772698495326654700,5.70965478515625,1.8844798676490782,-10.911643039745092,4.575157167734205
1772698495336611800,5.71961181640625,1.0850760408759117,-7.738446719115972,4.08887674883008
1772698495346568700,5.729568603515625,-0.33881928240060805,-4.930466689425707,2.9437828771039842
1772698495356525600,5.739525634765625,-1.4557868375778198,-2.172790029039979,1.1458469551157207
1772698495366482700,5.749482666015625,-1.7843828321278095,0.5876975971132516,-1.092298028018698
1772698495376440800,5.75944091796875,-1.4330442598938942,3.2438603409171103,-3.217286222246289
1772698495386397700,5.769397705078125,-0.7090227141022681,5.521581986027956,-4.673647937102616
1772698495396354600,5.7793544921875,0.09284896408915519,7.289954763597249,-5.213308064016699
1772698495406311700,5.789311767578125,0.795367118602991,8.552068456333876,-4.981805246996879
1772698495416268500,5.7992685546875,1.160386425665021,9.370416637551784,-4.169349630948901
1772698495426225700,5.8092255859375,1.0897896253943442,9.915871422219276,-3.0796403773143886
1772698495436182800,5.819182861328125,0.7613689874112606,10.248103142923116,-2.0803280184417963
1772698495446139600,5.8291396484375,0.386819050937891,10.414555103361606,-1.0251114745829253
1772698495456097500,5.83909765625,0.18198329156935214,10.456332051861285,-0.15502569000627844
1772698495466054700,5.8490546875,0.03732582344287075,10.51848426439166,0.1545097033081576
1772698495476011800,5.85901171875,0.04052256452441215,10.767310556656122,-0.037418424496613444
1772698495485968600,5.86896875,0.3799158474206924,11.04505080871582,-0.4801906871942803
1772698495495925800,5.87892578125,0.9246732974737882,11.202219392502307,-1.064036540782824
1772698495505882600,5.888882568359375,1.3898837480813264,11.233033048439026,-1.4913745760485528
1772698495515839500,5.898839599609375,1.6027409013420342,11.025574539351462,-1.6750982815444468
1772698495525796600,5.908796630859375,1.587931454744935,10.693798745721578,-1.616376335723698
1772698495535753700,5.918753662109375,1.3735183042138814,10.371720170241593,-1.4995309944972395
1772698495545711900,5.9287119140625,1.1284569174408912,9.979798243206739,-1.3064859184265136
1772698495555668500,5.93866845703125,0.8390583762913942,9.509545706778765,-1.0515420200645924
1772698495565625600,5.94862548828125,0.5475905911197886,9.108733201801776,-0.788300541217625
1772698495575582700,5.958582763671875,0.3153144881725311,8.821835829818248,-0.5499939624670893
1772698495585539600,5.96853955078125,0.2788946827918291,8.718765915966033,-0.4420751472789794
1772698495595496700,5.97849658203125,0.34004323470499365,8.605825765484571,-0.5305431198049336
1772698495605453800,5.988453857421875,0.44965745563413945,8.591953891998529,-0.6597827362455427
1772698495615410700,5.99841064453125,0.6461281587719917,8.529777714070677,-0.7044331212896854
1772698495625368600,6.00836865234375,0.6532458818227053,8.157867478451132,-0.6607732085876167
1772698495635325700,6.01832568359375,0.4825941316068172,7.698637855818867,-0.6079525226999074
1772698495645282800,6.02828271484375,0.12937694255206733,7.239307110899686,-0.548073844592087
1772698495655239700,6.03823974609375,-0.21066167077673598,6.617604952853918,-0.5403905966131016
1772698495665196500,6.048196533203125,-0.4229027562320232,6.044788114008307,-0.6742671156067401
1772698495675153700,6.058153564453125,-0.6485410651326179,5.299634348338842,-0.7573887586686759
1772698495685110500,6.068110595703125,-1.0017518609791993,4.364135705468058,-0.6835100871831178
1772698495695067600,6.078067626953125,-1.0775134966671467,3.3924095649182795,-0.641788522132486
1772698495705024800,6.088024658203125,-0.7918518039584159,2.2157623248040674,-0.5382943915188312
1772698495714982700,6.097982666015625,-0.4984533795177936,0.701523882779479,-0.30404437641641124
1772698495724939500,6.107939453125,-0.34209377402663227,-1.131222875022888,0.09263944952432066
1772698495734896600,6.117896728515625,-0.2819803921137936,-3.04066767258048,0.5985374824922531
1772698495744853800,6.127853759765625,-0.19912322694063186,-4.478928790339827,1.0134258590947836
1772698495754810600,6.137810546875,0.24267124023344366,-5.48729393197894,1.22374004987441
1772698495764767700,6.147767822265625,0.8895558068633079,-6.428281235393881,1.3609024221383035
1772698495774724600,6.157724609375,1.3206208267629145,-7.594069812363386,1.5386350705258547
1772698495784681700,6.167681640625,1.1807996836185455,-8.861455892544985,1.7849371050097047
1772698495794639600,6.1776396484375,0.3954617550661787,-9.871337868487835,2.0621549406304953
1772698495804596700,6.1875966796875,-0.45006786306593566,-10.514316623318194,2.0601186124972997
1772698495814553900,6.197553955078125,-0.7649976993024349,-10.623624554777145,1.3499661637127398
1772698495824510500,6.207510498046875,-0.06973813761472701,-10.431401024222373,0.17848279090141878
1772698495834467600,6.217467529296875,1.312003805065155,-10.974170515328645,-0.5438770870219916
1772698495844424700,6.2274248046875,2.428821722638607,-12.029324880671501,-0.6257468303266912
1772698495854381600,6.237381591796875,2.4213643923699855,-13.08971305501461,-0.25752028818856926
1772698495864338700,6.247338623046875,1.3558943847179412,-13.675914860612153,0.5197305608242749
1772698495874296600,6.257296630859375,-0.04759062148081138,-13.446147489082813,1.4563142224527894
1772698495884253700,6.267253662109375,-0.900561185002327,-12.270982596480845,2.1694145612575113
1772698495894210600,6.27721044921875,-0.6851052474200725,-10.425763895118235,2.633722656197846
1772698495904167700,6.287167724609375,0.32277298748493194,-8.547492234459519,2.5717881780713796
1772698495914124800,6.297124755859375,1.2156208216309548,-6.808069657042622,2.1500269930899143
1772698495924081700,6.30708154296875,1.3197861295044422,-5.193364761662483,1.8042983696922659
1772698495934038500,6.31703857421875,0.8986872078239917,-3.694250823533535,1.424945855242759
1772698495943995600,6.32699560546875,0.2861573672711849,-2.2957629132360218,1.035845342304185
1772698495953953800,6.336953857421875,-0.26856092030406,-1.1582277863264083,0.6792755914185196
1772698495963910700,6.34691064453125,-0.8089058146119117,-0.25165304012298584,0.2941639289204031
1772698495973867800,6.35686767578125,-1.129309734877944,0.5770569606333971,-0.28205840751975775
1772698495983824600,6.36682470703125,-1.1889181081444025,1.4997347003757953,-0.9393811833925545
1772698495993781500,6.376781494140625,-0.9312772257834673,2.438728784146905,-1.352946348567307
1772698496003738600,6.386738525390625,-0.4415688782572746,3.241701701578498,-1.4511828509137032
1772698496013695700,6.39669580078125,-0.08465046006441115,3.8218291556984183,-1.3851321696400642
1772698496023652900,6.40665283203125,-0.0031038112342357633,4.336722797885537,-1.232393238864094
1772698496033609700,6.416609619140625,-0.21382395246624944,4.80339747582674,-1.0094585628990083
1772698496043567600,6.426567626953125,-0.48137306537926194,5.213987862974405,-0.7167850186668336
1772698496053524700,6.436524658203125,-0.660273588502407,5.584323981145024,-0.48160139424242077
1772698496063481300,6.4464814453125,-0.7670698294013738,5.908404544097185,-0.3365937153056264
1772698496073438500,6.4564384765625,-0.8364157528281211,6.2528463425546885,-0.22813078330345452
1772698496083395300,6.466395263671875,-0.7898305272638797,6.5310185562908645,-0.12512947770804167
1772698496093352200,6.476352294921875,-0.7050538104712962,6.793188898774981,-0.18145729493387042
1772698496103309300,6.486309326171875,-0.661269613802433,7.067844044300913,-0.32880050414614376
1772698496113266200,6.49626611328125,-0.59928223644495,7.428426245698333,-0.5083271963436157
1772698496123224300,6.506224365234375,-0.37194647597670555,7.8279703381747,-0.7039378851186484
1772698496133181400,6.516181396484375,0.013878924281336366,8.059424639877676,-0.9816005418974906
1772698496143138300,6.52613818359375,0.43133857614398,8.143467197176813,-1.2119839264333248
1772698496153095200,6.53609521484375,0.49733343557715415,8.023901491075753,-1.2762544462919234
1772698496163052300,6.54605224609375,0.2003320912737399,7.831875528919697,-1.2476026445642112
1772698496173009400,6.556009521484375,-0.15067220750451088,7.604609911078215,-1.3314736446887254
1772698496182966300,6.56596630859375,-0.44980241706278173,7.268081369963288,-1.55168466784358
1772698496192923400,6.57592333984375,-0.7476514277040958,6.704274936047196,-1.8037249537184834
1772698496202881300,6.58588134765625,-0.8538415194034575,6.0684723564565175,-1.970329620500654
1772698496212838400,6.59583837890625,-0.6840414175808429,5.452378685942292,-2.0549827109135688
1772698496222795300,6.605795166015625,-0.3647638709962368,4.686486668148636,-2.1009386986635623
1772698496232752400,6.61575244140625,0.11336100624203681,3.598479249995947,-2.1097461283668872
1772698496242709500,6.62570947265625,0.3903308219185099,2.227785355553031,-2.1119526985004544
1772698496252666000,6.635666015625,0.6116425728568807,0.41087680287361145,-1.906862379848957
1772698496262623200,6.645623291015625,0.8578221134722233,-1.8888427390336988,-1.4409776832416652
1772698496272580400,6.655580322265625,0.8780044852793216,-4.733883210095763,-0.5971427036656066
1772698496282538500,6.66553857421875,0.8917419187307357,-7.523081966948509,0.4725425835939124
1772698496292495400,6.675495361328125,0.7296750415086746,-10.005879609924554,1.0963533678241073
1772698496302452200,6.6854521484375,0.5316916322529316,-12.641492317652702,1.13664665363729
1772698496312409300,6.695409423828125,0.5433166035950183,-15.338742858648299,0.5669890825401991
1772698496322366200,6.7053662109375,0.6579448532938957,-17.58664804216623,-0.42268293946888297
1772698496332323300,6.7153232421875,0.9941665204167366,-19.403026433491707,-0.9917889045652002
1772698496342280400,6.725280517578125,1.019853919380903,-20.60685861765146,-0.3610517186053097
1772698496352237300,6.7352373046875,0.6525181520700455,-20.804373240351676,1.237290655516833
1772698496362195200,6.7451953125,0.47286418023109433,-19.871420190310477,3.045026744572818
1772698496372152300,6.75515234375,0.9809048877835274,-18.187866215109825,4.772355856353045
1772698496382109400,6.765109375,2.5289818865239617,-16.218438950276372,5.8836307528465985
1772698496392066300,6.77506640625,4.380923758661747,-14.419582187116145,6.433700922355055
1772698496402023400,6.7850234375,5.235462028157711,-12.764842802989483,6.443596877947449
1772698496411980300,6.794980224609375,3.8990754769861695,-11.210795497667789,6.333693318682909
1772698496421937200,6.804937255859375,0.9672276600867509,-9.803698164457082,6.491270483270287
1772698496431894300,6.814894287109375,-2.021895118695497,-7.954004363507032,6.325166313356161
1772698496441851400,6.824851318359375,-4.140924915975332,-5.723696211478114,5.589879277184605
1772698496451809300,6.834809326171875,-4.783211012366414,-3.11256444953382,4.205530074615776
1772698496461766100,6.84476611328125,-4.180823795643448,-0.30241642815470693,2.3148162810131905
1772698496471723300,6.85472314453125,-2.8913287595063446,2.2685458204865454,0.3137771590700373
1772698496481680400,6.864680419921875,-1.6597526822440325,4.613860992398858,-1.4610403741918503
1772698496491637200,6.87463720703125,-0.9346252941023557,6.5635138817042105,-2.902445489065349
1772698496501594400,6.884594482421875,-0.7165707183290273,8.193817912754415,-3.831140297140181
1772698496511551500,6.894551513671875,-0.7270459351141005,9.364897581869362,-4.286907212097943
1772698496521508000,6.904508056640625,-0.7346604287058115,10.30158455774188,-4.41986840634495
1772698496531466200,6.91446630859375,-0.6969213574200869,11.149991192615031,-4.240284869393706
1772698496541423400,6.92442333984375,-0.5213923200240358,11.737049907302856,-3.9022988229468463
1772698496551380500,6.93438037109375,-0.1950870667597279,12.24175065677762,-3.4218484253704546
1772698496561337300,6.94433740234375,0.23410043229758737,12.515572274088859,-2.9381013243362304
1772698496571294200,6.954294189453125,0.6706973673611879,12.560786211299895,-2.5660735998168587
1772698496581251300,6.964251220703125,1.0888882926404475,12.497398319494723,-2.361497075906396
1772698496591208200,6.974208251953125,1.3154215045541524,12.27974107247591,-1.984741153821349
1772698496601165300,6.984165283203125,1.4133663304775952,11.893745028358698,-1.5171766874335706
1772698496611123200,6.994123291015625,1.3811387160897255,11.425934624385834,-1.119881981319189
1772698496621080300,7.004080322265625,1.1128162807166575,10.776088906395435,-0.7082555291220546
1772698496631037200,7.014037109375,0.6651566843688488,9.993273810851573,-0.23227687013223766
1772698496640994300,7.023994384765625,0.13740527764167637,9.408819725704193,-0.026667715238407254
1772698496650951400,7.033951416015625,-0.12880347177935764,9.080669136834144,-0.06513634290769696
1772698496660908300,7.043908203125,0.012695194389484823,8.876111025363207,-0.14742489614635704
1772698496670865400,7.053865478515625,0.36081305101122707,8.606672737702727,-0.28275260032899674
1772698496680822300,7.063822265625,0.5357189515402541,8.366972001180052,-0.47082083783522244
1772698496690779100,7.073779052734375,0.4442530027747154,8.262948732125759,-0.6637322045236825
1772698496700737300,7.0837373046875,0.20968842356409875,8.288175527840853,-0.7301573451329022
1772698496710694400,7.0936943359375,0.06945230641067028,8.301094046124815,-0.7348144502237439
1772698496720651300,7.1036513671875,-0.0011298442801460622,8.234953640741109,-0.765109342983365
1772698496730608000,7.113608154296875,0.05752575830612331,8.188666521340608,-0.8529019004657864
1772698496740565200,7.123565185546875,0.05712243820223957,8.13481861129701,-0.9838967630758881
1772698496750522400,7.1335224609375,0.011928940991032868,7.991170018818974,-0.989976959772408
1772698496760479200,7.143479248046875,0.04534017567289993,7.7596940898060796,-0.9831874457627534
1772698496770436400,7.153436279296875,-0.0021516250759363175,7.350860190936922,-1.055589834150672
1772698496780394200,7.163394287109375,-0.2683627673834562,6.625238224211335,-1.1300506163731217
1772698496790351400,7.173351318359375,-0.6264671804904938,5.612073573336005,-1.1710807650934905
1772698496800308200,7.18330810546875,-1.07332948898077,4.22485349150598,-1.0660340712755918
1772698496810265300,7.193265380859375,-1.5098364076733588,2.720040464952588,-0.8822595123752951
1772698496820222500,7.203222412109375,-1.6681015545248985,1.2495195841014384,-0.5030835966017096
1772698496830179300,7.213179443359375,-1.2072738490462303,-0.43728374828398225,0.056009106665477155
1772698496840136200,7.22313623046875,-0.22374913415312767,-2.135771088722348,0.8433405105900019
1772698496850093300,7.23309326171875,1.1564824039638042,-3.7234605514049526,1.76439349867478
1772698496860051500,7.243051513671875,2.3685563467681408,-5.120806305930018,2.3205684147991237
1772698496870008300,7.25300830078125,2.926954784160852,-6.387066596952081,2.2858894617363807
1772698496879965200,7.262965087890625,2.7845746041834354,-7.594476639598607,1.7217916436582803
1772698496889922300,7.27292236328125,2.2418436915218827,-9.171330820012091,0.9668674484722316
1772698496899879200,7.282879150390625,1.6413082401454449,-10.936362470459937,0.1776877315335907
1772698496909836300,7.292836181640625,1.2479343607366085,-12.760652950084209,-0.6768376236818731
1772698496919793400,7.30279345703125,1.1830080073177813,-14.646459682422876,-1.1810158836524933
1772698496929750300,7.312750244140625,0.7449509365737438,-16.63882007907629,-1.0427182968135922
1772698496939708200,7.322708251953125,-0.6030711073338985,-18.047244276976585,-0.26655509690698237
1772698496949665300,7.332665283203125,-2.3926526771485803,-18.224345057201383,0.8150867682691663
1772698496959622400,7.342622314453125,-3.592364566507935,-17.055850728404522,1.6203542994439601
1772698496969579300,7.352579345703125,-3.2814819233030077,-14.662553908133505,1.9844173286944626
1772698496979536400,7.362536376953125,-1.5572200901389122,-11.861401094114779,2.014260386033356
1772698496989493200,7.3724931640625,0.3156231157302856,-9.289056451204418,2.067562060371041
1772698496999450000,7.3824501953125,1.4040338539868593,-6.9529118432193995,2.1316516707047817
1772698497009407200,7.3924072265625,1.6555056923240423,-5.0830947071731085,2.0529384917348623
1772698497019365400,7.402365478515625,1.4549550629287957,-3.6230379371911283,1.7805113975219427
1772698497029322500,7.412322509765625,0.9450047223627567,-2.4963953756958244,1.23151923250854
1772698497039279000,7.422279052734375,0.40996966143343594,-1.5475339779049158,0.46210126907844096
1772698497049236200,7.432236328125,0.1288204777130857,-0.5347375758200884,-0.36986086534168566
1772698497059193300,7.442193359375,0.05075224558319896,0.5263227986961603,-1.1934197304125875
1772698497069150700,7.452150634765625,0.020234394255280494,1.4709668710529804,-1.7750649686843156
1772698497079107800,7.46210791015625,-0.120599213867262,2.1093863551437853,-1.9961350928865371
1772698497089065000,7.47206494140625,-0.3892097454667091,2.614907773351669,-2.044100520762801
1772698497099021600,7.482021484375,-0.7265478493988513,3.0625422352582214,-1.9485892055965959
1772698497108979700,7.491979736328125,-0.999794297170639,3.4560604915738105,-1.7328864536464212
1772698497118936800,7.501936767578125,-1.1581278330832718,3.840128197976947,-1.3947382023751735
1772698497128893700,7.511893798828125,-1.1269529426187277,4.279716716071963,-0.9768404148235916
1772698497138850800,7.521850830078125,-1.015025768572092,4.677580892637372,-0.5740498877719045
1772698497148807700,7.5318076171875,-0.8012959241300821,5.095416428607702,-0.21397841237559914
1772698497158764800,7.541764892578125,-0.42936289215683937,5.571898214814067,0.04955656952522695
1772698497168721700,7.5517216796875,0.01590312358532101,6.060263915559649,0.17643121040016413
1772698497178678800,7.5616787109375,0.3449866093913093,6.577981967517733,0.22088198121897876
1772698497188636700,7.57163671875,0.6107821201026439,7.065664946696161,0.18286453138329087
1772698497198593500,7.581593505859375,0.7992360689908266,7.503073782664537,-0.03520326919779181
1772698497208550700,7.591550537109375,0.9503630345255136,7.81668731213808,-0.33447051260657606
1772698497218507800,7.6015078125,0.9156599699348211,8.006742851004004,-0.6290608502455055
1772698497228464600,7.611464599609375,0.7196668577134608,8.154901614382863,-0.9119725135937332
1772698497238421800,7.621421875,0.5089870484918355,8.287313942575453,-1.206996201148629
1772698497248379000,7.63137890625,0.34798984632790086,8.393809154701232,-1.607640656082332
1772698497258335700,7.641335693359375,0.2795014165133238,8.364764262002707,-1.953639474723488
1772698497268293600,7.651293701171875,0.25771277855336666,8.219818030929565,-2.190244729448855
1772698497278250800,7.661250732421875,0.18881695524798706,8.025347598230839,-2.2274930946081875
1772698497288208000,7.671207763671875,0.060762219476699825,7.65581285957098,-2.2828696755237874
1772698497298164500,7.68116455078125,-0.08165303181409836,7.109002568641305,-2.405426672395319
1772698497308121600,7.69112158203125,-0.024098083946108816,6.308729557818174,-2.4645225660949945
1772698497318078700,7.70107861328125,0.03817746270298958,5.111947292169928,-2.3008346635423598
1772698497328035800,7.711035888671875,-0.2414502105385065,3.323470468726754,-1.8194407015055416
1772698497337992700,7.72099267578125,-0.8160451649725436,0.6963426807492971,-1.2477145805060863
1772698497347950600,7.73095068359375,-1.5494629001408815,-2.2213433398067948,-0.5644627058677375
1772698497357907700,7.74090771484375,-2.096739055016637,-4.630297163414955,0.05389759440422058
1772698497367864600,7.750864501953125,-2.341692305240035,-6.5636793013989925,0.20123989030104128
1772698497377821700,7.76082177734375,-1.9787375294923781,-7.935448716118931,-0.09470878487797453
1772698497387778800,7.77077880859375,-0.9542845918834209,-8.956046731865406,-0.586272240485251
1772698497397736000,7.78073583984375,0.46080432460308074,-10.021541289436817,-0.9608367169406264
1772698497407692500,7.790692626953125,1.6536369758427143,-10.973629248058796,-1.046033924167603
1772698497417649700,7.800649658203125,2.7423428976535797,-11.767875253677367,-0.8196883437804877
1772698497427607800,7.81060791015625,3.5352971098959443,-12.92346567723751,-0.6068373645322397
1772698497437564700,7.820564697265625,3.8031530968010423,-14.60314777944088,-0.13764705050829798
1772698497447521800,7.830521728515625,3.5337118865311146,-16.973984930622578,1.0282416623674333
1772698497457478700,7.840478759765625,2.809139721119404,-20.424773034751414,3.1821634709388014
1772698497467435800,7.850435791015625,0.65914896838665,-23.989115037345886,6.181048934322595
1772698497477392600,7.860392578125,-2.6052549788653847,-25.669853955125806,9.450310258477925
1772698497487349800,7.870349853515625,-4.09933910613358,-24.47536710693836,11.677183175361156
1772698497497307000,7.880306884765625,-2.5116899754613637,-20.997831281137465,11.864824054300785
1772698497507263700,7.890263671875,0.39822774918079373,-16.877388012176752,10.459068783348798
1772698497517221600,7.9002216796875,2.2020155390024185,-13.093602463668583,8.112912484437226
1772698497527178800,7.9101787109375,1.8335814550608396,-9.688564303323625,5.457683222091197
1772698497537135600,7.920135498046875,0.013010872742533684,-6.7317486339062445,2.8234917793378234
1772698497547092700,7.9300927734375,-2.0207289975255724,-3.943472837117314,0.41864140899311747
1772698497557049900,7.9400498046875,-3.188996531829238,-1.3116174360960722,-1.6567859413929282
1772698497567006700,7.9500068359375,-3.1549884637653824,1.4353501987487076,-3.338399742311239
1772698497576963600,7.959963623046875,-2.190229239618778,4.2454508738547565,-4.46278224992007
1772698497586920700,7.969920654296875,-0.7492296368062495,6.756941527351737,-5.026914554789662
1772698497596878800,7.97987890625,0.576467762568593,8.779564960321784,-4.792936287567019
1772698497606835700,7.989835693359375,1.3238064710617066,10.09410266777873,-3.719808166377246
1772698497616792600,7.99979248046875,1.2478595419347285,10.75705687366724,-1.8836849178791044
1772698497626749700,8.009749755859374,0.6513631368160248,11.093119550836086,-0.029114195075072347
1772698497636706800,8.019706787109374,0.0709036696961848,11.211149717932939,1.1179406379930674
1772698497646663700,8.02966357421875,0.18971125547289847,11.32519344574213,1.2705103496819734
1772698497656620800,8.039620849609374,0.7370306649684906,11.467224081629514,0.8898395922407507
1772698497666578000,8.049577880859376,1.1528197898030281,11.588466781032086,0.2902582084524445
1772698497676535600,8.05953564453125,1.1341536677777766,11.69289629279971,-0.34768121877014635
1772698497686492700,8.06949267578125,0.8793944783329963,11.7414057644248,-0.9886766908288002
1772698497696449800,8.07944970703125,0.745737703037262,11.611686328577994,-1.731026651123911
1772698497706407000,8.089406982421876,0.6751847419083118,11.243465595126152,-2.3879598431572315
1772698497716363800,8.09936376953125,0.557519316470623,10.769306114387511,-2.7163287509530782
1772698497726320600,8.109320556640625,0.3919862244427204,10.335382782447338,-2.979408609497547
1772698497736277800,8.11927783203125,0.17502337116254493,10.030369908058642,-3.014118396089971
1772698497746234600,8.129234619140625,0.0614332414729055,9.720053082042933,-2.651825883643329
1772698497756191700,8.139191650390625,0.14911502292407675,9.510957911664248,-2.076982361275703
1772698497766149600,8.149149658203125,0.3573299216032028,9.351489818763733,-1.4762255222335456
1772698497776106800,8.159106689453125,0.5186369203686714,9.181129744970798,-0.9421685490887611
1772698497786063600,8.169063720703125,0.4708078322231769,8.976755757895111,-0.3447977722883224
1772698497796020700,8.179020751953125,0.25621347990632054,8.771994817328453,0.27363018639236686
1772698497805977900,8.188977783203125,-0.048346938007138664,8.616333130973578,0.6451905125956982
1772698497815934700,8.198934814453125,-0.38531682968139647,8.500169926792383,0.7751728371623903
1772698497825891800,8.208891845703125,-0.5464262965807691,8.408381285411119,0.5321470478702336
1772698497835848700,8.2188486328125,-0.5241162285625934,8.432220426160097,-0.06221616287836804
1772698497845806800,8.228806884765625,-0.4613245490849018,8.521765088006854,-0.6298259893991053
1772698497855763700,8.238763671875,-0.398372710609436,8.677522635951638,-1.1611171510923652
1772698497865720800,8.248720947265625,-0.41113633059263227,8.65610750747919,-1.4971046441331506
1772698497875678000,8.258677978515625,-0.3685516093740239,8.533117087626456,-1.561686714158952
1772698497885634600,8.268634521484374,-0.19688922081086782,8.197295233476162,-1.5078576549462974
1772698497895591700,8.278591796875,-0.08476031364705414,7.686352374741435,-1.2253309723276644
1772698497905548800,8.288548828125,-0.20475334178209303,6.965304291802644,-0.7283169048979878
1772698497915505700,8.298505615234374,-0.35900622078496963,5.706205562973022,-0.10393982855454087
1772698497925463600,8.308463623046874,-0.3775320940893143,3.6344513116091486,0.3686027915719896
1772698497935420700,8.318420654296874,-0.13788988282084463,1.1997791093766688,0.5420173575647175
1772698497945377800,8.328377685546876,0.7649205424129962,-1.36281570841372,0.5905432688679546
1772698497955334700,8.338334716796876,2.0078397053360937,-4.18604240707457,-0.11064582899920641
1772698497965291800,8.348291748046876,2.6382944941580293,-7.17557201309204,-0.8977721388056874
1772698497975249000,8.358248779296876,2.3389339464426038,-9.831312147569657,-1.1086841493479906
1772698497985205800,8.368205810546876,1.494571034002304,-11.940611993473768,-1.2243224528722465
1772698497995162600,8.37816259765625,0.5835246953427792,-13.71426534179449,-1.1049792304154484
1772698498005119700,8.38811962890625,0.6642097589075565,-15.285485900235175,-0.5430605099420994
1772698498015078000,8.398077880859375,1.3646972843766212,-17.014293560135364,0.5320583466734737
1772698498025034800,8.40803466796875,0.6182429575026035,-18.72680474975109,2.3277898904852568
1772698498034991600,8.41799169921875,-1.83346864233613,-19.784983431351183,4.32350295856744
1772698498044948700,8.42794873046875,-4.009354883825779,-19.32403297627568,5.379884527617692
1772698498054905600,8.437905517578125,-4.02380543398261,-17.21316661170721,4.978823600837588
1772698498064862500,8.447862548828125,-1.855350803798437,-14.135165526032447,3.4007287727132436
1772698498074819600,8.457819580078125,0.8921463348131626,-11.127503466475009,1.8772846954479812
1772698498084776700,8.467776611328125,2.7801334068655965,-8.678582374137639,1.1297434501200914
1772698498094734600,8.477734619140625,3.1725720512509343,-6.867505596351623,0.8773238095387816
1772698498104691500,8.48769140625,2.433786651569605,-5.621189776727557,0.7075463579393922
1772698498114648600,8.497648681640625,1.4798703084766864,-4.47454078451395,0.330342472891137
1772698498124605700,8.507605712890625,0.8230570895612239,-3.0830215441852804,-0.10391619195062667
1772698498134562600,8.5175625,0.326072029030323,-1.6574392907351254,-0.33957674970440566
1772698498144519700,8.527519775390624,0.051934769898653026,-0.3182096250921488,-0.5251240173656493
1772698498154476500,8.5374765625,-0.18299042278528213,0.8434200786322354,-0.6736987411342561
1772698498164433400,8.547433349609374,-0.5283166028618812,1.6677245379060506,-0.73187277074866
1772698498174391600,8.5573916015625,-1.0080734652161598,2.3286562980562446,-0.8342119591735303
1772698498184348700,8.5673486328125,-1.360007080733776,3.046795215550065,-1.0782879881709813
1772698498194305500,8.577305419921874,-1.2777742032051085,3.523810085719824,-1.201630144070834
1772698498204262400,8.587262451171876,-0.9531295766294002,3.812460438850522,-1.0891438017714767
1772698498214219500,8.597219482421876,-0.5959995615124702,4.249103551143407,-0.9700812228869646
1772698498224176600,8.6071767578125,-0.28052140721082686,4.818381109946966,-0.8349169656377285
1772698498234133500,8.617133544921876,-0.1607400125324726,5.091102072539925,-0.6057991075256839
1772698498244090600,8.627090576171875,-0.3854769886791706,5.145914443701505,-0.33260296516902743
1772698498254048500,8.637048583984376,-0.5789069724142551,5.367245410797,-0.06824563403464853
1772698498264005600,8.647005615234375,-0.47841947627067566,5.519002490928769,0.023258893175609408
1772698498273962500,8.65696240234375,-0.1667360380768776,5.428153176224232,0.06461841998081654
1772698498283919600,8.666919677734375,0.07033202098780311,5.0297535776078695,-0.16294504829607903
1772698498293876700,8.676876708984375,0.1491162102341652,4.518266528993845,-0.5305715056492015
1772698498303833600,8.68683349609375,0.14630816707611083,4.098604362118244,-0.9115466893970966
1772698498313790500,8.69679052734375,0.03675590090069454,3.7248844467282294,-1.2940678970105945
1772698498323747600,8.70674755859375,-0.32716391592025756,3.3094331755459305,-1.411406428581476
1772698498333705700,8.716705810546875,-1.020210477733612,2.745074368444085,-1.3468524156063795
1772698498343662600,8.72666259765625,-0.9710825819492339,2.429716625651717,-1.532889366480708
1772698498353619500,8.736619384765625,-0.14937571968687696,2.222107894438505,-1.925687491828203
1772698498363576600,8.74657666015625,1.1498971803545952,2.1094939071714878,-2.3715825627215206
1772698498373533400,8.756533447265625,2.710478271359205,2.2530910617232323,-2.7941175085544585
1772698498383490600,8.766490478515625,4.736461536151171,1.7780132970958946,-2.865408428569138
1772698498393447700,8.77644775390625,6.567663402599096,0.044885435909032816,-2.2940555247962475
1772698498403404500,8.786404541015624,6.201255856049061,-2.6894360678523777,-0.7978371619783341
1772698498413361700,8.796361572265624,2.8182857351273296,-5.184584658357501,1.210956410016492
1772698498423319600,8.806319580078124,-2.1455957326442,-7.047686222413182,3.1009108366191387
1772698498433276700,8.816276611328124,-6.334412865129113,-7.712924155324697,4.129892065307498
1772698498443233500,8.826233642578124,-7.877876817116141,-6.660144117897748,3.392165527029335
1772698498453190700,8.836190673828124,-6.345307768630981,-4.6684968379497525,1.6129973608098924
1772698498463147500,8.8461474609375,-3.023146044415235,-2.6175287695050238,-0.05398388444818556
1772698498473104400,8.8561044921875,-0.11014438228309154,-0.7719476645708083,-1.0244799717463553
1772698498483061500,8.8660615234375,1.6272703624427318,0.8592869253277778,-1.2617188482001422
1772698498493018600,8.8760185546875,1.912448071026802,2.2794547525137663,-0.7208855858534574
1772698498502976800,8.885976806640626,1.4813924034774302,3.205021783956885,-0.0193986740835011
1772698498512933400,8.895933349609376,1.0347919607937335,3.5587995660364626,0.553861634213291
1772698498522890500,8.905890380859375,0.9048808017671107,3.3082226307123896,0.7311185183152556
1772698498532847600,8.91584765625,1.0856512104153633,2.7685294783115384,0.5605911251313984
1772698498542804500,8.925804443359375,1.2012637949764728,2.1497814938962456,0.353570386406593
1772698498552761600,8.93576171875,1.104753385770321,1.5240432122021912,0.16987649152707307
1772698498562718700,8.94571875,0.6304407602965831,0.6882575739711523,-0.08303422963996418
1772698498572675600,8.955675537109375,0.003737433533478179,-0.26099662252962585,-0.41771695109196005
1772698498582633500,8.965633544921875,-0.5002437700659036,-0.8689742066055536,-0.8501637076735497
1772698498592590600,8.975590576171875,-1.114081770607829,-1.3291343880861997,-1.226734044058621
1772698498602547700,8.985547607421875,-1.4200240348011255,-1.5723171215057372,-1.3758878098241984
1772698498612504600,8.995504638671875,-1.3508236573249102,-1.539347748839855,-1.490571589102596
1772698498622461400,9.00546142578125,-1.2710738287836312,-1.4739695600003002,-1.352698949677497
1772698498632418600,9.01541845703125,-1.1173071623951196,-1.3143635199338197,-1.0502993995923549
1772698498642375400,9.02537548828125,-0.8829232369810343,-0.9424749116241932,-0.7306232090789825
1772698498652332500,9.03533251953125,-0.5626023188233376,-0.5160363824814558,-0.3661476535048336
1772698498662289700,9.04528955078125,-0.2406441548526287,-0.10428455033898353,-0.13259992318656294
1772698498672247600,9.05524755859375,0.08943535625338554,0.16480711584091184,0.13085423942985944
1772698498682204400,9.065204345703124,0.39016251614689823,0.358030763348937,0.37591271272655574
1772698498692161500,9.07516162109375,0.4349333857655525,0.4453595027118921,0.6644367725964635
1772698498702118700,9.08511865234375,-1.375160226202011,0.2670207051247358,2.2054275394029914
1772698498712075500,9.095075439453124,-0.22786066112518308,-0.4813619594633579,0.12477669134815222
1772698498722032600,9.10503271484375,-0.41991701841950413,-0.8332967440247535,-0.8504858523000032
1772698498731989500,9.114989501953126,-1.0898866560280323,-0.48390404516160485,-1.2626258800424635
1772698498741946400,9.1249462890625,-0.16050616724397987,0.15376315925717354,-0.48484760962203144
1772698498751904500,9.134904541015626,0.739137281858921,0.9306558790147303,0.2453142472892068
1772698498761861600,9.144861572265626,1.150244386357069,0.8674696472615003,0.1421037924551405
1772698498771818800,9.15481884765625,0.6732768624603748,0.716619160580635,-0.0444411262076348
1772698498781775400,9.164775390625,0.12178751033637672,0.4821627544522285,0.05086443725340068
1772698498791732500,9.174732421875,-0.12816928379535675,0.25833704793155193,0.31291360104326155
1772698498801689600,9.184689697265625,-0.14513097652290016,0.14325754733383655,0.5029202957987785
1772698498811646500,9.194646484375,-0.021730222303606567,0.09257248523533344,0.30451245058588683
1772698498821603600,9.204603515625,0.1763338509729132,0.15829028129279613,0.24201211873758582
1772698498831561500,9.2145615234375,0.3030839156201109,0.09526420853734016,0.17687071606228127
1772698498841518600,9.2245185546875,0.3081541315564886,0.011938275074958801,-0.23810186822498217
1772698498851475500,9.234475341796875,0.24335867450833318,-0.07159633270204067,-0.6612337387714534
1772698498861432600,9.2444326171875,0.02775781203005463,-0.3742413089156151,-0.7487119696076959
1772698498871389700,9.2543896484375,0.015374094742536544,-0.6817886702179908,-0.3110409755717963
1772698498881346600,9.2643466796875,-0.2830243299424648,-0.8840770831912755,0.36158600814510133
1772698498891303400,9.274303466796875,-0.4749496447356418,0.17203882066011428,-0.2586030784565955
1772698498901260500,9.284260498046875,-0.39581371030900625,0.3738169460237026,-0.3577957124840468
1772698498911218700,9.29421875,-0.3675976331174373,0.07111819379627704,0.059731342059001324
1772698498921175600,9.304175537109375,-0.4044856405317783,0.014664485168457031,0.3050793272210285
1772698498931132700,9.314132568359375,-0.17572605780549347,0.3720528589606285,0.16096417667716742
1772698498941089500,9.324089599609374,0.04606496454980224,0.7709370262235402,-0.07225267771892249
1772698498951046400,9.33404638671875,0.11347553599979728,0.7787281184911727,-0.13603000723309813
1772698498961003500,9.34400341796875,0.23814123212099073,0.7149579493701458,-0.23804694143366067
1772698498970960600,9.353960693359374,0.3773029615085572,0.13553659769296644,0.11798099419288337
1772698498980917500,9.36391748046875,0.4750642475586384,0.3912625863432884,-0.032112335711438206
1772698498990874600,9.37387451171875,0.6513257274150848,0.6181687232226133,-0.4949788352750241
1772698499000832500,9.38383251953125,0.90861238951087,0.346693376776576,-0.8115978301748633
1772698499010789600,9.39378955078125,0.3567769273629412,-0.01727963610291481,-0.40140637921690936
1772698499020746500,9.40374658203125,0.5723346082866192,-0.9329507119536399,0.5067881502080709
1772698499030703600,9.41370361328125,0.6296867270588874,-1.2920599181890486,0.08060178746180609
1772698499040660700,9.42366064453125,0.8465840956211089,-1.9300263978153467,-0.0670037533479277
1772698499050617300,9.433617431640625,0.9625964931547641,-1.2633657386243342,-0.5230669387053698
1772698499060574500,9.443574462890625,0.2502572018504143,-0.908341755875945,-0.3169505649417639
1772698499070531000,9.453531005859375,0.08603110076785087,-0.058013797551393506,-0.1213033800812438
1772698499080489200,9.4634892578125,0.4964379480421543,0.4413175338447094,0.37911044932194055
1772698499090446000,9.473446044921875,0.11154897925085387,0.2272282084405422,0.013184457477461546
1772698499100403000,9.48340283203125,-0.0824094031393528,0.12794073573648929,-0.07895715292678214
1772698499110360000,9.493360107421875,-0.04281155681100208,0.43147593878805635,0.5456439870966598
1772698499120317000,9.50331689453125,-0.01865561433096882,0.4623784420520067,0.729325497418642
1772698499130274000,9.513274169921875,-0.0883154305790551,0.01968377463519573,0.5161905135972426
1772698499140231200,9.523231201171875,-0.5405424627065658,-0.4323059598714113,0.42476683307085183
1772698499150188000,9.53318798828125,-0.48198155266642567,-0.20686463484764098,0.4254545230740681
1772698499160146000,9.54314599609375,-0.08189734369767829,0.2823597285538912,0.28430693536521867
1772698499170103000,9.55310302734375,0.028065234011411665,0.4629565342009067,-0.07405335219902917
1772698499180060200,9.56306005859375,-0.08219780621528625,0.43699499447047707,-0.3279987593092024
1772698499190017000,9.57301708984375,-0.27002458138214425,0.5322948588430881,-0.17517514592446387
1772698499199974100,9.58297412109375,-0.2526724645649083,0.7648264343887567,0.18697870697015895
1772698499209931000,9.592930908203124,-0.25569906411077825,0.8831576302587986,0.3635340004077181
1772698499219887900,9.602887939453124,-0.18738832895066587,0.8759171576112508,0.3029237931549549
1772698499229845000,9.612844970703126,-0.2614963887453079,0.6777075383841991,0.20130526542114094
1772698499239803100,9.62280322265625,-0.24008769001364708,0.47162090217173097,0.1377615985323675
1772698499249760300,9.63276025390625,-0.07333532185647636,0.2646241653770208,0.04160944644566625
1772698499259716900,9.642716796875,0.15403088854895905,-0.03356967664659023,-0.09569291881080716
1772698499269674000,9.652674072265626,0.1820329759299755,0.14859890836179254,0.11844656587801873
1772698499279631000,9.662631103515626,0.06642273858957924,0.229315536108613,0.1467532987614162
1772698499289588000,9.672587890625,-0.11242694026231766,-0.03275836026370525,0.10149433509856462
1772698499299545000,9.682545166015625,-0.2882218985855579,-0.1315045656979084,-0.029720490405149756
1772698499309502200,9.692502197265625,-0.4299842389255762,-0.21201602626144886,0.007199784444132819
1772698499319459000,9.702458984375,-0.42076515968143935,-0.19009996252954006,0.14464250801936723
1772698499329417000,9.7124169921875,-0.4112736932367086,-0.06495967116653918,0.24414745026584714
1772698499339374000,9.7223740234375,-0.3461404190689325,0.06694879915714264,0.2180786873012781
1772698499349331200,9.732331298828125,-0.23027649009525775,0.1818722324103117,0.020909261309541762
1772698499359288000,9.7422880859375,-0.023349311405420303,0.2607616447299719,-0.2489647143544629
1772698499369245000,9.752244873046875,0.022971710264682768,0.26503216165602206,-0.390032460026443
1772698499379202000,9.7622021484375,0.12960720764398573,0.2225835975050926,-0.3305997355878353
1772698499389159000,9.772158935546875,0.19118541967868805,0.18097148417830466,-0.20119606942562385
1772698499399116000,9.782115966796875,0.26031448548436165,0.08094225319623946,-0.06744745112797244
1772698499409074200,9.79207421875,0.3977893577635288,-0.08360416588187217,-0.06229098168024793
1772698499419031000,9.802031005859375,0.36199557532668114,-0.08975216711759566,0.14769571244437246
1772698499428988000,9.81198779296875,0.15980475924266502,-0.07635784801542758,0.37776791213918476
1772698499438945000,9.821945068359375,0.10702828695601783,0.038383214408159255,0.3052922027867287
1772698499448902100,9.831902099609374,0.08246319741951301,0.24116379481256006,0.08361972877718507
1772698499458859000,9.84185888671875,0.10079846178889273,0.39955169126093387,-0.02296476906724274
1772698499468816100,9.851816162109374,0.06601005700230599,0.4601104971200227,-0.02533337962841615
1772698499478773000,9.86177294921875,0.05923895543217659,0.3976888199985027,0.025058910068590193
1772698499488731100,9.871731201171874,0.023391396981477738,0.2090203515768051,0.15479454813152552
1772698499498688000,9.88168798828125,0.07447862840639427,-0.011232172632217407,0.21329863168420268
1772698499508645000,9.89164501953125,0.10598317095041275,-0.1841238107293844,0.13689131850386038
1772698499518602200,9.901602294921876,0.17339609875427558,-0.31554362075328823,0.08578225883962586
1772698499528558800,9.911558837890626,0.2251344692979939,-0.44570963132381436,0.006466620464529842
1772698499538516000,9.921515869140626,0.20617840614914892,-0.43353696297109123,-0.038245851764082905
1772698499548473000,9.93147314453125,0.19267361240983008,-0.27911446302235127,-0.0027656653210520743
1772698499558430000,9.941429931640625,0.10994622936248778,-0.16073767444491385,0.06184875433808192
1772698499568388000,9.95138818359375,0.03601706979870796,-0.015589783319830894,0.061051247284840786
1772698499578345000,9.961344970703125,0.011032247879635542,0.09063888682425021,0.08389081906983628
1772698499588302000,9.971302001953125,-0.006171400377620011,0.037467268607020376,0.15809313301919029
1772698499598259000,9.981259033203125,-0.07043372779660857,0.0032750761479139324,0.19960609682044014
1772698499608216000,9.991216064453125,-0.1269605016606394,-0.07108253796100616,0.17831879597874356
1772698499618173200,10.001173095703125,0.10750877308249474,-0.16334347302913665,0.16793830827241762
1772698499628130000,10.011130126953125,0.19974868362890555,-0.20619886441528795,0.007141487518791109
1772698499638087000,10.0210869140625,0.24148939177142456,-0.2018447608590126,-0.14971684300843624
1772698499648044000,10.0310439453125,0.27126026065694164,-0.08057166631817818,-0.06875298076858744
1772698499658002200,10.041002197265625,0.23762566554797812,-0.028543957439064977,0.002568681444227695
1772698499667959000,10.050958984375,0.22995677488790825,-0.008495441144704819,0.0014504180040210484
1772698499677916200,10.060916259765625,0.236581745985616,-0.03985854765772819,-0.024645872288290408
1772698499687873000,10.070873046875,0.2521604051232338,-0.10225216772854327,-0.0570358741636388
1772698499697830000,10.080829833984374,0.24012044150577858,-0.12054419574439525,-0.08624483485007658
1772698499707787000,10.090787109375,0.20543370699537916,-0.04990238728821277,-0.14539907114086673
1772698499717744000,10.100744140625,0.13392447718805633,0.08112170141637325,-0.09389372390173376
1772698499727701000,10.110700927734374,0.07963410234027542,0.2109463512033224,-0.006919095206074416
1772698499737659000,10.120658935546874,0.002954173630475998,0.20610767900049684,-0.016501071212161333
1772698499747616000,10.130615966796874,0.00796235261473339,0.12620529024600982,-0.10056921961028129
1772698499757573000,10.140572998046874,0.08006196323037147,0.08828793978393078,-0.09397314581349492
1772698499767530000,10.150530029296876,0.10679331828951835,0.10853051734566688,-0.11417520870175212
1772698499777487000,10.160487060546876,0.07920154700875282,0.12108721657991409,-0.016901578304450958
1772698499787444200,10.1704443359375,0.038496602521603925,0.03677577921152115,0.1150176143426448
1772698499797400800,10.18040087890625,-0.01122867006745655,-0.03208791365623474,0.09042741776434704
1772698499807358000,10.19035791015625,-0.017079729616641996,-0.08723463133871555,0.030843777080345896
1772698499817316000,10.200316162109376,0.050980839307839046,-0.08527356039881706,0.002642513865418732
1772698499827273200,10.210273193359376,0.08027121293372474,-0.0875502731591463,-0.03611119608925655
1772698499837230000,10.22022998046875,0.1504571034491062,-0.04977963769137859,-0.0989636658434756
1772698499847187000,10.23018701171875,0.17981646892428396,0.06736439422070979,-0.11951481616403907
1772698499857144000,10.24014404296875,0.16309914287924765,0.13665771067738533,-0.06633362640086561
1772698499867101000,10.250100830078125,0.15776713420152663,0.12603344081044196,-0.05880147733036428
1772698499877058000,10.26005810546875,0.12254383599585852,0.09817045137286186,0.01733458116054535
1772698499887015200,10.27001513671875,0.07573065602779389,-0.016203531304001807,0.034873452721536156
1772698499896972000,10.279971923828125,0.0060953988322289656,-0.13757131839096545,-0.041338758011814206
1772698499906930000,10.289929931640625,-0.005720131212472915,-0.2122971812903881,-0.09348370006242766
1772698499916887000,10.299886962890625,-0.05667173529267311,-0.20793430990576742,-0.07438050179416314
1772698499926844200,10.30984423828125,-0.1076408750295639,-0.1408633456736803,-0.011594393540732563
1772698499936801000,10.319801025390625,-0.13735387624800205,-0.06979892789125441,0.061695335608348244
1772698499946758100,10.329758056640625,-0.11953823357224463,-0.060440732437372205,0.048984961916040626
1772698499956715000,10.339715087890625,-0.12862521086931228,-0.04500058672130108,0.0019228030224330722
1772698499966672000,10.349671875,-0.1836924335747957,0.046101241439580914,0.09876540332501754
1772698499976629000,10.35962890625,-0.2019488057553768,0.08046294524669646,0.14388567090323193
1772698499986587100,10.369587158203124,-0.2637158183604479,0.10778817454576492,0.10957955147456377
1772698499996544000,10.3795439453125,-0.28390695799589155,0.16101707590818404,0.0904102839664556
1772698500006500900,10.3895009765625,-0.2965735473453998,0.2257861929386854,0.07373433111142366
1772698500016458000,10.3994580078125,-0.30055472593605514,0.2896750200033188,0.028507077761087563
1772698500026415000,10.4094150390625,-0.33199557386040685,0.318089798104763,0.04237096887007356
1772698500036372000,10.4193720703125,-0.3719739485055208,0.31550153517723084,0.09997286115232855
1772698500046329000,10.4293291015625,-0.3752624686568975,0.25900515645146366,0.17120141998790203
1772698500056286200,10.4392861328125,-0.32268121754825113,0.162522219774127,0.24397591135753316
1772698500066243800,10.449243896484376,-0.30181027895510193,0.061550154983997345,0.15934706033673138
1772698500076201000,10.459200927734376,-0.21133622730374335,0.014165887996554374,-0.026619546981435267
1772698500086158000,10.469157958984376,-0.13112228838205336,0.014987141251564026,-0.14204193359953352
1772698500096115000,10.479114990234375,-0.06377250720858574,0.10963292562961578,-0.18734854492954908
1772698500106072000,10.489072021484375,-0.06445289068818091,0.21861644743978975,-0.06167090441999025
1772698500116029000,10.49902880859375,-0.11926584637165069,0.2533388012528419,0.12814412195463665
1772698500125985800,10.50898583984375,-0.1462871242880821,0.2761941916614771,0.2000557585503906
1772698500135943000,10.51894287109375,-0.20940964315533636,0.19610124877095222,0.13759841646044516
1772698500145900000,10.528900146484375,-0.3160743666291237,0.09099778326451778,-0.05486824780097231
1772698500155858000,10.53885791015625,0.023788871866464615,0.08573474816977977,-0.17666381357964128
1772698500165814800,10.548814697265625,0.3428957380592823,-0.027985154512524604,-0.22457930136695503
1772698500175772000,10.55877197265625,0.44401685593128204,-0.26102818671166894,-0.3177084706369787
1772698500185729000,10.56872900390625,0.4387011773338541,-0.388600089135766,-0.28041719791768116
1772698500195686000,10.578685791015625,0.4077975415587425,-0.3276677737891674,-0.18922040321603417
1772698500205643000,10.58864306640625,0.384569810706377,-0.2169675111889839,-0.1423030048216693
1772698500215600000,10.59860009765625,0.3022866825615056,-0.15263269392251969,-0.1512959106271155
1772698500225556700,10.608556640625,0.2643418413043022,-0.05889584108293056,-0.11685368892969562
1772698500235515000,10.618514892578125,0.12527122426629067,-0.04467500802874565,-0.010416837661340833
1772698500245472000,10.628471923828124,-0.014712415963411331,-0.09153203627169132,0.041809900921210646
1772698500255429000,10.63842919921875,-0.09488193122148514,-0.10892974579632282,0.02167690294748172
1772698500265386000,10.648385986328124,-0.08754148706449195,-0.11791267819702625,-0.016875631012441588
