time,seconds_elapsed,z,y,x
1772698489680970500,0.063970458984375,0.2212488353252411,0.04087604582309723,0.4413989782333374
1772698489690927600,0.073927734375,0.16452589631080627,0.05196677893400192,0.4211014211177826
1772698489700884200,0.08388427734375,0.11968647688627243,0.05064384639263153,0.3604243993759155
1772698489710841300,0.09384130859375,0.07913932204246521,0.056078821420669556,0.2725302278995514
1772698489720798500,0.103798583984375,0.03831977769732475,0.06979802250862122,0.1636849194765091
1772698489730755300,0.11375537109375,-0.0059880344197154045,0.08464168012142181,0.04581953585147858
1772698489740712400,0.12371240234375,-0.039408836513757706,0.0937366634607315,-0.06453634053468704
1772698489750670300,0.13367041015625,-0.05267004668712616,0.10178207606077194,-0.15075324475765228
1772698489760627500,0.14362744140625,-0.03994602710008621,0.10289863497018814,-0.19391131401062012
1772698489770584300,0.153584228515625,-0.005431191995739937,0.1027660071849823,-0.1974559724330902
1772698489780541400,0.16354150390625,0.03225518390536308,0.09650460630655289,-0.16257615387439728
1772698489790498600,0.17349853515625,0.0659250020980835,0.08929915726184845,-0.10448327660560608
1772698489800455400,0.183455322265625,0.08506861329078674,0.08483175188302994,-0.034959208220243454
1772698489810412300,0.193412353515625,0.09338326752185822,0.08868055045604706,0.03311970829963684
1772698489820369400,0.203369384765625,0.09390448033809662,0.07306522130966187,0.09268840402364731
1772698489830326300,0.213326171875,0.08527317643165588,0.06266424804925919,0.13866227865219116
1772698489840284400,0.223284423828125,0.07798650115728378,0.050531670451164246,0.1646217405796051
1772698489850241500,0.233241455078125,0.06517137587070465,0.03707312047481537,0.15996494889259338
1772698489860198400,0.243198486328125,0.05477385222911835,0.0283906739205122,0.12713778018951416
1772698489870155300,0.2531552734375,0.045542001724243164,0.03079657070338726,0.0676363855600357
1772698489880112400,0.2631123046875,0.03290474787354469,0.034949153661727905,0.007514978293329477
1772698489890069500,0.273069580078125,0.020535165444016457,0.03419122099876404,-0.0605519562959671
1772698489900026400,0.2830263671875,0.013408289290964603,0.02063390240073204,-0.11325708776712418
1772698489909983500,0.2929833984375,0.017671745270490646,0.013481982983648777,-0.14904171228408813
1772698489919940400,0.3029404296875,0.03175004571676254,-0.008870876394212246,-0.17369069159030914
1772698489929898500,0.3128984375,0.050123460590839386,-0.03433975204825401,-0.17339402437210083
1772698489939855400,0.32285546875,0.056989070028066635,-0.07180197536945343,-0.16361600160598755
1772698489949812500,0.3328125,0.05618319660425186,-0.08202052116394043,-0.14265242218971252
1772698489959769600,0.34276953125,0.03832639381289482,-0.08330138027667999,-0.1287928819656372
1772698489969726200,0.352726318359375,0.007888594642281532,-0.07489617168903351,-0.12089873850345612
1772698489979683300,0.362683349609375,-0.028285318985581398,-0.06771819293498993,-0.11482799053192139
1772698489989640400,0.372640380859375,-0.052215952426195145,-0.06662709265947342,-0.12251467257738113
1772698489999597300,0.382597412109375,-0.043133050203323364,-0.07548768073320389,-0.1336757391691208
1772698490009554400,0.392554443359375,-0.00546609703451395,-0.07153235375881195,-0.1283014863729477
1772698490019512300,0.40251220703125,0.025807946920394897,-0.07792709767818451,-0.10613744705915451
1772698490029469400,0.412469482421875,0.06016192212700844,-0.0929393321275711,-0.08518635481595993
1772698490039426300,0.42242626953125,0.09522431343793869,-0.12662668526172638,-0.058219294995069504
1772698490049383400,0.432383544921875,0.13006111979484558,-0.16053299605846405,-0.01463053748011589
1772698490059341000,0.442341064453125,0.1429804116487503,-0.18293383717536926,0.03244167938828468
1772698490069298000,0.4522978515625,0.13241644203662872,-0.1899920105934143,0.06869103759527206
1772698490079254800,0.4622548828125,0.09518835693597794,-0.18463115394115448,0.07614045590162277
1772698490089212000,0.4722119140625,0.04677635058760643,-0.1720687597990036,0.05641628056764603
1772698490099169000,0.4821689453125,-0.004020298831164837,-0.13107673823833466,0.02126489207148552
1772698490109127200,0.492127197265625,-0.023533547297120094,-0.09512992948293686,0.03891099989414215
1772698490119083800,0.502083740234375,-0.02516069822013378,-0.09660758823156357,0.1840001493692398
1772698490129041000,0.512041015625,0.02828414924442768,-0.020649438723921776,0.38254600763320923
1772698490138998000,0.521998046875,0.05927405506372452,-0.017119325697422028,0.5300113558769226
1772698490148955000,0.531954833984375,0.0453244149684906,-0.055129025131464005,0.6413261294364929
1772698490158912000,0.541912109375,-0.025175616145133972,-0.0897478237748146,0.6668904423713684
1772698490168869000,0.551869140625,-0.023767603561282158,-0.11846601963043213,0.5429402589797974
1772698490178825700,0.56182568359375,0.11178169399499893,-0.16059966385364532,0.2725629210472107
1772698490188782800,0.571782958984375,0.1922254115343094,-0.14889827370643616,-0.016649188473820686
1772698490198741000,0.581740966796875,0.0994267612695694,-0.08255597203969955,-0.1292615532875061
1772698490208698000,0.591697998046875,-0.025500793009996414,-0.0659535601735115,-0.16399982571601868
1772698490218655000,0.601655029296875,-0.13523097336292267,-0.044395387172698975,-0.15399214625358582
1772698490228611800,0.61161181640625,-0.1898723840713501,-0.031931258738040924,-0.1488642394542694
1772698490238569000,0.62156884765625,-0.1960458904504776,-0.0333886556327343,-0.11824630200862885
1772698490248525800,0.63152587890625,-0.17621731758117676,-0.029462624341249466,-0.10754092782735825
1772698490258483000,0.64148291015625,-0.14028117060661316,-0.037636980414390564,-0.14272060990333557
1772698490268440000,0.651440185546875,-0.13279075920581818,0.014288002625107765,-0.22869783639907837
1772698490278397200,0.661397216796875,-0.15707720816135406,0.08006459474563599,-0.3281806707382202
1772698490288354800,0.671354736328125,-0.1870308518409729,0.1944180727005005,-0.44695180654525757
1772698490298312000,0.68131201171875,-0.18568268418312073,0.2701399326324463,-0.5823145508766174
1772698490308269000,0.69126904296875,-0.2447020560503006,0.03593888878822327,-0.4398133158683777
1772698490318226000,0.701225830078125,-0.18690405786037445,0.2908727824687958,-0.07156884670257568
1772698490328183000,0.71118310546875,0.011108898557722569,0.08508074283599854,0.41590094566345215
1772698490338140000,0.721139892578125,0.06724515557289124,-0.16712188720703125,0.7668907642364502
1772698490348097000,0.731096923828125,0.021077126264572144,-0.21924155950546265,0.8450345993041992
1772698490358054000,0.741053955078125,-0.038863975554704666,-0.18571902811527252,0.7609103918075562
1772698490368012000,0.751011962890625,-0.12125366181135178,-0.11686459928750992,0.5938604474067688
1772698490377969200,0.76096923828125,-0.22828556597232819,-0.021217141300439835,0.36221304535865784
1772698490387925800,0.77092578125,-0.3164396286010742,0.06314274668693542,0.0957813486456871
1772698490397883000,0.7808828125,-0.3464234471321106,0.157965287566185,-0.15689687430858612
1772698490407840000,0.790840087890625,-0.30792343616485596,0.21841557323932648,-0.34286144375801086
1772698490417797000,0.800797119140625,-0.21234044432640076,0.21422135829925537,-0.4202691316604614
1772698490427754000,0.81075390625,-0.08155420422554016,0.1584225445985794,-0.40330028533935547
1772698490437711000,0.820711181640625,0.03698894381523132,0.07447943091392517,-0.3308164179325104
1772698490447668000,0.83066796875,0.1244753822684288,0.03811103478074074,-0.2604690194129944
1772698490457625900,0.8406259765625,0.18997985124588013,0.033938996493816376,-0.2090899646282196
1772698490467583000,0.8505830078125,0.265003502368927,0.07315456867218018,-0.12063945084810257
1772698490477540000,0.8605400390625,0.3145710527896881,0.05004524067044258,0.011228369548916817
1772698490487497000,0.8704970703125,0.30614107847213745,0.01958320289850235,0.16873383522033691
1772698490497453800,0.880453857421875,0.2431463748216629,0.02775879204273224,0.31519535183906555
1772698490507411000,0.890410888671875,0.1300445944070816,0.043087948113679886,0.42746514081954956
1772698490517368000,0.9003681640625,-0.0031195783521980047,0.03491076081991196,0.4967905580997467
1772698490527325000,0.910324951171875,-0.1051572635769844,-0.0024866797029972076,0.5293469429016113
1772698490537282000,0.920281982421875,-0.17548784613609314,-0.06800459325313568,0.5501123070716858
1772698490547240000,0.930239990234375,-0.22080285847187042,-0.1282080113887787,0.5785846710205078
1772698490557196800,0.94019677734375,-0.26241666078567505,-0.16481374204158783,0.602064311504364
1772698490567154000,0.95015380859375,-0.3040013909339905,-0.15873189270496368,0.5904702544212341
1772698490577111000,0.960111083984375,-0.35526514053344727,-0.08474648743867874,0.5451157689094543
1772698490587068200,0.970068115234375,-0.358573853969574,0.04647783935070038,0.5010316371917725
1772698490597025000,0.98002490234375,-0.2522795796394348,0.12500131130218506,0.537369966506958
1772698490606982000,0.98998193359375,-0.08308655768632889,0.15137246251106262,0.646675705909729
1772698490616939000,0.99993896484375,0.11051484197378159,0.12967269122600555,0.7609069347381592
1772698490626896000,1.009895751953125,0.2955446243286133,0.07195080071687698,0.7900227308273315
1772698490636854000,1.01985400390625,0.4024452567100525,0.0301267858594656,0.6679272651672363
1772698490646811100,1.02981103515625,0.36774906516075134,0.07200286537408829,0.4109141230583191
1772698490656768000,1.03976806640625,0.2169797718524933,0.1591232717037201,0.1185915395617485
1772698490666724900,1.049724853515625,0.03615112975239754,0.17552220821380615,-0.04443413019180298
1772698490676682000,1.059681884765625,-0.1567632257938385,0.11100413650274277,0.0005540694110095501
1772698490686639000,1.06963916015625,-0.3354450762271881,-0.014975898899137974,0.21619156002998352
1772698490696596000,1.079595947265625,-0.49903881549835205,-0.13710448145866394,0.45943593978881836
1772698490706553000,1.089552978515625,-0.6249679923057556,-0.24928376078605652,0.5857807993888855
1772698490716511000,1.099510986328125,-0.6534757614135742,-0.2989332675933838,0.5292332172393799
1772698490726468000,1.109468017578125,-0.5457245707511902,-0.3339059054851532,0.28170087933540344
1772698490736425000,1.119425048828125,-0.38142693042755127,-0.39354124665260315,-0.06676176935434341
1772698490746382000,1.129382080078125,-0.1735570877790451,-0.45024314522743225,-0.37124231457710266
1772698490756339200,1.139339111328125,-0.012013734318315983,-0.48355183005332947,-0.5336717367172241
1772698490766295800,1.1492958984375,0.04579363763332367,-0.4549819827079773,-0.5307912826538086
1772698490776253000,1.1592529296875,0.02980933152139187,-0.3405289351940155,-0.4191732406616211
1772698490786210000,1.1692099609375,0.01573745533823967,-0.1483144909143448,-0.3049910068511963
1772698490796167000,1.1791669921875,0.06393217295408249,0.011480315588414669,-0.28172430396080017
1772698490806124800,1.189124755859375,0.15592972934246063,0.14321038126945496,-0.40804523229599
1772698490816082000,1.19908203125,0.1819053739309311,0.20895463228225708,-0.6289017796516418
1772698490826039000,1.2090390625,0.1233200952410698,0.21607033908367157,-0.8413373827934265
1772698490835996000,1.218995849609375,0.005741031840443611,0.1813231259584427,-0.9592925906181335
1772698490845953000,1.228953125,-0.10492822527885437,0.1290292888879776,-0.9178593754768372
1772698490855910100,1.23891015625,-0.17593638598918915,0.040341153740882874,-0.7514554858207703
1772698490865867000,1.248866943359375,-0.21206802129745483,-0.05672787129878998,-0.5329298377037048
1772698490875823900,1.258823974609375,-0.2742813229560852,-0.13869597017765045,-0.32167884707450867
1772698490885781000,1.268781005859375,-0.4076628088951111,-0.18150147795677185,-0.16114406287670135
1772698490895739100,1.2787392578125,-0.6009055376052856,-0.1835515946149826,-0.06518206745386124
1772698490905696000,1.288696044921875,-0.8242203593254089,-0.14062251150608063,-0.02560696005821228
1772698490915652900,1.29865283203125,-1.0191835165023804,-0.06232916936278343,-0.030323021113872528
1772698490925610000,1.30860986328125,-1.11545991897583,0.013294484466314316,-0.04076261445879936
1772698490935566800,1.31856689453125,-1.0233129262924194,0.07743584364652634,-0.004088002257049084
1772698490945524000,1.32852392578125,-0.7514553666114807,0.08314593136310577,0.11757770925760269
1772698490955481000,1.338481201171875,-0.418287456035614,0.044365864247083664,0.2528409957885742
1772698490965438000,1.34843798828125,-0.1142500713467598,0.0067644258961081505,0.3487994968891144
1772698490975395000,1.35839501953125,0.10595232993364334,0.016557112336158752,0.3558955490589142
1772698490985353000,1.36835302734375,0.19236978888511658,0.07099025696516037,0.28810185194015503
1772698490995310000,1.37831005859375,0.15375661849975586,0.1680455207824707,0.2089250236749649
1772698491005267000,1.388266845703125,0.05076233670115471,0.2300223410129547,0.15503808856010437
1772698491015224000,1.39822412109375,-0.03848901018500328,0.23192906379699707,0.12278594076633453
1772698491025181000,1.408180908203125,-0.09339646995067596,0.19264450669288635,0.09827181696891785
1772698491035137800,1.4181376953125,-0.10844200104475021,0.11874841153621674,0.06864288449287415
1772698491045095000,1.428094970703125,-0.09068510681390762,0.055753469467163086,0.06934516131877899
1772698491055051000,1.438051025390625,-0.044504839926958084,0.0031120716594159603,0.12957848608493805
1772698491065008000,1.448008056640625,0.025003664195537567,-0.045106325298547745,0.23303936421871185
1772698491074966000,1.457966064453125,0.10983361303806305,-0.05300547927618027,0.3254775404930115
1772698491084923100,1.467923095703125,0.16916191577911377,0.012355685234069824,0.36659756302833557
1772698491094880000,1.4778798828125,0.19338490068912506,0.10508326441049576,0.3300335705280304
1772698491104836900,1.4878369140625,0.21171730756759644,0.2068474441766739,0.22551222145557404
1772698491114794000,1.4977939453125,0.2799571454524994,0.28939709067344666,0.1045902743935585
1772698491124751000,1.507751220703125,0.4164055287837982,0.3272957503795624,0.021764367818832397
1772698491134708200,1.517708251953125,0.6176305413246155,0.34057071805000305,-0.00501395994797349
1772698491144665000,1.5276650390625,0.8186997175216675,0.3397986590862274,0.019517481327056885
1772698491154623000,1.537623046875,0.988441526889801,0.34400078654289246,0.07286941260099411
1772698491164580000,1.547580078125,1.0802899599075317,0.31763920187950134,0.16863428056240082
1772698491174537000,1.557536865234375,1.0554875135421753,0.26289182901382446,0.2550301253795624
1772698491184494000,1.567494140625,0.9604398012161255,0.2510460615158081,0.33898842334747314
1772698491194451200,1.577451171875,0.8223490118980408,0.2658959627151489,0.42795687913894653
1772698491204408000,1.587407958984375,0.6808179616928101,0.25620710849761963,0.5168337225914001
1772698491214365000,1.597364990234375,0.5760290026664734,0.2114088088274002,0.5669664740562439
1772698491224322000,1.607322021484375,0.5458159446716309,0.16147960722446442,0.59391850233078
1772698491234279200,1.617279052734375,0.5581040978431702,0.10317719727754593,0.5912676453590393
1772698491244237000,1.627237060546875,0.5477782487869263,0.0642780065536499,0.5556468367576599
1772698491254194000,1.63719384765625,0.49441859126091003,0.08513994514942169,0.49156564474105835
1772698491264151000,1.647151123046875,0.39576205611228943,0.14631249010562897,0.4010857939720154
1772698491274108200,1.657108154296875,0.32862427830696106,0.24265971779823303,0.3415886461734772
1772698491284065000,1.66706494140625,0.3246966600418091,0.3048512041568756,0.3385619521141052
1772698491294022100,1.677022216796875,0.3976212441921234,0.3286043405532837,0.3925274610519409
1772698491303979300,1.686979248046875,0.5002690553665161,0.27901601791381836,0.42564094066619873
1772698491313936000,1.696935791015625,0.5823463201522827,0.17179620265960693,0.3111838698387146
1772698491323893000,1.70689306640625,0.5626155138015747,0.04673788323998451,0.0019301357679069042
1772698491333851100,1.71685107421875,0.38426730036735535,-0.0749472975730896,-0.5087906122207642
1772698491343808000,1.72680810546875,0.0761755108833313,-0.2046845257282257,-1.1669418811798096
1772698491353765000,1.73676513671875,-0.265922486782074,-0.17804640531539917,-1.7504048347473145
1772698491363722000,1.746721923828125,-0.5206508636474609,-0.043530672788619995,-1.856620192527771
1772698491373679000,1.75667919921875,-0.6151358485221863,0.01666463352739811,-1.3488212823867798
1772698491383636000,1.766635986328125,-0.5789469480514526,-0.006855341140180826,-0.4841400682926178
1772698491393593000,1.776593017578125,-0.4621737003326416,-0.015092486515641212,0.39855530858039856
1772698491403550200,1.78655029296875,-0.4090881049633026,-0.09019523113965988,0.8970959186553955
1772698491413507800,1.7965078125,-0.41214174032211304,-0.11414959281682968,0.8684542179107666
1772698491423465000,1.80646484375,-0.4450424313545227,-0.10601097345352173,0.4496532082557678
1772698491433422000,1.816422119140625,-0.47767916321754456,-0.058706264942884445,-0.04523414373397827
1772698491443379200,1.826379150390625,-0.44696733355522156,-0.014365164563059807,-0.31338170170783997
1772698491453336000,1.836336181640625,-0.3340509235858917,0.020733386278152466,-0.30653858184814453
1772698491463293200,1.846293212890625,-0.20490437746047974,0.03442416340112686,-0.17344336211681366
1772698491473250000,1.85625,-0.1069926917552948,0.025505343452095985,-0.07985249161720276
1772698491483207000,1.86620703125,-0.05613616853952408,-0.0005627414211630821,-0.1195857897400856
1772698491493164000,1.8761640625,-0.05496226251125336,-0.03847714886069298,-0.26205089688301086
1772698491503122200,1.8861220703125,-0.09067179262638092,-0.07096904516220093,-0.4126920700073242
1772698491513079000,1.8960791015625,-0.15180279314517975,-0.10197678953409195,-0.5089266300201416
1772698491523036000,1.906035888671875,-0.2358849048614502,-0.10621228069067001,-0.527851939201355
1772698491532993000,1.915992919921875,-0.3141879737377167,-0.10314852744340897,-0.4603928327560425
1772698491542950100,1.9259501953125,-0.34810465574264526,-0.11716048419475555,-0.3019837737083435
1772698491552907000,1.935906982421875,-0.3344746232032776,-0.1255149245262146,-0.07984383404254913
1772698491562864000,1.945864013671875,-0.29741939902305603,-0.11975158005952835,0.1213715597987175
1772698491572821200,1.9558212890625,-0.2477266490459442,-0.09015177935361862,0.23507574200630188
1772698491582777900,1.96577783203125,-0.15676212310791016,-0.05254342034459114,0.24574674665927887
1772698491592736000,1.975736083984375,-0.019650898873806,-0.0027969854418188334,0.19259297847747803
1772698491602693000,1.985693115234375,0.1417750120162964,0.024786705151200294,0.12218912690877914
1772698491612650200,1.995650146484375,0.2791286110877991,0.04036297649145126,0.07888193428516388
1772698491622607000,2.005607177734375,0.37185534834861755,0.03839809447526932,0.07374443113803864
1772698491632564000,2.01556396484375,0.3829399645328522,0.041794657707214355,0.09983020275831223
1772698491642521000,2.02552099609375,0.31605279445648193,0.056289978325366974,0.13932594656944275
1772698491652478000,2.03547802734375,0.2326071709394455,0.0518912598490715,0.2136208713054657
1772698491662435000,2.04543505859375,0.15220074355602264,0.05220737308263779,0.3008044958114624
1772698491672392200,2.05539208984375,0.09173977375030518,0.03937514126300812,0.38913536071777344
1772698491682350000,2.06535009765625,0.05044134333729744,0.03939751163125038,0.4280151128768921
1772698491692307000,2.075306884765625,0.03808272257447243,0.04308481141924858,0.41203781962394714
1772698491702264000,2.08526416015625,0.05047547444701195,0.05349856987595558,0.346678227186203
1772698491712221200,2.09522119140625,0.07964776456356049,0.07274290174245834,0.2664814889431
1772698491722178000,2.105177978515625,0.10875744372606277,0.0953424870967865,0.1771465390920639
1772698491732135200,2.11513525390625,0.14657720923423767,0.10218106210231781,0.12162970006465912
1772698491742092000,2.125092041015625,0.20621390640735626,0.07511162757873535,0.14646634459495544
1772698491752049000,2.135048828125,0.23921342194080353,0.04842599853873253,0.23747439682483673
1772698491762006000,2.145006103515625,0.23197682201862335,0.006655384320765734,0.3517857789993286
1772698491771964200,2.154964111328125,0.17707496881484985,-0.018818769603967667,0.4161888659000397
1772698491781921000,2.164921142578125,0.07135040313005447,-0.007246535271406174,0.39099323749542236
1772698491791878000,2.1748779296875,-0.05337051302194595,0.009363807737827301,0.2979851961135864
1772698491801835000,2.1848349609375,-0.1807740032672882,0.027313511818647385,0.1982671022415161
1772698491811792100,2.194792236328125,-0.2984350919723511,0.03786924108862877,0.14238619804382324
1772698491821749000,2.2047490234375,-0.3510245382785797,0.04954400658607483,0.1383693516254425
1772698491831706000,2.2147060546875,-0.32368189096450806,0.09259474277496338,0.20066140592098236
1772698491841663200,2.224663330078125,-0.2295849621295929,0.10565115511417389,0.33037757873535156
1772698491851619800,2.234619873046875,-0.11070909351110458,0.09160645306110382,0.4475683271884918
1772698491861578000,2.244577880859375,-0.005004774313420057,0.0768919587135315,0.4609443247318268
1772698491871535000,2.25453515625,0.06242770701646805,0.05148324742913246,0.3139195442199707
1772698491881492200,2.2644921875,0.11704780906438828,0.0377461314201355,-0.0054603032767772675
1772698491891449000,2.274448974609375,0.15018026530742645,0.0366685725748539,-0.4789108633995056
1772698491901406000,2.284406005859375,0.1805405616760254,0.07287131994962692,-0.9974442720413208
1772698491911363000,2.294363037109375,0.19906891882419586,0.08918644487857819,-1.4252592325210571
1772698491921320000,2.30431982421875,0.21156686544418335,0.03714001923799515,-1.6280051469802856
1772698491931277000,2.314277099609375,0.2032545953989029,-0.10420941561460495,-1.5190588235855103
1772698491941235000,2.32423486328125,0.11287517100572586,-0.2873651385307312,-1.1256380081176758
1772698491951192000,2.334192138671875,-0.1630202680826187,-0.39349034428596497,-0.6173593401908875
1772698491961149000,2.34414892578125,-0.5584703683853149,-0.34970822930336,-0.239746555685997
1772698491971106000,2.35410595703125,-0.920831561088562,-0.19032512605190277,-0.11683765798807144
1772698491981063200,2.364063232421875,-1.0650310516357422,-0.01542761828750372,-0.20267054438591003
1772698491991020000,2.37402001953125,-0.9264950752258301,0.11365669220685959,-0.3887200653553009
1772698492000977200,2.38397705078125,-0.5870496034622192,0.1870422214269638,-0.5398064851760864
1772698492010934000,2.39393408203125,-0.17830286920070648,0.24776197969913483,-0.6092719435691833
1772698492020891000,2.403890869140625,0.1501370668411255,0.3189093768596649,-0.613861083984375
1772698492030849000,2.41384912109375,0.3288111984729767,0.3503951132297516,-0.5651806592941284
1772698492040806100,2.42380615234375,0.3637412190437317,0.3487711250782013,-0.4484790563583374
1772698492050763000,2.433762939453125,0.29341569542884827,0.31818878650665283,-0.26223134994506836
1772698492060720400,2.443720458984375,0.1834430992603302,0.26446616649627686,-0.03447513282299042
1772698492070677500,2.453677490234375,0.04985305666923523,0.2049228399991989,0.20848481357097626
1772698492080634600,2.463634521484375,-0.08616337180137634,0.17562514543533325,0.3934195339679718
1772698492090591700,2.473591796875,-0.18921726942062378,0.18711525201797485,0.47757646441459656
1772698492100548600,2.483548583984375,-0.24797725677490234,0.2210306078195572,0.44695013761520386
1772698492110505500,2.49350537109375,-0.24125812947750092,0.2582167088985443,0.35408318042755127
1772698492120463600,2.503463623046875,-0.17535927891731262,0.28789499402046204,0.2043570727109909
1772698492130420500,2.51342041015625,-0.06090407073497772,0.2931273281574249,0.03677709400653839
1772698492140377600,2.523377685546875,0.060022614896297455,0.26105836033821106,-0.1217086911201477
1772698492150334700,2.533334716796875,0.17735299468040466,0.2037019282579422,-0.19182758033275604
1772698492160291600,2.54329150390625,0.26183220744132996,0.10175451636314392,-0.16435787081718445
1772698492170248400,2.55324853515625,0.25454819202423096,0.002061236184090376,-0.06250401586294174
1772698492180205600,2.56320556640625,0.13613951206207275,-0.07777740061283112,0.06485819816589355
1772698492190162700,2.57316259765625,-0.05834106355905533,-0.1309358775615692,0.19816407561302185
1772698492200119600,2.58311962890625,-0.26941388845443726,-0.14541733264923096,0.3152052164077759
1772698492210077400,2.593077392578125,-0.43090978264808655,-0.14536739885807037,0.4113962948322296
1772698492220034600,2.60303466796875,-0.5095052719116211,-0.13096661865711212,0.4778037965297699
1772698492229991400,2.612991455078125,-0.49396443367004395,-0.10131743550300598,0.5197455286979675
1772698492239948500,2.622948486328125,-0.37509262561798096,-0.055360060185194016,0.5415592193603516
1772698492249905700,2.63290576171875,-0.1807100921869278,-0.008071630261838436,0.5440971851348877
1772698492259862800,2.64286279296875,0.056508854031562805,0.04715726897120476,0.5137938857078552
1772698492269819400,2.6528193359375,0.3034341633319855,0.10070109367370605,0.46895983815193176
1772698492279776500,2.662776611328125,0.5109306573867798,0.14991816878318787,0.4160465598106384
1772698492289734700,2.672734619140625,0.6372736692428589,0.1786002665758133,0.3704549968242645
1772698492299691500,2.68269140625,0.6888487339019775,0.19190488755702972,0.3327840566635132
1772698492309648600,2.692648681640625,0.6752402782440186,0.20280641317367554,0.3494925796985626
1772698492319605500,2.70260546875,0.5812596678733826,0.18007953464984894,0.42934319376945496
1772698492329562600,2.712562744140625,0.43959474563598633,0.15448030829429626,0.5447814464569092
1772698492339519500,2.72251953125,0.29054081439971924,0.12871210277080536,0.6294465065002441
1772698492349476600,2.7324765625,0.14788006246089935,0.12541593611240387,0.6473663449287415
1772698492359433700,2.742433837890625,0.03576977550983429,0.12369685620069504,0.6249768733978271
1772698492369390600,2.752390625,0.02147895097732544,0.11873366683721542,0.6243317127227783
1772698492379347500,2.762347412109375,0.1259574294090271,0.1265023797750473,0.66956627368927
1772698492389305600,2.7723056640625,0.3216659426689148,0.10852871835231781,0.6837584972381592
1772698492399262700,2.7822626953125,0.4703696668148041,0.10438723862171173,0.5180163979530334
1772698492409219600,2.792219482421875,0.528176486492157,0.09908167272806168,0.14159062504768372
1772698492419176700,2.8021767578125,0.49821943044662476,0.05379142612218857,-0.33693069219589233
1772698492429133600,2.812133544921875,0.35732460021972656,-0.10797853022813797,-0.7924037575721741
1772698492439090400,2.82209033203125,0.09048359096050262,-0.42240118980407715,-1.1811305284500122
1772698492449047600,2.832047607421875,-0.32109570503234863,-0.6951542496681213,-1.4353954792022705
1772698492459004700,2.842004638671875,-0.8065574765205383,-0.8333674669265747,-1.3548002243041992
1772698492468962600,2.851962646484375,-1.2476632595062256,-0.7652257084846497,-0.8157171607017517
1772698492478919400,2.86191943359375,-1.5611772537231445,-0.5490313768386841,0.027462031692266464
1772698492488876500,2.87187646484375,-1.588586688041687,-0.26844221353530884,0.7305147647857666
1772698492498833700,2.881833740234375,-1.3462179899215698,-0.056357935070991516,0.8534470796585083
1772698492508790500,2.89179052734375,-0.8095130324363708,0.025470765307545662,0.4460447430610657
1772698492518747600,2.90174755859375,-0.13913898169994354,0.01504901796579361,-0.28659752011299133
1772698492528704800,2.911704833984375,0.42046281695365906,0.03187758848071098,-1.0398293733596802
1772698492538661400,2.921661376953125,0.7185270190238953,0.1237230896949768,-1.5311181545257568
1772698492548618500,2.931618408203125,0.8275808095932007,0.17891155183315277,-1.5855729579925537
1772698492558576600,2.94157666015625,0.8124740123748779,0.15777777135372162,-1.3414703607559204
1772698492568533800,2.95153369140625,0.6716830730438232,0.02740217186510563,-0.9670761823654175
1772698492578490400,2.961490478515625,0.3805833160877228,-0.14242388308048248,-0.6306999921798706
1772698492588447500,2.971447509765625,-0.008066404610872269,-0.3005940020084381,-0.41220036149024963
1772698492598404600,2.981404541015625,-0.4052230715751648,-0.4195840358734131,-0.2980908453464508
1772698492608361500,2.991361572265625,-0.7280863523483276,-0.48004457354545593,-0.22538110613822937
1772698492618318600,3.001318603515625,-0.9278114438056946,-0.5050714015960693,-0.1732262820005417
1772698492628275700,3.011275634765625,-0.9758346676826477,-0.5176385641098022,-0.12062547355890274
1772698492638233600,3.021233642578125,-0.8623389601707458,-0.5177173614501953,-0.06260930746793747
1772698492648190500,3.0311904296875,-0.6431198120117188,-0.49606630206108093,0.005851677618920803
1772698492658147600,3.041147705078125,-0.38419395685195923,-0.4574161171913147,0.06274185329675674
1772698492668104700,3.051104736328125,-0.14870581030845642,-0.39675408601760864,0.08483152091503143
1772698492678061600,3.0610615234375,0.024376755580306053,-0.3129012882709503,0.06822218745946884
1772698492688018700,3.071018798828125,0.09790927916765213,-0.20424038171768188,0.038897234946489334
1772698492697975600,3.0809755859375,0.122530996799469,-0.10130041092634201,0.05269294232130051
1772698492707932400,3.090932373046875,0.11464802920818329,-0.016198614612221718,0.1000499501824379
1772698492717889500,3.1008896484375,0.12027635425329208,0.04226149991154671,0.13847856223583221
1772698492727847700,3.11084765625,0.15778809785842896,0.08999086171388626,0.1374630481004715
1772698492737804500,3.120804443359375,0.21836435794830322,0.11949922144412994,0.10044484585523605
1772698492747761400,3.130761474609375,0.2749088406562805,0.13649789988994598,0.05157587677240372
1772698492757718500,3.140718505859375,0.31330257654190063,0.13631492853164673,0.012130731716752052
1772698492767675600,3.150675537109375,0.3351794183254242,0.11788082122802734,0.004688189830631018
1772698492777632500,3.160632568359375,0.3141377866268158,0.07995634526014328,0.02150578610599041
1772698492787589600,3.170589599609375,0.26296934485435486,0.0498235821723938,0.04684947058558464
1772698492797546800,3.180546630859375,0.19848035275936127,0.02592437155544758,0.08996178209781647
1772698492807503400,3.19050341796875,0.12298721820116043,0.016283279284834862,0.14158478379249573
1772698492817461500,3.20046142578125,0.04211181402206421,0.012943942099809647,0.18771418929100037
1772698492827418600,3.210418701171875,-0.018598424270749092,0.0006182286888360977,0.20273783802986145
1772698492837375700,3.220375732421875,-0.045216187834739685,-0.014278694987297058,0.18631944060325623
1772698492847332400,3.230332275390625,-0.04442601278424263,-0.030990783125162125,0.1749958097934723
1772698492857289500,3.24028955078125,-0.06480691581964493,-0.0614142045378685,0.16106614470481873
1772698492867246600,3.25024658203125,-0.08791784942150116,-0.08549028635025024,0.11932417005300522
1772698492877203500,3.260203369140625,-0.11829705536365509,-0.11812759190797806,0.05253688246011734
1772698492887160600,3.27016064453125,-0.17418958246707916,-0.1463434398174286,0.024127621203660965
1772698492897117700,3.28011767578125,-0.2530873417854309,-0.18676063418388367,0.048563722521066666
1772698492907075600,3.29007568359375,-0.31079673767089844,-0.18343128263950348,0.1275598704814911
1772698492917032400,3.300032470703125,-0.29580578207969666,-0.16536785662174225,0.281778484582901
1772698492926989600,3.309989501953125,-0.1658659279346466,-0.1448066532611847,0.4735550582408905
1772698492936946700,3.31994677734375,0.03905048221349716,-0.11872817575931549,0.5946809649467468
1772698492946903600,3.329903564453125,0.25295424461364746,-0.12170048803091049,0.5511605143547058
1772698492956860400,3.3398603515625,0.4059866666793823,-0.1960040181875229,0.34558847546577454
1772698492966817500,3.349817626953125,0.4360758364200592,-0.338213175535202,0.06503108888864517
1772698492976774400,3.3597744140625,0.2543281614780426,-0.4687251150608063,-0.20821216702461243
1772698492986731500,3.3697314453125,-0.140314981341362,-0.6072156429290771,-0.39295628666877747
1772698492996689700,3.379689697265625,-0.6398022770881653,-0.7308225631713867,-0.3722957372665405
1772698493006646500,3.389646484375,-1.077885627746582,-0.7268139719963074,-0.18686705827713013
1772698493016603400,3.399603271484375,-1.329906940460205,-0.5507795810699463,-0.03523731604218483
1772698493026560500,3.409560546875,-1.2974328994750977,-0.21135608851909637,-0.020722687244415283
1772698493036517600,3.419517578125,-0.8941552639007568,0.14286324381828308,0.008137989789247513
1772698493046474500,3.429474609375,-0.1989670991897583,0.4192557632923126,0.08079169690608978
1772698493056431900,3.439431884765625,0.6030201315879822,0.6470378041267395,0.0660761296749115
1772698493066388500,3.449388427734375,1.3183460235595703,0.7778911590576172,-0.06445147842168808
1772698493076346600,3.4593466796875,1.8023678064346313,0.8157479763031006,-0.20536412298679352
1772698493086303700,3.4693037109375,1.964081883430481,0.7650806903839111,-0.2532237470149994
1772698493096260900,3.4792607421875,1.7996156215667725,0.6359357833862305,-0.19921880960464478
1772698493106217700,3.4892177734375,1.3793110847473145,0.4633428454399109,-0.11684619635343552
1772698493116174600,3.499174560546875,0.8086279034614563,0.2923833727836609,-0.0609043687582016
1772698493126131700,3.509131591796875,0.20940649509429932,0.12768319249153137,-0.039740171283483505
1772698493136088600,3.519088623046875,-0.28775081038475037,-0.027841422706842422,-0.030182620510458946
1772698493146045700,3.529045654296875,-0.6128937602043152,-0.1398133933544159,0.015936873853206635
1772698493156002800,3.5390029296875,-0.7784686088562012,-0.1921873837709427,0.07844579219818115
1772698493165960700,3.548960693359375,-0.7895582318305969,-0.2011427879333496,0.10456124693155289
1772698493175917600,3.55891748046875,-0.6390315890312195,-0.1807032972574234,0.0853329598903656
1772698493185874700,3.568874755859375,-0.35733702778816223,-0.17019176483154297,0.03549714758992195
1772698493195831800,3.578831787109375,-0.02290819026529789,-0.14040696620941162,-0.012202993035316467
1772698493205788700,3.58878857421875,0.2668066918849945,-0.0865931436419487,-0.0248134583234787
1772698493215745800,3.598745849609375,0.4510268568992615,-0.01684548519551754,0.004481046926230192
1772698493225702700,3.60870263671875,0.5093607306480408,0.06368771940469742,0.02720283530652523
1772698493235659500,3.618659423828125,0.46282440423965454,0.12949629127979279,0.00884167104959488
1772698493245616600,3.62861669921875,0.34084469079971313,0.1740531325340271,-0.03855384513735771
1772698493255574800,3.63857470703125,0.1749742329120636,0.1825941503047943,-0.08143313974142075
1772698493265532000,3.648531982421875,0.022018495947122574,0.16032075881958008,-0.07434768974781036
1772698493275488500,3.658488525390625,-0.09265881776809692,0.13331417739391327,0.0005803513340651989
1772698493285445600,3.668445556640625,-0.1632610708475113,0.09392418712377548,0.12205903977155685
1772698493295402800,3.67840283203125,-0.19245384633541107,0.057148855179548264,0.23927541077136993
1772698493305359600,3.688359619140625,-0.20502318441867828,0.04668712988495827,0.3101768493652344
1772698493315316700,3.698316650390625,-0.21402785181999207,0.07350729405879974,0.334221214056015
1772698493325273900,3.70827392578125,-0.18790356814861298,0.10241567343473434,0.3418593108654022
1772698493335230500,3.71823046875,-0.13973017036914825,0.12463869154453278,0.3062158226966858
1772698493345188600,3.728188720703125,-0.07742206752300262,0.16028590500354767,0.23154479265213013
1772698493355145700,3.738145751953125,-0.003965959884226322,0.18311531841754913,0.16474978625774384
1772698493365102800,3.748102783203125,0.08780021220445633,0.19609805941581726,0.10371698439121246
1772698493375059700,3.758059814453125,0.18513715267181396,0.2023029625415802,0.04280117526650429
1772698493385016600,3.7680166015625,0.2623307406902313,0.21301904320716858,0.003952660597860813
1772698493394973700,3.7779736328125,0.31531646847724915,0.22485679388046265,-0.013567743822932243
1772698493404930600,3.7879306640625,0.3267483115196228,0.2411586493253708,0.0021068025380373
1772698493414887700,3.7978876953125,0.28828027844429016,0.2463771104812622,0.04463748261332512
1772698493424844800,3.8078447265625,0.22967267036437988,0.2428053915500641,0.133406400680542
1772698493434802700,3.817802734375,0.16897337138652802,0.19930985569953918,0.29040268063545227
1772698493444759600,3.827759521484375,0.1133955791592598,0.13675163686275482,0.4881453812122345
1772698493454716700,3.837716552734375,0.05187150090932846,0.052533429116010666,0.6707178354263306
1772698493464673800,3.847673828125,-0.037454381585121155,-0.03838076442480087,0.8029341697692871
1772698493474630700,3.857630615234375,-0.1379583477973938,-0.08697599917650223,0.8439226150512695
1772698493484587800,3.867587890625,-0.2335623949766159,-0.07524272799491882,0.7701925039291382
1772698493494544600,3.877544677734375,-0.28338587284088135,-0.03436320275068283,0.6046895384788513
1772698493504501500,3.88750146484375,-0.2858852446079254,0.005869740154594183,0.34286823868751526
1772698493514458600,3.897458740234375,-0.2640460133552551,0.03824658691883087,0.027179252356290817
1772698493524416800,3.907416748046875,-0.22722193598747253,0.038870006799697876,-0.2670714855194092
1772698493534374000,3.917373779296875,-0.18838320672512054,0.013840556144714355,-0.42720121145248413
1772698493544330500,3.92733056640625,-0.14589138329029083,0.02764028310775757,-0.4430694580078125
1772698493554287600,3.93728759765625,-0.11745229363441467,0.020522985607385635,-0.33320528268814087
1772698493564244700,3.94724462890625,-0.16858042776584625,-0.09007344394922256,-0.18284784257411957
1772698493574201600,3.95720166015625,-0.3498586118221283,-0.2666756510734558,-0.1718636453151703
1772698493584158700,3.96715869140625,-0.639435887336731,-0.39588961005210876,-0.24619285762310028
1772698493594115800,3.97711572265625,-0.9867628812789917,-0.3949436545372009,-0.2260202169418335
1772698493604073700,3.98707373046875,-1.3001357316970825,-0.2526097297668457,-0.08437793701887131
1772698493614030600,3.997030517578125,-1.4357287883758545,-0.08216928690671921,-0.0010236601810902357
1772698493623987700,4.00698779296875,-1.3130600452423096,0.02069636806845665,-0.08949706703424454
1772698493633944800,4.01694482421875,-0.9360989332199097,0.038367241621017456,-0.25450068712234497
1772698493643901700,4.026901611328125,-0.4509170949459076,0.02055654115974903,-0.4177286922931671
1772698493653858600,4.036858642578125,-0.04420923814177513,0.04583819583058357,-0.5706258416175842
1772698493663815700,4.046815673828125,0.21086756885051727,0.13825426995754242,-0.7442390322685242
1772698493673772500,4.0567724609375,0.3181242346763611,0.2513701617717743,-0.8979590535163879
1772698493683730700,4.066730712890625,0.3602104187011719,0.3149765133857727,-0.9561609029769897
1772698493693687600,4.0766875,0.39120909571647644,0.3011877238750458,-0.9150294065475464
1772698493703644700,4.086644775390625,0.4037003219127655,0.2279655635356903,-0.8159253597259521
1772698493713601500,4.0966015625,0.36771464347839355,0.122923843562603,-0.6397876143455505
1772698493723558700,4.10655859375,0.24985697865486145,0.027006344869732857,-0.4156319499015808
1772698493733515800,4.116515869140625,0.07384493201971054,-0.040937550365924835,-0.18667225539684296
1772698493743472600,4.12647265625,-0.11997616291046143,-0.07291880249977112,0.00905480608344078
1772698493753429800,4.1364296875,-0.2732464373111725,-0.08831613510847092,0.16417355835437775
1772698493763386600,4.14638671875,-0.36179864406585693,-0.08355140686035156,0.2649982273578644
1772698493773344800,4.1563447265625,-0.37178388237953186,-0.06591248512268066,0.32381972670555115
1772698493783301600,4.166301513671875,-0.28958889842033386,-0.03796613588929176,0.3369239866733551
1772698493793258800,4.1762587890625,-0.14925788342952728,-0.00815817154943943,0.3035292625427246
1772698493803215600,4.186215576171875,0.005332481116056442,0.02741125226020813,0.25199878215789795
1772698493813172500,4.19617236328125,0.14380142092704773,0.08473126590251923,0.21738088130950928
1772698493823129600,4.206129638671875,0.2588467299938202,0.1416059136390686,0.2086350917816162
1772698493833086700,4.216086669921875,0.3559807538986206,0.1916341930627823,0.22395412623882294
1772698493843043600,4.226043701171875,0.4305359721183777,0.22487156093120575,0.2619260847568512
1772698493853000700,4.236000732421875,0.4582488238811493,0.26125699281692505,0.2886391878128052
1772698493862958600,4.24595849609375,0.4494175314903259,0.29374364018440247,0.28587380051612854
1772698493872915700,4.255915771484375,0.43924984335899353,0.31002673506736755,0.2626872658729553
1772698493882872600,4.26587255859375,0.42106229066848755,0.30717864632606506,0.23624373972415924
1772698493892829700,4.27582958984375,0.3887791931629181,0.29146385192871094,0.2107599526643753
1772698493902786800,4.285786865234375,0.33591651916503906,0.24964860081672668,0.16424040496349335
1772698493912743700,4.29574365234375,0.2716626822948456,0.20334741473197937,0.09703552722930908
1772698493922700500,4.305700439453125,0.2092350274324417,0.16096538305282593,0.014721334911882877
1772698493932657700,4.31565771484375,0.15413902699947357,0.13044235110282898,-0.07186096161603928
1772698493942614800,4.32561474609375,0.09367857873439789,0.12260404974222183,-0.13915851712226868
1772698493952572700,4.33557275390625,0.02822447381913662,0.12702889740467072,-0.18016481399536133
1772698493962529500,4.345529541015625,-0.0173739492893219,0.15347792208194733,-0.1684030145406723
1772698493972486700,4.355486572265625,-0.010921110399067402,0.17277519404888153,-0.0929063931107521
1772698493982443500,4.365443603515625,0.04484446346759796,0.16808125376701355,0.06375601142644882
1772698493992400600,4.375400634765625,0.1205541342496872,0.1377212107181549,0.22630338370800018
1772698494002357800,4.385357666015625,0.1962435394525528,0.12231098860502243,0.3168053925037384
1772698494012315000,4.39531494140625,0.2534983158111572,0.11506585776805878,0.297408789396286
1772698494022271700,4.405271728515625,0.33147943019866943,0.12828168272972107,0.2021518349647522
1772698494032229600,4.415229736328125,0.41427791118621826,0.16086333990097046,0.060471124947071075
1772698494042186800,4.425186767578125,0.47807204723358154,0.18183648586273193,-0.04514254257082939
1772698494052143600,4.4351435546875,0.5152814984321594,0.19073277711868286,-0.07964645326137543
1772698494062100500,4.4451005859375,0.4742104411125183,0.15209397673606873,-0.0811983272433281
1772698494072057300,4.455057373046875,0.37813398241996765,0.08479428291320801,-0.09704519808292389
1772698494082014200,4.46501416015625,0.24996191263198853,-0.025792628526687622,-0.15477041900157928
1772698494091971300,4.474971435546875,0.08109673112630844,-0.2382849156856537,-0.2423625886440277
1772698494101928200,4.48492822265625,-0.16488851606845856,-0.5297305583953857,-0.3113204836845398
1772698494111885300,4.49488525390625,-0.5142598152160645,-0.7470408082008362,-0.33887940645217896
1772698494121843500,4.504843505859375,-0.930708110332489,-0.8179500102996826,-0.30254897475242615
1772698494131800300,4.51480029296875,-1.328503966331482,-0.7381308078765869,-0.11641905456781387
1772698494141757200,4.524757080078125,-1.5923521518707275,-0.5390865206718445,0.2146991491317749
1772698494151714300,4.53471435546875,-1.5847145318984985,-0.300395667552948,0.5285625457763672
1772698494161671400,4.54467138671875,-1.2350372076034546,-0.04933323338627815,0.604892373085022
1772698494171628300,4.554628173828125,-0.6391268968582153,0.17409531772136688,0.39918580651283264
1772698494181585400,4.56458544921875,0.06524105370044708,0.40751615166664124,0.0015490897931158543
1772698494191542300,4.574542236328125,0.7183374166488647,0.6534228324890137,-0.4221033751964569
1772698494201500400,4.58450048828125,1.2373206615447998,0.8530239462852478,-0.7322456240653992
1772698494211457300,4.594457275390625,1.5774433612823486,0.9390435218811035,-0.8791495561599731
1772698494221414400,4.604414306640625,1.7006787061691284,0.9019184708595276,-0.8753141164779663
1772698494231371500,4.61437158203125,1.6089956760406494,0.7477984428405762,-0.7333860397338867
1772698494241328000,4.624328125,1.3080706596374512,0.5314037799835205,-0.4837157130241394
1772698494251285200,4.63428515625,0.837052583694458,0.31401097774505615,-0.1925152987241745
1772698494261242400,4.644242431640625,0.28349244594573975,0.15681204199790955,0.08354607224464417
1772698494271199200,4.65419921875,-0.2702309191226959,0.08399056643247604,0.2874339818954468
1772698494281156400,4.66415625,-0.7326278686523438,0.09533175081014633,0.39564985036849976
1772698494291114200,4.6741142578125,-1.0233012437820435,0.15682147443294525,0.41683849692344666
1772698494301071400,4.6840712890625,-1.0886908769607544,0.20187975466251373,0.36862754821777344
1772698494311028200,4.6940283203125,-0.9121376872062683,0.21871119737625122,0.28671562671661377
1772698494320985300,4.7039853515625,-0.5272232890129089,0.20783989131450653,0.2140798568725586
1772698494330942500,4.7139423828125,-0.04686147719621658,0.1992698460817337,0.17065036296844482
1772698494340899300,4.7238994140625,0.3943699300289154,0.18961597979068756,0.145680233836174
1772698494350856200,4.733856201171875,0.7065568566322327,0.19236570596694946,0.11083277314901352
1772698494360813300,4.743813232421875,0.8735067248344421,0.196125328540802,0.047786321491003036
1772698494370771500,4.753771484375,0.8949033617973328,0.20096589624881744,-0.03331918269395828
1772698494380728300,4.763728271484375,0.7991052865982056,0.20713402330875397,-0.1113295704126358
1772698494390685400,4.773685546875,0.6293873190879822,0.1995522677898407,-0.1775730401277542
1772698494400642300,4.783642333984375,0.41285017132759094,0.18017578125,-0.21643531322479248
1772698494410599200,4.79359912109375,0.20421814918518066,0.15316839516162872,-0.22972901165485382
1772698494420556300,4.803556396484375,0.02014973573386669,0.11501552909612656,-0.2256493717432022
1772698494430513400,4.813513427734375,-0.1121332049369812,0.07568836212158203,-0.19274388253688812
1772698494440470300,4.82347021484375,-0.1735350340604782,0.03550533577799797,-0.12468066811561584
1772698494450427400,4.833427490234375,-0.18497277796268463,-0.020480699837207794,-0.02818235754966736
1772698494460385300,4.84338525390625,-0.15031330287456512,-0.07674096524715424,0.06358995288610458
1772698494470342400,4.85334228515625,-0.10844947397708893,-0.10983234643936157,0.13105422258377075
1772698494480299300,4.86329931640625,-0.07651609927415848,-0.09637157618999481,0.14745691418647766
1772698494490256400,4.87325634765625,-0.05557778850197792,-0.05573440343141556,0.12838894128799438
1772698494500213500,4.883213623046875,-0.02379400096833706,-0.008028569631278515,0.07341168075799942
1772698494510170000,4.893170166015625,0.03132731094956398,0.03723957762122154,0.003000099677592516
1772698494520127200,4.903127197265625,0.08276016265153885,0.07479634135961533,-0.07712770998477936
1772698494530084400,4.91308447265625,0.14343762397766113,0.0839373767375946,-0.13788481056690216
1772698494540041200,4.923041259765625,0.20912237465381622,0.058519184589385986,-0.15828141570091248
1772698494549999400,4.932999267578125,0.2699223458766937,-0.004592405632138252,-0.0939980298280716
1772698494559956200,4.942956298828125,0.2790715992450714,-0.07274390757083893,0.0800786018371582
1772698494569913300,4.952913330078125,0.20246683061122894,-0.1245887279510498,0.3225751221179962
1772698494579870200,4.9628701171875,0.03880360350012779,-0.14774972200393677,0.519865870475769
1772698494589827300,4.972827392578125,-0.14461922645568848,-0.15002645552158356,0.5955254435539246
1772698494599784400,4.982784423828125,-0.26762107014656067,-0.09148195385932922,0.5212175846099854
1772698494609741300,4.9927412109375,-0.270402729511261,0.00527308601886034,0.3431817591190338
1772698494619698200,5.0026982421875,-0.1081182062625885,0.09159095585346222,0.15262958407402039
1772698494629656300,5.01265625,0.1890849769115448,0.1463969349861145,0.040263086557388306
1772698494639613400,5.022613525390625,0.5323357582092285,0.15928226709365845,0.05937696248292923
1772698494649570300,5.0325703125,0.7834060788154602,0.161594420671463,0.2008691132068634
1772698494659527400,5.04252734375,0.9128461480140686,0.17268741130828857,0.43402180075645447
1772698494669484300,5.052484375,0.9248205423355103,0.0937449261546135,0.7085750699043274
1772698494679441200,5.062441162109375,0.710729718208313,-0.23969410359859467,0.745660126209259
1772698494689398300,5.072398193359375,0.2695885896682739,-0.5832709074020386,0.3282564878463745
1772698494699355400,5.08235546875,-0.2811482846736908,-0.8182326555252075,-0.4600377678871155
1772698494709313300,5.092313232421875,-0.7949690222740173,-0.7906780242919922,-0.9511025547981262
1772698494719270100,5.102270263671875,-1.245835542678833,-0.5878479480743408,-0.8050870299339294
1772698494729227300,5.112227294921875,-1.5484424829483032,-0.33893612027168274,-0.22069522738456726
1772698494739184400,5.122184326171875,-1.6080679893493652,-0.1587609499692917,0.40593379735946655
1772698494749141200,5.132141357421875,-1.356360673904419,-0.0031588322017341852,0.6932979226112366
1772698494759098400,5.142098388671875,-0.8613016605377197,0.04455162212252617,0.5073381662368774
1772698494769055500,5.152055419921875,-0.256510853767395,0.11493417620658875,-0.06731928884983063
1772698494779012000,5.16201220703125,0.29909032583236694,0.21649858355522156,-0.7675004601478577
1772698494788969200,5.17196923828125,0.7005911469459534,0.33489182591438293,-1.2120654582977295
1772698494798927400,5.18192724609375,0.9406352043151855,0.457502543926239,-1.2785849571228027
1772698494808884500,5.191884521484375,1.0282065868377686,0.5260813236236572,-1.1138359308242798
1772698494818841300,5.20184130859375,0.9910493493080139,0.5138879418373108,-0.8710042834281921
1772698494828798200,5.211798095703125,0.8782711029052734,0.41406840085983276,-0.6162332892417908
1772698494838755300,5.22175537109375,0.7203338742256165,0.2794651985168457,-0.3679777979850769
1772698494848712200,5.231712158203125,0.5189605951309204,0.14787787199020386,-0.14360353350639343
1772698494858669300,5.24166943359375,0.280409574508667,0.062276486307382584,0.05019477754831314
1772698494868626400,5.25162646484375,0.04221884161233902,0.033818744122982025,0.20017415285110474
1772698494878584300,5.261584228515625,-0.15685886144638062,0.05340755730867386,0.30612772703170776
1772698494888541200,5.271541259765625,-0.2641421854496002,0.08942653983831406,0.35267284512519836
1772698494898498300,5.281498291015625,-0.27717724442481995,0.11070610582828522,0.3342503607273102
1772698494908455400,5.291455322265625,-0.21737943589687347,0.10500533878803253,0.2501208186149597
1772698494918412300,5.301412353515625,-0.12728099524974823,0.08051776140928268,0.11486845463514328
1772698494928369400,5.311369384765625,-0.035482894629240036,0.06004071235656738,-0.04144471883773804
1772698494938326300,5.321326171875,0.0312679186463356,0.04600056633353233,-0.17226168513298035
1772698494948283100,5.331283203125,0.0765451192855835,0.027758710086345673,-0.21215158700942993
1772698494958240300,5.341240234375,0.11968167126178741,0.007458765059709549,-0.15385045111179352
1772698494968198400,5.351198486328125,0.12771722674369812,0.0021862387657165527,-0.04991767555475235
1772698494978155300,5.3611552734375,0.07090163975954056,0.013576928526163101,0.04832501709461212
1772698494988112100,5.371112060546875,-0.01827431097626686,0.026657842099666595,0.12544803321361542
1772698494998069200,5.3810693359375,-0.10544176399707794,0.03454085439443588,0.16497959196567535
1772698495008026400,5.3910263671875,-0.15266521275043488,0.02404773235321045,0.1788032501935959
1772698495017983200,5.400983154296875,-0.1671849638223648,0.009133408777415752,0.1716877967119217
1772698495027940400,5.4109404296875,-0.14769037067890167,0.003594299778342247,0.15998001396656036
1772698495037897500,5.4208974609375,-0.08209353685379028,0.0011665034107863903,0.14174367487430573
1772698495047855400,5.43085546875,0.010437467135488987,0.0007704910822212696,0.1440073698759079
1772698495057812700,5.440812744140625,0.10536395013332367,-0.016884474083781242,0.1394280046224594
1772698495067769900,5.450769775390625,0.1662595272064209,-0.04047742113471031,0.11296790838241577
1772698495077726700,5.460726806640625,0.180861696600914,-0.07313773036003113,0.07768317312002182
1772698495087683600,5.47068359375,0.15697847306728363,-0.10418113321065903,0.057847946882247925
1772698495097640700,5.480640625,0.09701205044984818,-0.12562760710716248,0.09324576705694199
1772698495107597600,5.49059765625,0.029097450897097588,-0.14647243916988373,0.1879749447107315
1772698495117554700,5.5005546875,-0.02818877622485161,-0.17863795161247253,0.3042137622833252
1772698495127511800,5.51051171875,-0.0989721417427063,-0.23313981294631958,0.3880564570426941
1772698495137469700,5.5204697265625,-0.21989133954048157,-0.3019568920135498,0.39532482624053955
1772698495147426600,5.530426513671875,-0.3383548855781555,-0.35287919640541077,0.33597785234451294
1772698495157383700,5.5403837890625,-0.42333075404167175,-0.36795487999916077,0.28619587421417236
1772698495167340800,5.5503408203125,-0.49815040826797485,-0.37781602144241333,0.3193266689777374
1772698495177297700,5.560297607421875,-0.5684147477149963,-0.33901989459991455,0.4224865734577179
1772698495187254800,5.5702548828125,-0.5696078538894653,-0.2700355052947998,0.47433486580848694
1772698495197211600,5.580211669921875,-0.5036749243736267,-0.18856492638587952,0.37477031350135803
1772698495207168500,5.59016845703125,-0.4077550172805786,-0.17952081561088562,0.11017116904258728
1772698495217126700,5.600126708984375,-0.2713329792022705,-0.26385262608528137,-0.22967039048671722
1772698495227083800,5.610083740234375,-0.132514089345932,-0.4089418947696686,-0.582064688205719
1772698495237040600,5.62004052734375,-0.09058958292007446,-0.5616822838783264,-0.8766916394233704
1772698495246997500,5.62999755859375,-0.1851286143064499,-0.6716295480728149,-1.051937222480774
1772698495256954600,5.63995458984375,-0.40378713607788086,-0.6765168905258179,-1.0701638460159302
1772698495266911700,5.649911865234375,-0.6775462627410889,-0.5516021251678467,-0.8804048895835876
1772698495276868600,5.65986865234375,-0.9291234016418457,-0.29087018966674805,-0.4550218880176544
1772698495286825700,5.66982568359375,-1.0330561399459839,-0.02875494584441185,0.07737411558628082
1772698495296783600,5.67978369140625,-0.8923501372337341,0.22335436940193176,0.3413931727409363
1772698495306740700,5.68974072265625,-0.5303331017494202,0.3682844042778015,0.24164767563343048
1772698495316697600,5.699697509765625,-0.03689273074269295,0.4239133298397064,-0.057816408574581146
1772698495326654700,5.70965478515625,0.4954252541065216,0.4255181550979614,-0.33849841356277466
1772698495336611800,5.71961181640625,0.9356107711791992,0.4251837730407715,-0.4925844371318817
1772698495346568700,5.729568603515625,1.1920335292816162,0.40671077370643616,-0.49762341380119324
1772698495356525600,5.739525634765625,1.2016247510910034,0.34489184617996216,-0.3955637216567993
1772698495366482700,5.749482666015625,0.9724788069725037,0.2305423468351364,-0.26472315192222595
1772698495376440800,5.75944091796875,0.566720724105835,0.07950770109891891,-0.15185511112213135
1772698495386397700,5.769397705078125,0.09032965451478958,-0.06593471020460129,-0.07569456100463867
1772698495396354600,5.7793544921875,-0.3771789073944092,-0.1733228862285614,-0.06994523853063583
1772698495406311700,5.789311767578125,-0.7629596590995789,-0.21749967336654663,-0.1104830801486969
1772698495416268500,5.7992685546875,-1.0187722444534302,-0.22392259538173676,-0.17224149405956268
1772698495426225700,5.8092255859375,-1.1382395029067993,-0.2244589477777481,-0.2101380079984665
1772698495436182800,5.819182861328125,-1.1083027124404907,-0.23111525177955627,-0.21842847764492035
1772698495446139600,5.8291396484375,-0.9351341724395752,-0.2576499283313751,-0.20111340284347534
1772698495456097500,5.83909765625,-0.7010555863380432,-0.27045953273773193,-0.16892670094966888
1772698495466054700,5.8490546875,-0.4786528944969177,-0.2822996973991394,-0.10372773557901382
1772698495476011800,5.85901171875,-0.32111674547195435,-0.26970356702804565,-0.04606156051158905
1772698495485968600,5.86896875,-0.2431521713733673,-0.23506620526313782,-0.021896038204431534
1772698495495925800,5.87892578125,-0.23378878831863403,-0.19363601505756378,-0.04703579470515251
1772698495505882600,5.888882568359375,-0.26417624950408936,-0.1371825933456421,-0.10388603061437607
1772698495515839500,5.898839599609375,-0.2894326448440552,-0.07603069394826889,-0.15674111247062683
1772698495525796600,5.908796630859375,-0.2984551787376404,-0.012201642617583275,-0.18206830322742462
1772698495535753700,5.918753662109375,-0.2937552332878113,0.04399082437157631,-0.19078201055526733
1772698495545711900,5.9287119140625,-0.25597456097602844,0.0955195277929306,-0.1770012229681015
1772698495555668500,5.93866845703125,-0.1816883534193039,0.1379564106464386,-0.14625990390777588
1772698495565625600,5.94862548828125,-0.06968564540147781,0.14607104659080505,-0.09218575060367584
1772698495575582700,5.958582763671875,0.06071634218096733,0.16373196244239807,-0.03736262395977974
1772698495585539600,5.96853955078125,0.18245023488998413,0.18969032168388367,0.011998268775641918
1772698495595496700,5.97849658203125,0.2772478461265564,0.21991375088691711,0.04689709469676018
1772698495605453800,5.988453857421875,0.3536693751811981,0.23824481666088104,0.03853343799710274
1772698495615410700,5.99841064453125,0.4199940860271454,0.26539069414138794,0.003724093548953533
1772698495625368600,6.00836865234375,0.4730948507785797,0.2744467556476593,-0.02659519761800766
1772698495635325700,6.01832568359375,0.515705406665802,0.2837696075439453,-0.021603412926197052
1772698495645282800,6.02828271484375,0.5543941855430603,0.2818446755409241,0.03069840744137764
1772698495655239700,6.03823974609375,0.5554307699203491,0.2757922112941742,0.11573436856269836
1772698495665196500,6.048196533203125,0.5126875638961792,0.2757384181022644,0.22872936725616455
1772698495675153700,6.058153564453125,0.458505779504776,0.2750861644744873,0.3865913450717926
1772698495685110500,6.068110595703125,0.3957907259464264,0.24749049544334412,0.5592331886291504
1772698495695067600,6.078067626953125,0.3396412134170532,0.20108075439929962,0.6851612329483032
1772698495705024800,6.088024658203125,0.2884289026260376,0.153870090842247,0.7349171042442322
1772698495714982700,6.097982666015625,0.2292688637971878,0.10726948082447052,0.7296056747436523
1772698495724939500,6.107939453125,0.19665926694869995,0.10406330227851868,0.7055272459983826
1772698495734896600,6.117896728515625,0.18973824381828308,0.13472880423069,0.6814687848091125
1772698495744853800,6.127853759765625,0.20927678048610687,0.13853605091571808,0.6945483684539795
1772698495754810600,6.137810546875,0.20514412224292755,0.157082661986351,0.6550012230873108
1772698495764767700,6.147767822265625,0.1749369502067566,0.183964341878891,0.4871616065502167
1772698495774724600,6.157724609375,0.16459374129772186,0.1639396995306015,0.2495734989643097
1772698495784681700,6.167681640625,0.22007323801517487,0.09405648708343506,0.05484316870570183
1772698495794639600,6.1776396484375,0.31460461020469666,0.00950022041797638,-0.05401058867573738
1772698495804596700,6.1875966796875,0.3925212323665619,-0.16298313438892365,-0.08245901018381119
1772698495814553900,6.197553955078125,0.3414052426815033,-0.38318100571632385,-0.07998070120811462
1772698495824510500,6.207510498046875,0.15112611651420593,-0.5721426606178284,-0.1584925502538681
1772698495834467600,6.217467529296875,-0.14847278594970703,-0.6597181558609009,-0.33740508556365967
1772698495844424700,6.2274248046875,-0.4990167021751404,-0.6424834728240967,-0.5219928026199341
1772698495854381600,6.237381591796875,-0.810604989528656,-0.57338947057724,-0.6095040440559387
1772698495864338700,6.247338623046875,-1.0085440874099731,-0.5011440515518188,-0.5458236336708069
1772698495874296600,6.257296630859375,-1.0540306568145752,-0.473019540309906,-0.34542539715766907
1772698495884253700,6.267253662109375,-0.9485610127449036,-0.5086464881896973,-0.12626028060913086
1772698495894210600,6.27721044921875,-0.7800705432891846,-0.5223697423934937,-0.025138944387435913
1772698495904167700,6.287167724609375,-0.6327543258666992,-0.48305562138557434,-0.08908862620592117
1772698495914124800,6.297124755859375,-0.5194077491760254,-0.40116003155708313,-0.2220911681652069
1772698495924081700,6.30708154296875,-0.40978825092315674,-0.30857282876968384,-0.3296557068824768
1772698495934038500,6.31703857421875,-0.3044224977493286,-0.25335073471069336,-0.3757554292678833
1772698495943995600,6.32699560546875,-0.1941729336977005,-0.23945355415344238,-0.3731559216976166
1772698495953953800,6.336953857421875,-0.0857042446732521,-0.2585364282131195,-0.3211337625980377
1772698495963910700,6.34691064453125,-0.020099928602576256,-0.2567931115627289,-0.22365914285182953
1772698495973867800,6.35686767578125,-0.052546530961990356,-0.22371791303157806,-0.11244655400514603
1772698495983824600,6.36682470703125,-0.14298294484615326,-0.16802775859832764,-0.013673106208443642
1772698495993781500,6.376781494140625,-0.24775120615959167,-0.11161062866449356,0.0374571792781353
1772698496003738600,6.386738525390625,-0.32723912596702576,-0.053638141602277756,0.03163790702819824
1772698496013695700,6.39669580078125,-0.3799465596675873,0.003917369991540909,0.006570425350219011
1772698496023652900,6.40665283203125,-0.400848388671875,0.06503850966691971,0.0003042737953364849
1772698496033609700,6.416609619140625,-0.38658180832862854,0.12336001545190811,0.01997770555317402
1772698496043567600,6.426567626953125,-0.33096274733543396,0.16916343569755554,0.06106335297226906
1772698496053524700,6.436524658203125,-0.24118435382843018,0.20493543148040771,0.11913474649190903
1772698496063481300,6.4464814453125,-0.13575538992881775,0.2318195104598999,0.18474410474300385
1772698496073438500,6.4564384765625,-0.019563574343919754,0.27245232462882996,0.24717369675636292
1772698496083395300,6.466395263671875,0.09052004665136337,0.32280898094177246,0.2906956076622009
1772698496093352200,6.476352294921875,0.18624813854694366,0.3848477303981781,0.32321375608444214
1772698496103309300,6.486309326171875,0.2686804234981537,0.45067813992500305,0.36886805295944214
1772698496113266200,6.49626611328125,0.3481369614601135,0.48952847719192505,0.40265583992004395
1772698496123224300,6.506224365234375,0.4093015193939209,0.5281504392623901,0.3899533450603485
1772698496133181400,6.516181396484375,0.4581659734249115,0.549863338470459,0.3174416720867157
1772698496143138300,6.52613818359375,0.5017227530479431,0.5592243671417236,0.20627787709236145
1772698496153095200,6.53609521484375,0.5576057434082031,0.5408811569213867,0.12043401598930359
1772698496163052300,6.54605224609375,0.6064971685409546,0.5143305063247681,0.0812397450208664
1772698496173009400,6.556009521484375,0.6225476861000061,0.47517532110214233,0.07983730733394623
1772698496182966300,6.56596630859375,0.5887125134468079,0.4292461574077606,0.09912418574094772
1772698496192923400,6.57592333984375,0.5271607041358948,0.3742976784706116,0.14029057323932648
1772698496202881300,6.58588134765625,0.4598722457885742,0.29366379976272583,0.1763915866613388
1772698496212838400,6.59583837890625,0.37768128514289856,0.17828091979026794,0.17841191589832306
1772698496222795300,6.605795166015625,0.27877387404441833,0.08518347144126892,0.12801212072372437
1772698496232752400,6.61575244140625,0.1453886181116104,-0.00591887254267931,0.0415830984711647
1772698496242709500,6.62570947265625,0.01374137308448553,-0.0901823490858078,-0.04129713773727417
1772698496252666000,6.635666015625,-0.11230761557817459,-0.17837950587272644,-0.12361064553260803
1772698496262623200,6.645623291015625,-0.1992446333169937,-0.2676087021827698,-0.21598051488399506
1772698496272580400,6.655580322265625,-0.19016620516777039,-0.32407146692276,-0.30590611696243286
1772698496282538500,6.66553857421875,-0.11513029783964157,-0.4258157014846802,-0.3636048436164856
1772698496292495400,6.675495361328125,-0.049211762845516205,-0.5826309323310852,-0.36253902316093445
1772698496302452200,6.6854521484375,-0.05117398127913475,-0.7140832543373108,-0.3197830319404602
1772698496312409300,6.695409423828125,-0.21321025490760803,-0.7869285345077515,-0.2534477710723877
1772698496322366200,6.7053662109375,-0.5459924936294556,-0.7823348641395569,-0.22645264863967896
1772698496332323300,6.7153232421875,-0.9180871844291687,-0.7101995348930359,-0.24624419212341309
1772698496342280400,6.725280517578125,-1.1736912727355957,-0.6480607986450195,-0.2575131058692932
1772698496352237300,6.7352373046875,-1.2335309982299805,-0.5870490074157715,-0.21094481647014618
1772698496362195200,6.7451953125,-1.1051490306854248,-0.5012664794921875,-0.10711189359426498
1772698496372152300,6.75515234375,-0.8585192561149597,-0.38652166724205017,-0.05665137246251106
1772698496382109400,6.765109375,-0.5544302463531494,-0.19244620203971863,-0.1971176713705063
1772698496392066300,6.77506640625,-0.2731335759162903,0.06738084554672241,-0.5710561871528625
1772698496402023400,6.7850234375,-0.04344576597213745,0.3070690631866455,-1.0378485918045044
1772698496411980300,6.794980224609375,0.2396155446767807,0.4693947732448578,-1.3348335027694702
1772698496421937200,6.804937255859375,0.5866624712944031,0.6141586303710938,-1.3284250497817993
1772698496431894300,6.814894287109375,0.9572474360466003,0.7163053750991821,-1.0751547813415527
1772698496441851400,6.824851318359375,1.2807426452636719,0.7693052291870117,-0.6880074739456177
1772698496451809300,6.834809326171875,1.4879786968231201,0.7847750782966614,-0.33219558000564575
1772698496461766100,6.84476611328125,1.5549635887145996,0.7680624127388,-0.10970179736614227
1772698496471723300,6.85472314453125,1.494771122932434,0.7016955018043518,-0.03448615223169327
1772698496481680400,6.864680419921875,1.3237271308898926,0.5519270300865173,-0.02094957046210766
1772698496491637200,6.87463720703125,1.0677515268325806,0.3838225305080414,-0.0043825688771903515
1772698496501594400,6.884594482421875,0.7496324777603149,0.22945131361484528,0.04637621343135834
1772698496511551500,6.894551513671875,0.39295580983161926,0.12467166036367416,0.13888317346572876
1772698496521508000,6.904508056640625,0.03966113179922104,0.06489727646112442,0.24994924664497375
1772698496531466200,6.91446630859375,-0.2711487114429474,0.005430602002888918,0.35392990708351135
1772698496541423400,6.92442333984375,-0.5042001008987427,-0.061269599944353104,0.4319581389427185
1772698496551380500,6.93438037109375,-0.6554843187332153,-0.1435413360595703,0.4678424298763275
1772698496561337300,6.94433740234375,-0.7389289140701294,-0.21062316000461578,0.4571538269519806
1772698496571294200,6.954294189453125,-0.8009693622589111,-0.26539355516433716,0.3928438723087311
1772698496581251300,6.964251220703125,-0.8305557370185852,-0.2955552041530609,0.29317373037338257
1772698496591208200,6.974208251953125,-0.8114753365516663,-0.30655917525291443,0.19069576263427734
1772698496601165300,6.984165283203125,-0.7533107995986938,-0.2926734387874603,0.08699146658182144
1772698496611123200,6.994123291015625,-0.6630863547325134,-0.2745968997478485,-0.008357143960893154
1772698496621080300,7.004080322265625,-0.5246227383613586,-0.25236138701438904,-0.076423279941082
1772698496631037200,7.014037109375,-0.35627982020378113,-0.23471693694591522,-0.07415510714054108
1772698496640994300,7.023994384765625,-0.18951961398124695,-0.218763530254364,-0.008364380337297916
1772698496650951400,7.033951416015625,-0.032549165189266205,-0.21212425827980042,0.0536123663187027
1772698496660908300,7.043908203125,0.10406886786222458,-0.1973562240600586,0.06540723145008087
1772698496670865400,7.053865478515625,0.20059382915496826,-0.16434094309806824,0.02648119069635868
1772698496680822300,7.063822265625,0.25874796509742737,-0.11911488324403763,-0.002352587878704071
1772698496690779100,7.073779052734375,0.30911871790885925,-0.08081191033124924,-0.0023924154229462147
1772698496700737300,7.0837373046875,0.35723087191581726,-0.0498630553483963,0.01858743466436863
1772698496710694400,7.0936943359375,0.41130363941192627,-0.044482242316007614,0.054105810821056366
1772698496720651300,7.1036513671875,0.46312183141708374,-0.046366430819034576,0.08330684155225754
1772698496730608000,7.113608154296875,0.4956541955471039,-0.05999336391687393,0.11087184399366379
1772698496740565200,7.123565185546875,0.5085721015930176,-0.06421367824077606,0.133148655295372
1772698496750522400,7.1335224609375,0.5138640999794006,-0.0683513730764389,0.14751169085502625
1772698496760479200,7.143479248046875,0.4890969693660736,-0.06168121472001076,0.16169622540473938
1772698496770436400,7.153436279296875,0.4420386552810669,-0.061311252415180206,0.1993529051542282
1772698496780394200,7.163394287109375,0.37372565269470215,-0.10359293222427368,0.2861482501029968
1772698496790351400,7.173351318359375,0.3047705888748169,-0.15586508810520172,0.4079127013683319
1772698496800308200,7.18330810546875,0.21908338367938995,-0.18409033119678497,0.5780884623527527
1772698496810265300,7.193265380859375,0.12650124728679657,-0.16882246732711792,0.7695959806442261
1772698496820222500,7.203222412109375,0.05594637989997864,-0.12740179896354675,0.9322719573974609
1772698496830179300,7.213179443359375,0.05183708295226097,-0.053854744881391525,0.9762017130851746
1772698496840136200,7.22313623046875,0.15705963969230652,0.023166006430983543,0.8846704959869385
1772698496850093300,7.23309326171875,0.3499539792537689,0.11415953934192657,0.6589114665985107
1772698496860051500,7.243051513671875,0.5505544543266296,0.2056172788143158,0.36066457629203796
1772698496870008300,7.25300830078125,0.6946781277656555,0.21562209725379944,0.048462122678756714
1772698496879965200,7.262965087890625,0.738803505897522,0.18063561618328094,-0.2531139552593231
1772698496889922300,7.27292236328125,0.6919049024581909,0.12071247398853302,-0.48083585500717163
1772698496899879200,7.282879150390625,0.5342375040054321,0.03426147252321243,-0.6100159883499146
1772698496909836300,7.292836181640625,0.27111512422561646,-0.09225987643003464,-0.6897957921028137
1772698496919793400,7.30279345703125,-0.09704159945249557,-0.18235088884830475,-0.7927972674369812
1772698496929750300,7.312750244140625,-0.49641162157058716,-0.21719571948051453,-0.832065224647522
1772698496939708200,7.322708251953125,-0.8296908140182495,-0.20005188882350922,-0.6935158371925354
1772698496949665300,7.332665283203125,-1.051204800605774,-0.14561600983142853,-0.36916330456733704
1772698496959622400,7.342622314453125,-1.1707173585891724,-0.10143309831619263,0.0163942389190197
1772698496969579300,7.352579345703125,-1.189882516860962,-0.06555547565221786,0.22464555501937866
1772698496979536400,7.362536376953125,-1.105076789855957,-0.09233356267213821,0.18799912929534912
1772698496989493200,7.3724931640625,-0.9113166928291321,-0.13812941312789917,0.011970451101660728
1772698496999450000,7.3824501953125,-0.6638107895851135,-0.19446910917758942,-0.21397052705287933
1772698497009407200,7.3924072265625,-0.4072002172470093,-0.23052659630775452,-0.41212260723114014
1772698497019365400,7.402365478515625,-0.1909550130367279,-0.2567614018917084,-0.5487656593322754
1772698497029322500,7.412322509765625,-0.05094014108181,-0.27751973271369934,-0.6134922504425049
1772698497039279000,7.422279052734375,0.009319468401372433,-0.30369967222213745,-0.6212130188941956
1772698497049236200,7.432236328125,-0.015171242877840996,-0.3399794399738312,-0.6065521836280823
1772698497059193300,7.442193359375,-0.10750516504049301,-0.3924431800842285,-0.5884836912155151
1772698497069150700,7.452150634765625,-0.22279894351959229,-0.4512607455253601,-0.5630942583084106
1772698497079107800,7.46210791015625,-0.3515068590641022,-0.48386743664741516,-0.5175735950469971
1772698497089065000,7.47206494140625,-0.4809442460536957,-0.5097072124481201,-0.4362543821334839
1772698497099021600,7.482021484375,-0.6015225648880005,-0.5093876123428345,-0.3130866587162018
1772698497108979700,7.491979736328125,-0.691511332988739,-0.4847325086593628,-0.1610051542520523
1772698497118936800,7.501936767578125,-0.724838376045227,-0.4440021216869354,0.00654602563008666
1772698497128893700,7.511893798828125,-0.6975242495536804,-0.39498087763786316,0.1678965985774994
1772698497138850800,7.521850830078125,-0.6205152273178101,-0.3343907594680786,0.3112260699272156
1772698497148807700,7.5318076171875,-0.4961344003677368,-0.2717268764972687,0.4196458160877228
1772698497158764800,7.541764892578125,-0.3450908064842224,-0.19040726125240326,0.47826147079467773
1772698497168721700,7.5517216796875,-0.17659127712249756,-0.10440731793642044,0.4986130893230438
1772698497178678800,7.5616787109375,0.005920748692005873,-0.021082330495119095,0.4900169372558594
1772698497188636700,7.57163671875,0.1813386082649231,0.06100817769765854,0.466952383518219
1772698497198593500,7.581593505859375,0.32866227626800537,0.12790705263614655,0.41509050130844116
1772698497208550700,7.591550537109375,0.45205217599868774,0.19042623043060303,0.35955706238746643
1772698497218507800,7.6015078125,0.5458835959434509,0.2526856064796448,0.3128087520599365
1772698497228464600,7.611464599609375,0.6079740524291992,0.3134346306324005,0.28935399651527405
1772698497238421800,7.621421875,0.6423967480659485,0.3498208522796631,0.28257012367248535
1772698497248379000,7.63137890625,0.6435191035270691,0.35106196999549866,0.2815842032432556
1772698497258335700,7.641335693359375,0.6218497157096863,0.3323673903942108,0.2691304683685303
1772698497268293600,7.651293701171875,0.595562756061554,0.2985660135746002,0.23329737782478333
1772698497278250800,7.661250732421875,0.5701135396957397,0.2551218569278717,0.19110597670078278
1772698497288208000,7.671207763671875,0.5228815674781799,0.21330499649047852,0.14435851573944092
1772698497298164500,7.68116455078125,0.43538525700569153,0.18914532661437988,0.07679836452007294
1772698497308121600,7.69112158203125,0.33218833804130554,0.1734069287776947,-0.02059764787554741
1772698497318078700,7.70107861328125,0.2608105540275574,0.13480493426322937,-0.09829084575176239
1772698497328035800,7.711035888671875,0.23677846789360046,0.058399446308612823,-0.13348260521888733
1772698497337992700,7.72099267578125,0.26371127367019653,-0.021885808557271957,-0.1170588955283165
1772698497347950600,7.73095068359375,0.34443753957748413,-0.09626661986112595,-0.018600312992930412
1772698497357907700,7.74090771484375,0.4081563353538513,-0.14512018859386444,0.15376532077789307
1772698497367864600,7.750864501953125,0.387297660112381,-0.17274509370326996,0.3590448498725891
1772698497377821700,7.76082177734375,0.25270095467567444,-0.19853967428207397,0.5182797312736511
1772698497387778800,7.77077880859375,0.049266088753938675,-0.22199787199497223,0.5886843800544739
1772698497397736000,7.78073583984375,-0.19043783843517303,-0.2663024961948395,0.5386057496070862
1772698497407692500,7.790692626953125,-0.3919272720813751,-0.3796878755092621,0.3801591098308563
1772698497417649700,7.800649658203125,-0.5557697415351868,-0.5793882012367249,0.119646817445755
1772698497427607800,7.81060791015625,-0.734486997127533,-0.8190804123878479,-0.16674891114234924
1772698497437564700,7.820564697265625,-0.9666789770126343,-0.9904133081436157,-0.42161422967910767
1772698497447521800,7.830521728515625,-1.1869794130325317,-1.0297714471817017,-0.6389214396476746
1772698497457478700,7.840478759765625,-1.326384425163269,-0.8215242028236389,-0.7752566337585449
1772698497467435800,7.850435791015625,-1.2378710508346558,-0.4740694463253021,-0.6371877193450928
1772698497477392600,7.860392578125,-0.8575999140739441,-0.07755327224731445,-0.2271091490983963
1772698497487349800,7.870349853515625,-0.2425602227449417,0.2405562847852707,0.15883933007717133
1772698497497307000,7.880306884765625,0.43318575620651245,0.4726371765136719,0.18714046478271484
1772698497507263700,7.890263671875,1.0228173732757568,0.5715964436531067,-0.1061801090836525
1772698497517221600,7.9002216796875,1.43441641330719,0.6122855544090271,-0.46628421545028687
1772698497527178800,7.9101787109375,1.6407150030136108,0.6013191342353821,-0.6278306841850281
1772698497537135600,7.920135498046875,1.640343189239502,0.5520003437995911,-0.5157052278518677
1772698497547092700,7.9300927734375,1.448384404182434,0.4636094868183136,-0.21463385224342346
1772698497557049900,7.9400498046875,1.1005744934082031,0.3582737445831299,0.13466422259807587
1772698497567006700,7.9500068359375,0.645717442035675,0.23912358283996582,0.41182175278663635
1772698497576963600,7.959963623046875,0.15141214430332184,0.12609264254570007,0.5682616829872131
1772698497586920700,7.969920654296875,-0.3116651475429535,0.05503199249505997,0.5733833909034729
1772698497596878800,7.97987890625,-0.6638871431350708,-0.006810599938035011,0.4704076945781708
1772698497606835700,7.989835693359375,-0.7901178002357483,-0.06361744552850723,0.3179292678833008
1772698497616792600,7.99979248046875,-0.6594330072402954,-0.11117777228355408,0.23327326774597168
1772698497626749700,8.009749755859374,-0.3519665598869324,-0.12844720482826233,0.24305525422096252
1772698497636706800,8.019706787109374,-0.0361766554415226,-0.07410486042499542,0.2741657793521881
1772698497646663700,8.02966357421875,0.22187671065330505,0.01836509071290493,0.2424093633890152
1772698497656620800,8.039620849609374,0.4251009225845337,0.0982452780008316,0.149196058511734
1772698497666578000,8.049577880859376,0.57137531042099,0.141871839761734,0.04624388366937637
1772698497676535600,8.05953564453125,0.6561373472213745,0.16136804223060608,-0.012523558922111988
1772698497686492700,8.06949267578125,0.6680883169174194,0.16547292470932007,-0.032009851187467575
1772698497696449800,8.07944970703125,0.5899509191513062,0.15090836584568024,-0.026120537891983986
1772698497706407000,8.089406982421876,0.4800720512866974,0.12263036519289017,-0.00913988333195448
1772698497716363800,8.09936376953125,0.33159685134887695,0.08535382896661758,0.03865107521414757
1772698497726320600,8.109320556640625,0.15451468527317047,0.0537634901702404,0.11035514622926712
1772698497736277800,8.11927783203125,-0.004145524930208921,0.035798072814941406,0.18321949243545532
1772698497746234600,8.129234619140625,-0.10694054514169693,0.021731480956077576,0.23507295548915863
1772698497756191700,8.139191650390625,-0.13946865499019623,0.014974507503211498,0.24631361663341522
1772698497766149600,8.149149658203125,-0.11220906674861908,0.023539522662758827,0.21265597641468048
1772698497776106800,8.159106689453125,-0.031846318393945694,0.04201200604438782,0.15579988062381744
1772698497786063600,8.169063720703125,0.11578010022640228,0.07016119360923767,0.09423930197954178
1772698497796020700,8.179020751953125,0.3146466016769409,0.09271550178527832,0.06485291570425034
1772698497805977900,8.188977783203125,0.5281695127487183,0.10630699247121811,0.06804802268743515
1772698497815934700,8.198934814453125,0.7247041463851929,0.09100846201181412,0.09094960987567902
1772698497825891800,8.208891845703125,0.8447788953781128,0.0717843770980835,0.11544768512248993
1772698497835848700,8.2188486328125,0.8909338712692261,0.046193260699510574,0.1531977355480194
1772698497845806800,8.228806884765625,0.856853723526001,0.019044823944568634,0.184284508228302
1772698497855763700,8.238763671875,0.742021918296814,0.03093450702726841,0.21401524543762207
1772698497865720800,8.248720947265625,0.5749236941337585,0.06023215875029564,0.23621363937854767
1772698497875678000,8.258677978515625,0.40188324451446533,0.0668754130601883,0.2371111363172531
1772698497885634600,8.268634521484374,0.2655089497566223,0.019747508689761162,0.2196471244096756
1772698497895591700,8.278591796875,0.1846732199192047,-0.03431839123368263,0.21980184316635132
1772698497905548800,8.288548828125,0.1768421232700348,-0.09321287274360657,0.2473275363445282
1772698497915505700,8.298505615234374,0.22013074159622192,-0.09958288818597794,0.30228373408317566
1772698497925463600,8.308463623046874,0.2721388339996338,-0.05302225053310394,0.3636568784713745
1772698497935420700,8.318420654296874,0.35226643085479736,0.007975324057042599,0.35985973477363586
1772698497945377800,8.328377685546876,0.39130255579948425,0.05857149884104729,0.25830379128456116
1772698497955334700,8.338334716796876,0.33515751361846924,0.0887506976723671,0.08676929771900177
1772698497965291800,8.348291748046876,0.24285872280597687,0.06803636252880096,-0.07335349172353745
1772698497975249000,8.358248779296876,0.11688827723264694,0.010613013990223408,-0.1352299004793167
1772698497985205800,8.368205810546876,-0.059597279876470566,-0.06760085374116898,-0.06296815723180771
1772698497995162600,8.37816259765625,-0.2804063558578491,-0.139975443482399,0.007525452878326178
1772698498005119700,8.38811962890625,-0.5032591223716736,-0.1848682165145874,-0.07944317162036896
1772698498015078000,8.398077880859375,-0.6289499402046204,-0.2429373860359192,-0.2691401541233063
1772698498025034800,8.40803466796875,-0.5809898376464844,-0.2749533951282501,-0.3083042502403259
1772698498034991600,8.41799169921875,-0.4155801236629486,-0.22451764345169067,-0.050063107162714005
1772698498044948700,8.42794873046875,-0.26033976674079895,-0.1321536898612976,0.34676170349121094
1772698498054905600,8.437905517578125,-0.200654074549675,-0.01762552000582218,0.6017596125602722
1772698498064862500,8.447862548828125,-0.2448539286851883,0.05280047655105591,0.5445718765258789
1772698498074819600,8.457819580078125,-0.2959517240524292,0.05605006217956543,0.25045129656791687
1772698498084776700,8.467776611328125,-0.29778188467025757,0.037160709500312805,-0.09849739074707031
1772698498094734600,8.477734619140625,-0.2716695964336395,0.019664276391267776,-0.38255441188812256
1772698498104691500,8.48769140625,-0.2918901741504669,0.04840800538659096,-0.5652332901954651
1772698498114648600,8.497648681640625,-0.3477156162261963,0.08580144494771957,-0.6665663123130798
1772698498124605700,8.507605712890625,-0.407103031873703,0.07596838474273682,-0.7118135690689087
1772698498134562600,8.5175625,-0.438071072101593,0.028301801532506943,-0.7292076945304871
1772698498144519700,8.527519775390624,-0.4514893591403961,-0.06233691796660423,-0.7243770956993103
1772698498154476500,8.5374765625,-0.45371124148368835,-0.1459532529115677,-0.6838706731796265
1772698498164433400,8.547433349609374,-0.469379723072052,-0.16919313371181488,-0.5736629366874695
1772698498174391600,8.5573916015625,-0.5288646221160889,-0.16581358015537262,-0.3947659134864807
1772698498184348700,8.5673486328125,-0.6347935199737549,-0.14210975170135498,-0.22142262756824493
1772698498194305500,8.577305419921874,-0.7120800614356995,-0.09071288257837296,-0.10262487083673477
1772698498204262400,8.587262451171876,-0.7567164301872253,-0.033846087753772736,-0.03757784143090248
1772698498214219500,8.597219482421876,-0.7657615542411804,0.0062320902943611145,-0.02107822895050049
1772698498224176600,8.6071767578125,-0.738590657711029,0.05773123353719711,-0.03238654509186745
1772698498234133500,8.617133544921876,-0.6741914749145508,0.12536513805389404,-0.041102536022663116
1772698498244090600,8.627090576171875,-0.561665415763855,0.1818072497844696,-0.01938539370894432
1772698498254048500,8.637048583984376,-0.4122231900691986,0.19454115629196167,0.02455010637640953
1772698498264005600,8.647005615234375,-0.23332487046718597,0.18654432892799377,0.021405886858701706
1772698498273962500,8.65696240234375,-0.05240248888731003,0.16190876066684723,0.0031219529919326305
1772698498283919600,8.666919677734375,0.08193643391132355,0.13326920568943024,-0.03069569356739521
1772698498293876700,8.676876708984375,0.1686934381723404,0.1186697706580162,-0.05939977243542671
1772698498303833600,8.68683349609375,0.20416969060897827,0.1534392386674881,-0.07391810417175293
1772698498313790500,8.69679052734375,0.19628912210464478,0.20544810593128204,-0.052232518792152405
1772698498323747600,8.70674755859375,0.1816299706697464,0.2561023533344269,0.07727348059415817
1772698498333705700,8.716705810546875,0.17241942882537842,0.24497883021831512,0.27682867646217346
1772698498343662600,8.72666259765625,0.14657935500144958,0.17942209541797638,0.4408342242240906
1772698498353619500,8.736619384765625,0.09515237808227539,0.10818705707788467,0.49892550706863403
1772698498363576600,8.74657666015625,-0.01761441119015217,0.03794048726558685,0.4199388325214386
1772698498373533400,8.756533447265625,-0.17069078981876373,-0.02719670720398426,0.18213427066802979
1772698498383490600,8.766490478515625,-0.330933153629303,-0.00669293524697423,-0.3210681676864624
1772698498393447700,8.77644775390625,-0.4471772015094757,0.025070853531360626,-1.0020110607147217
1772698498403404500,8.786404541015624,-0.4305247664451599,0.08202558010816574,-1.5217816829681396
1772698498413361700,8.796361572265624,-0.22677403688430786,0.13893626630306244,-1.5616226196289062
1772698498423319600,8.806319580078124,0.15331338346004486,0.1612890362739563,-1.0635899305343628
1772698498433276700,8.816276611328124,0.47717800736427307,0.16502811014652252,-0.2418164163827896
1772698498443233500,8.826233642578124,0.5901706218719482,0.1609802544116974,0.5653664469718933
1772698498453190700,8.836190673828124,0.48810261487960815,0.1943558007478714,1.0015767812728882
1772698498463147500,8.8461474609375,0.2633536458015442,0.2873642146587372,1.0269436836242676
1772698498473104400,8.8561044921875,0.007383634336292744,0.37911197543144226,0.7998002171516418
1772698498483061500,8.8660615234375,-0.13147307932376862,0.4386279881000519,0.5226250290870667
1772698498493018600,8.8760185546875,-0.10816561430692673,0.41858983039855957,0.332004189491272
1772698498502976800,8.885976806640626,0.03937964513897896,0.3505713939666748,0.2277381271123886
1772698498512933400,8.895933349609376,0.24435728788375854,0.26495447754859924,0.14138060808181763
1772698498522890500,8.905890380859375,0.4366002082824707,0.19803883135318756,0.015514063648879528
1772698498532847600,8.91584765625,0.5757549405097961,0.16415223479270935,-0.14102919399738312
1772698498542804500,8.925804443359375,0.6683099269866943,0.15808728337287903,-0.2937874495983124
1772698498552761600,8.93576171875,0.7085558772087097,0.1606937199831009,-0.4081137776374817
1772698498562718700,8.94571875,0.6971527338027954,0.16373266279697418,-0.4526618421077728
1772698498572675600,8.955675537109375,0.6275337338447571,0.14499786496162415,-0.4421231746673584
1772698498582633500,8.965633544921875,0.5111269354820251,0.09713542461395264,-0.3601608872413635
1772698498592590600,8.975590576171875,0.36772024631500244,0.04925524815917015,-0.23135654628276825
1772698498602547700,8.985547607421875,0.20314516127109528,-0.00920694787055254,-0.08633798360824585
1772698498612504600,8.995504638671875,0.045118506997823715,-0.07558543980121613,0.05691158026456833
1772698498622461400,9.00546142578125,-0.07837441563606262,-0.13102610409259796,0.17395739257335663
1772698498632418600,9.01541845703125,-0.17253845930099487,-0.1546187847852707,0.2625815272331238
1772698498642375400,9.02537548828125,-0.2367560714483261,-0.15765216946601868,0.31719323992729187
1772698498652332500,9.03533251953125,-0.2616305351257324,-0.1571996957063675,0.34026846289634705
1772698498662289700,9.04528955078125,-0.22834129631519318,-0.17305484414100647,0.32974129915237427
1772698498672247600,9.05524755859375,-0.15125183761119843,-0.20458000898361206,0.28622499108314514
1772698498682204400,9.065204345703124,-0.04669400677084923,-0.24491973221302032,0.2172561138868332
1772698498692161500,9.07516162109375,0.2550591826438904,-0.40338554978370667,0.36249399185180664
1772698498702118700,9.08511865234375,0.3316749036312103,-0.2374848872423172,0.3661707043647766
1772698498712075500,9.095075439453124,0.2176537811756134,-0.2314528226852417,0.30980995297431946
1772698498722032600,9.10503271484375,0.030635176226496696,-0.18571247160434723,0.37127432227134705
1772698498731989500,9.114989501953126,-0.04678318649530411,-0.1954130381345749,0.4033654034137726
1772698498741946400,9.1249462890625,-0.014127503149211407,-0.18388448655605316,0.3310648500919342
1772698498751904500,9.134904541015626,-0.008542854338884354,-0.13426898419857025,0.18083138763904572
1772698498761861600,9.144861572265626,-0.04827297851443291,-0.08090624958276749,0.06210260093212128
1772698498771818800,9.15481884765625,-0.08855488896369934,-0.02303549274802208,0.02421807497739792
1772698498781775400,9.164775390625,-0.07556237280368805,-0.013939419761300087,0.036155812442302704
1772698498791732500,9.174732421875,0.00412233080714941,-0.03051147237420082,0.0630076602101326
1772698498801689600,9.184689697265625,0.0785670056939125,-0.04193297028541565,0.07834906876087189
1772698498811646500,9.194646484375,0.12491852045059204,-0.03491341322660446,0.06821414083242416
1772698498821603600,9.204603515625,0.15529239177703857,-0.007375574205070734,0.042295876890420914
1772698498831561500,9.2145615234375,0.1266184002161026,0.03417133539915085,0.007263590581715107
1772698498841518600,9.2245185546875,0.048734016716480255,0.0690753385424614,-0.025861861184239388
1772698498851475500,9.234475341796875,-0.043630536645650864,0.09170688688755035,-0.03320286422967911
1772698498861432600,9.2444326171875,-0.07309495657682419,0.10075867921113968,-0.02438320219516754
1772698498871389700,9.2543896484375,0.10176367312669754,0.0811556801199913,0.039866358041763306
1772698498881346600,9.2643466796875,0.11766164749860764,0.05278919264674187,0.16058242321014404
1772698498891303400,9.274303466796875,0.06756225973367691,-0.0016362317837774754,0.21885451674461365
1772698498901260500,9.284260498046875,0.03344479948282242,-0.03967247158288956,0.22387002408504486
1772698498911218700,9.29421875,-0.006306604482233524,0.012025879696011543,0.2583422362804413
1772698498921175600,9.304175537109375,-0.061193324625492096,0.07407954335212708,0.3304373025894165
1772698498931132700,9.314132568359375,-0.0931888148188591,0.10757332295179367,0.40497520565986633
1772698498941089500,9.324089599609374,-0.09699630737304688,0.12069211155176163,0.4344652593135834
1772698498951046400,9.33404638671875,-0.08901961147785187,0.12070649117231369,0.42516443133354187
1772698498961003500,9.34400341796875,-0.004524658899754286,0.09045978635549545,0.2981210947036743
1772698498970960600,9.353960693359374,0.036801207810640335,0.10306665301322937,0.07441288977861404
1772698498980917500,9.36391748046875,-0.045423392206430435,0.11917731165885925,-0.22829224169254303
1772698498990874600,9.37387451171875,-0.21114657819271088,-0.011483488604426384,-0.5455093383789062
1772698499000832500,9.38383251953125,-0.37001585960388184,0.009163525886833668,-0.6646971702575684
1772698499010789600,9.39378955078125,-0.2816691994667053,0.10595158487558365,-0.7000309228897095
1772698499020746500,9.40374658203125,-0.14713674783706665,0.08571375906467438,-0.6543453931808472
1772698499030703600,9.41370361328125,0.12802185118198395,0.07067861407995224,-0.5932801961898804
1772698499040660700,9.42366064453125,0.22147752344608307,0.07024618983268738,-0.5626393556594849
1772698499050617300,9.433617431640625,0.21884313225746155,0.04672861471772194,-0.48997899889945984
1772698499060574500,9.443574462890625,0.11370528489351273,0.061389170587062836,-0.4084022343158722
1772698499070531000,9.453531005859375,0.031094295904040337,0.19913983345031738,-0.3770293891429901
1772698499080489200,9.4634892578125,-0.03924058377742767,0.24217785894870758,-0.3015429377555847
1772698499090446000,9.473446044921875,-0.09032480418682098,0.15669038891792297,-0.18790557980537415
1772698499100403000,9.48340283203125,-0.06483144313097,0.11032365262508392,-0.08202534914016724
1772698499110360000,9.493360107421875,-0.0034181508235633373,0.10534007847309113,0.008370060473680496
1772698499120317000,9.50331689453125,0.044912368059158325,0.08395996689796448,0.09780296683311462
1772698499130274000,9.513274169921875,0.07916247844696045,0.022159449756145477,0.21336445212364197
1772698499140231200,9.523231201171875,0.08392579853534698,0.008162083104252815,0.29924118518829346
1772698499150188000,9.53318798828125,0.06538673490285873,0.034632839262485504,0.3073992431163788
1772698499160146000,9.54314599609375,0.02321450784802437,0.07223639637231827,0.2741049826145172
1772698499170103000,9.55310302734375,-0.02239185944199562,0.06344450265169144,0.22928452491760254
1772698499180060200,9.56306005859375,-0.04648517072200775,0.05670657753944397,0.18771027028560638
1772698499190017000,9.57301708984375,-0.013313899748027325,0.06342732906341553,0.13925032317638397
1772698499199974100,9.58297412109375,0.05632319301366806,0.06778465211391449,0.09433335065841675
1772698499209931000,9.592930908203124,0.12655314803123474,0.06743977218866348,0.05216273292899132
1772698499219887900,9.602887939453124,0.16506142914295197,0.02023432031273842,0.03539236634969711
1772698499229845000,9.612844970703126,0.16387313604354858,0.0013019097968935966,0.026036150753498077
1772698499239803100,9.62280322265625,0.11892905831336975,-0.03804107382893562,-0.010394765064120293
1772698499249760300,9.63276025390625,-0.08225518465042114,-0.06785169988870621,-0.2527213990688324
1772698499259716900,9.642716796875,-0.1916455626487732,-0.07708825916051865,-0.5605819821357727
1772698499269674000,9.652674072265626,-0.15998803079128265,-0.03503721207380295,-0.8111042380332947
1772698499279631000,9.662631103515626,-0.14498355984687805,0.021197710186243057,-0.8543682098388672
1772698499289588000,9.672587890625,-0.13507179915905,0.02055242657661438,-0.7267357110977173
1772698499299545000,9.682545166015625,-0.08953198790550232,0.014586763456463814,-0.5097700953483582
1772698499309502200,9.692502197265625,-0.021086353808641434,0.010941162705421448,-0.2703804075717926
1772698499319459000,9.702458984375,0.07791750878095627,0.0036956649273633957,-0.042262010276317596
1772698499329417000,9.7124169921875,0.1789730191230774,-0.013991452753543854,0.1586330235004425
1772698499339374000,9.7223740234375,0.2479778528213501,-0.006938597187399864,0.3182394504547119
1772698499349331200,9.732331298828125,0.24974989891052246,0.02233327180147171,0.41507330536842346
1772698499359288000,9.7422880859375,0.20074568688869476,0.024500001221895218,0.4765995740890503
1772698499369245000,9.752244873046875,0.1228112131357193,0.0468929260969162,0.47268739342689514
1772698499379202000,9.7622021484375,0.044796012341976166,0.04841483756899834,0.40846630930900574
1772698499389159000,9.772158935546875,-0.02871895208954811,0.05834389850497246,0.2893436551094055
1772698499399116000,9.782115966796875,-0.10891450941562653,0.0825800895690918,0.13406485319137573
1772698499409074200,9.79207421875,-0.13956429064273834,0.045626599341630936,0.01944533921778202
1772698499419031000,9.802031005859375,-0.11110144853591919,0.02382425032556057,-0.02933439239859581
1772698499428988000,9.81198779296875,-0.0686890110373497,0.0022324067540466785,-0.025926880538463593
1772698499438945000,9.821945068359375,-0.038716211915016174,-0.008882876485586166,0.007889553904533386
1772698499448902100,9.831902099609374,-0.01865834929049015,-0.0024790388997644186,0.048084378242492676
1772698499458859000,9.84185888671875,0.0034309772308915854,0.010123582556843758,0.09342732280492783
1772698499468816100,9.851816162109374,0.038721587508916855,0.00538475438952446,0.127568781375885
1772698499478773000,9.86177294921875,0.07496350258588791,-0.0021830913610756397,0.14793458580970764
1772698499488731100,9.871731201171874,0.08927426487207413,-0.01865500956773758,0.14918334782123566
1772698499498688000,9.88168798828125,0.07974755764007568,-0.02950381673872471,0.12793366611003876
1772698499508645000,9.89164501953125,0.05828753858804703,-0.03360854461789131,0.07967797666788101
1772698499518602200,9.901602294921876,0.022755956277251244,-0.027754230424761772,0.015767231583595276
1772698499528558800,9.911558837890626,-0.007232568226754665,-0.002670716028660536,-0.05400865525007248
1772698499538516000,9.921515869140626,-0.028921902179718018,0.009312650188803673,-0.1045541986823082
1772698499548473000,9.93147314453125,-0.03421653434634209,0.01549517922103405,-0.1327192634344101
1772698499558430000,9.941429931640625,-0.03864376246929169,0.014733284711837769,-0.13334600627422333
1772698499568388000,9.95138818359375,-0.05091587454080582,0.010480748489499092,-0.12094580382108688
1772698499578345000,9.961344970703125,-0.05325493961572647,-0.001341591589152813,-0.11587050557136536
1772698499588302000,9.971302001953125,-0.06167106330394745,-0.019015926867723465,-0.04599075764417648
1772698499598259000,9.981259033203125,-0.043044112622737885,-0.05521228909492493,0.09753341227769852
1772698499608216000,9.991216064453125,-0.006539900787174702,-0.0650060623884201,0.15140384435653687
1772698499618173200,10.001173095703125,0.0154532790184021,-0.04833309352397919,0.12848497927188873
1772698499628130000,10.011130126953125,0.010380222462117672,-0.0440848171710968,0.08698547631502151
1772698499638087000,10.0210869140625,0.01633373461663723,-0.036590367555618286,0.03957892954349518
1772698499648044000,10.0310439453125,0.034100744873285294,-0.02710658498108387,-0.0029128699097782373
1772698499658002200,10.041002197265625,0.04191814735531807,-0.02270718477666378,-0.037335917353630066
1772698499667959000,10.050958984375,0.04448889568448067,-0.009155424311757088,-0.06763816624879837
1772698499677916200,10.060916259765625,0.033837299793958664,-0.0006416235119104385,-0.10334830731153488
1772698499687873000,10.070873046875,0.008083200082182884,0.008869590237736702,-0.14474661648273468
1772698499697830000,10.080829833984374,-0.017553959041833878,0.02125365100800991,-0.1962665617465973
1772698499707787000,10.090787109375,-0.015017297118902206,0.021815044805407524,-0.2271491140127182
1772698499717744000,10.100744140625,0.023847831413149834,0.027663683518767357,-0.2374962419271469
1772698499727701000,10.110700927734374,0.05656876415014267,0.028602713719010353,-0.1928318291902542
1772698499737659000,10.120658935546874,0.07680398970842361,0.024746457114815712,-0.12263250350952148
1772698499747616000,10.130615966796874,0.0938519537448883,0.031064538285136223,-0.07800725102424622
1772698499757573000,10.140572998046874,0.10882321745157242,0.04519540071487427,-0.07099474966526031
1772698499767530000,10.150530029296876,0.11795493215322495,0.05581528693437576,-0.05879773199558258
1772698499777487000,10.160487060546876,0.1318800300359726,0.043333444744348526,-0.010682228952646255
1772698499787444200,10.1704443359375,0.12286388128995895,0.025141391903162003,0.0564454086124897
1772698499797400800,10.18040087890625,0.08186238259077072,0.013898568227887154,0.12693002820014954
1772698499807358000,10.19035791015625,0.02915736474096775,-0.003248728346079588,0.15676595270633698
1772698499817316000,10.200316162109376,-0.007414223626255989,-0.011502917855978012,0.15239088237285614
1772698499827273200,10.210273193359376,-0.037841636687517166,0.0014280606992542744,0.11448238044977188
1772698499837230000,10.22022998046875,-0.05444721132516861,0.015109637752175331,0.061001215130090714
1772698499847187000,10.23018701171875,-0.052788592875003815,0.03249555081129074,-0.0012770723551511765
1772698499857144000,10.24014404296875,-0.039121560752391815,0.038733597844839096,-0.06116713210940361
1772698499867101000,10.250100830078125,-0.012803936377167702,0.04196081683039665,-0.11633238196372986
1772698499877058000,10.26005810546875,0.0013241437263786793,0.052875816822052,-0.1535102128982544
1772698499887015200,10.27001513671875,-0.006128978915512562,0.058119844645261765,-0.1590714305639267
1772698499896972000,10.279971923828125,-0.046929918229579926,0.05977214127779007,-0.14766825735569
1772698499906930000,10.289929931640625,-0.0959230288863182,0.057340674102306366,-0.13086611032485962
1772698499916887000,10.299886962890625,-0.12816937267780304,0.05469268560409546,-0.11779235303401947
1772698499926844200,10.30984423828125,-0.12874248623847961,0.05735344812273979,-0.10653463751077652
1772698499936801000,10.319801025390625,-0.11348100751638412,0.06720226258039474,-0.10168077796697617
1772698499946758100,10.329758056640625,-0.1008823961019516,0.0664517879486084,-0.099143847823143
1772698499956715000,10.339715087890625,-0.08060343563556671,0.0610198900103569,-0.08580481261014938
1772698499966672000,10.349671875,-0.06124572083353996,0.05786511301994324,-0.06764525175094604
1772698499976629000,10.35962890625,-0.05325683206319809,0.043504614382982254,-0.04650206118822098
1772698499986587100,10.369587158203124,-0.057557035237550735,0.03263811767101288,-0.025468412786722183
1772698499996544000,10.3795439453125,-0.0636734813451767,0.02037384733557701,-0.010377177968621254
1772698500006500900,10.3895009765625,-0.07626570761203766,0.018704311922192574,-0.004218883812427521
1772698500016458000,10.3994580078125,-0.07705242186784744,0.02287423051893711,0.017284993082284927
1772698500026415000,10.4094150390625,-0.059131477028131485,0.016442162916064262,0.04671798273921013
1772698500036372000,10.4193720703125,-0.037237849086523056,0.0020162509754300117,0.0800730362534523
1772698500046329000,10.4293291015625,-0.009259212762117386,-0.01499149389564991,0.1069275513291359
1772698500056286200,10.4392861328125,-0.004570759832859039,-0.031911760568618774,0.12488354742527008
1772698500066243800,10.449243896484376,-0.022556152194738388,-0.0380420908331871,0.13233667612075806
1772698500076201000,10.459200927734376,-0.048976581543684006,-0.03545913100242615,0.12955404818058014
1772698500086158000,10.469157958984376,-0.06866081058979034,-0.022566499188542366,0.10913106054067612
1772698500096115000,10.479114990234375,-0.06530703604221344,-0.01913699321448803,0.08906207233667374
1772698500106072000,10.489072021484375,-0.039598215371370316,-0.030378196388483047,0.07148706912994385
1772698500116029000,10.49902880859375,-0.010081838816404343,-0.04168267920613289,0.06404826790094376
1772698500125985800,10.50898583984375,0.01358274556696415,-0.06435629725456238,0.11697033792734146
1772698500135943000,10.51894287109375,0.0414755642414093,-0.10212760418653488,0.35909685492515564
1772698500145900000,10.528900146484375,0.07373576611280441,-0.11005210876464844,0.4867863655090332
1772698500155858000,10.53885791015625,0.07510410249233246,-0.0784752368927002,0.42617565393447876
1772698500165814800,10.548814697265625,0.032677553594112396,-0.05119194835424423,0.294765442609787
1772698500175772000,10.55877197265625,-0.01632489077746868,-0.03672250732779503,0.17661230266094208
1772698500185729000,10.56872900390625,-0.03979320079088211,-0.024068497121334076,0.06819766759872437
1772698500195686000,10.578685791015625,-0.05140567570924759,0.0003885463811457157,-0.03683178126811981
1772698500205643000,10.58864306640625,-0.054445140063762665,0.01501782238483429,-0.12525725364685059
1772698500215600000,10.59860009765625,-0.046668410301208496,0.029040547087788582,-0.20589840412139893
1772698500225556700,10.608556640625,-0.035173408687114716,0.0374516099691391,-0.2466737926006317
1772698500235515000,10.618514892578125,0.00802038423717022,0.02835419401526451,-0.23484250903129578
1772698500245472000,10.628471923828124,0.0467081256210804,0.019363895058631897,-0.17134210467338562
1772698500255429000,10.63842919921875,0.05628591030836105,0.014361908659338951,-0.09687655419111252
1772698500265386000,10.648385986328124,0.06515103578567505,0.0009542251937091351,-0.038650527596473694
