time,seconds_elapsed,z,y,x
1772537089882044700,0.060044677734375,-0.17094386503025888,-0.06949789911806584,-0.05827843983694911
1772537089892112400,0.0701123046875,-0.15837547535821794,0.09539221883118153,0.0871539673179388
1772537089902180400,0.080180419921875,-0.1351465754620731,0.20218086094558238,0.18130159291550516
1772537089912247300,0.090247314453125,-0.10569134839698671,0.11732874082922935,0.13696063914671538
1772537089922315300,0.100315185546875,-0.132353876003623,0.09994505982995033,0.09169131848663091
1772537089932382500,0.110382568359375,-0.09008417555093765,0.08221008117496967,-0.0012589140199124813
1772537089942450400,0.120450439453125,-0.0447806603603065,-0.0032516952723264693,-0.05794803883880376
1772537089952518400,0.130518310546875,0.016861264560371635,-0.05078676890730858,-0.10114932105317712
1772537089962585300,0.14058544921875,0.08798574196696281,-0.06673895579874516,-0.09856281169131398
1772537089972653300,0.1506533203125,0.13018924531564116,-0.06610767215788364,-0.08658844238966702
1772537089982721300,0.16072119140625,0.132128250554204,-0.06833528507947921,-0.08688406433537602
1772537089992788500,0.17078857421875,0.12454407903552055,-0.06520341679453849,-0.06887450652271508
1772537090002856400,0.1808564453125,0.12729659261405468,-0.0415314493060112,-0.07479366743862628
1772537090012924400,0.19092431640625,0.09508724453523755,-0.04603343690037727,-0.06745791772305965
1772537090022991400,0.200991455078125,0.042328152641654015,-0.03685995036363601,-0.023560762199014425
1772537090033059300,0.211059326171875,-0.055416182273626324,-0.023015549406409264,-0.014759908366948364
1772537090043126300,0.221126220703125,-0.15799275965094564,0.013691840744018554,-0.03509221003875136
1772537090053194500,0.231194580078125,-0.16620938385426998,0.05493979693353176,-0.02111395356878638
1772537090063262500,0.241262451171875,-0.12171543148085474,0.05923311021327972,0.037313393219560384
1772537090073329400,0.251329345703125,-0.0650941112011671,0.04897416652739048,0.05769026468545198
1772537090083397400,0.2613974609375,-0.04311784171462059,0.020746435430645943,-0.07475669642910361
1772537090093465300,0.27146533203125,-0.05494096597731113,-0.0331266090542078,-0.104361999489367
1772537090103532500,0.281532470703125,-0.013373276314139365,-0.02377250525355339,-0.0702105774320662
1772537090113600500,0.2916005859375,-0.0072451488226652145,0.005399813216924667,-0.028854338562488556
1772537090123668500,0.30166845703125,-0.07513619726598263,0.03744154964387417,-0.03196633310317993
1772537090133735400,0.3117353515625,-0.13207798167169094,0.053901686057448384,-0.02255553067922592
1772537090143803400,0.321803466796875,-0.12739771490097046,0.09431202237904071,0.053524669438600535
1772537090153870300,0.331870361328125,-0.16059782758280633,0.13426526258289814,0.08065744490548968
1772537090163938600,0.3419384765625,-0.17566913998648523,0.1632370900452137,0.0960651496566832
1772537090174006500,0.352006591796875,-0.1726980152212083,0.18139175541698932,0.07155790038779378
1772537090184073500,0.362073486328125,-0.16548486897200346,0.15859364815354346,0.06453326244801283
1772537090194141400,0.372141357421875,-0.12153671391308307,0.13603461034297942,0.08622297007814049
1772537090204209400,0.38220947265625,-0.1490980900555849,0.10480945099592208,-0.02054828251004219
1772537090214276600,0.392276611328125,-0.2103361103504896,0.07328443191945552,-0.066452978464216
1772537090224344600,0.402344482421875,-0.16573124494850636,0.11791560080647467,-0.014113719417899847
1772537090234412500,0.41241259765625,-0.12659019791036843,0.14054770385324955,0.023203765454888343
1772537090244479500,0.4224794921875,-0.09846505040526389,0.13189794892966747,0.027114216896891592
1772537090254547500,0.43254736328125,-0.05842880809307098,0.11578268043100833,-0.01615764633566141
1772537090264614400,0.442614501953125,-0.0435344596914947,0.07182721884846686,-0.053684536175429814
1772537090274682600,0.4526826171875,-0.08310030801296234,0.06234159762263298,-0.08993322277292609
1772537090284750300,0.462750244140625,-0.1279348905175924,0.09046762191057205,-0.14289163663089274
1772537090294817500,0.472817626953125,-0.1736322273313999,0.08123392961919307,-0.17941461012512444
1772537090304885500,0.482885498046875,-0.12514642884284258,0.07396890705227852,-0.11320406211465596
1772537090314953200,0.492953125,-0.10242927786111831,0.07715104421973228,-0.05752060720697045
1772537090325020700,0.503020751953125,-0.09982377153784036,0.06403028136193752,-0.051960196600854394
1772537090335088400,0.51308837890625,-0.1232388416558504,0.07816518969833851,-0.060613312525302165
1772537090345156400,0.52315625,-0.1247942544043064,0.09916823023855685,-0.04660188443809747
1772537090355223300,0.533223388671875,-0.10455869110524654,0.1319447106808424,-0.028991408945620058
1772537090365291300,0.543291259765625,-0.10217881023138761,0.13566694607436655,-0.015881459742784498
1772537090375358500,0.5533583984375,-0.05821472695097327,0.15220599294304846,0.016832476857304574
1772537090385426400,0.563426513671875,0.0183475575953722,0.17468436673283577,0.045524172203987835
1772537090395494400,0.573494384765625,0.010983166307210922,0.16810498834252358,0.013798369858413933
1772537090405561300,0.583561279296875,-0.037706922581791875,0.13246084350943566,-0.009754209034144878
1772537090415629300,0.59362939453125,-0.07598170817941427,0.09638824413120746,-0.04512070596963167
1772537090425697300,0.603697265625,-0.08280570898056029,0.04533960941731929,-0.06108969786539673
1772537090435764500,0.613764404296875,-0.1289198099017143,-0.01404839909672737,-0.08750628788694739
1772537090445832400,0.62383251953125,-0.1485188288629055,-0.06853986774086952,-0.12092384271174668
1772537090455900400,0.633900390625,-0.13840601564943789,-0.11504150667488575,-0.10137713845968246
1772537090465967400,0.64396728515625,-0.12195172445476055,-0.11948270399272441,-0.05650251620560884
1772537090476035300,0.654035400390625,-0.0770391082778573,-0.08040624662339686,-0.027876141180098055
1772537090486102300,0.664102294921875,-0.05162205068767071,-0.0648936201930046,-0.007089519869536161
1772537090496170500,0.67417041015625,-0.055711073566973204,-0.052775896897912025,0.01185293487906456
1772537090506238500,0.684238525390625,-0.0930380569204688,-0.028378537744283675,-0.004461071062088012
1772537090516305400,0.694305419921875,-0.10057722025364636,-0.006436170527338981,-0.02684416778385639
1772537090526373400,0.704373291015625,-0.07801584435552358,-0.01743862605690956,0.007852613196521996
1772537090536441300,0.71444140625,-0.0750927965156734,-0.012266191855072975,0.030070728614926337
1772537090546508500,0.724508544921875,-0.11546294695734977,-0.017909166178107262,-0.011269582033157349
1772537090556576500,0.734576416015625,-0.12274579744189977,-0.022157471272349356,0.010905278765410184
1772537090566643500,0.7446435546875,-0.09272957549318671,0.01895838297009468,0.043031332474946976
1772537090576711400,0.75471142578125,-0.09209303115531801,0.011506313398480414,0.023217209458351134
1772537090586779400,0.764779296875,-0.10469050079137086,-0.026636662513017655,-0.01948386814892292
1772537090596846300,0.774846435546875,-0.07879808077439665,-0.054556935095787046,-0.07779898673444986
1772537090606914600,0.78491455078125,-0.08113163828849793,-0.12199088742136954,-0.09481456507369876
1772537090616982500,0.794982421875,-0.08958937777131795,-0.13375906662642956,-0.1099544126689434
1772537090627049500,0.805049560546875,-0.08379647358357906,-0.1106990935564041,-0.14857698879092932
1772537090637117400,0.815117431640625,-0.1181608077391982,-0.11187748968601226,-0.1501613353729248
1772537090647185400,0.825185302734375,-0.12880451295897363,-0.07905249392688274,-0.1070136830419302
1772537090657252600,0.835252685546875,-0.10041443090736865,-0.0381722020059824,-0.04860694065019488
1772537090667320600,0.845320556640625,-0.10321984371691942,0.029793665239214895,-0.018184037596732375
1772537090677387500,0.855387451171875,-0.14097382031083106,0.09435936865210533,-0.05551379742920398
1772537090687455500,0.86545556640625,-0.2215802656814456,0.10388707545399666,-0.06790083918496966
1772537090697523500,0.8755234375,-0.16880349200069902,0.12685761667490006,-0.01569952730461955
1772537090707590400,0.88559033203125,-0.11377017156481742,0.16602175232768057,0.07948767047375441
1772537090717658600,0.89565869140625,-0.061900283595919606,0.20051438903808594,0.09163286629766225
1772537090727726300,0.905726318359375,-0.023788287344574926,0.18576222558617592,0.07529328752383589
1772537090737793500,0.91579345703125,-0.011051993759721516,0.18967384607195853,0.0492301871150732
1772537090747861500,0.925861572265625,-0.020235271038115024,0.1974479872047901,-0.01416296538710594
1772537090757929200,0.93592919921875,-0.07407704360187053,0.16191373248696325,-0.04737564528957009
1772537090767996700,0.94599658203125,-0.08188494087383151,0.14485796826779843,0.009263941299170256
1772537090778064400,0.956064453125,-0.08900602492541074,0.15291852512657642,0.019622107575833797
1772537090788131600,0.966131591796875,-0.18101999949514866,0.12558861965239046,-0.06374518081024289
1772537090798199800,0.97619970703125,-0.216799461145699,0.10321078362762927,-0.07326368139237165
1772537090808267800,0.986267822265625,-0.16683058449253438,0.09681845224201678,-0.005873129817098379
1772537090818334700,0.996334716796875,-0.10584463926255702,0.11877952415943145,0.008929887039214372
1772537090828402700,1.006402587890625,-0.18787614900022745,0.04484393485486507,-0.0742158675506711
1772537090838470700,1.016470703125,-0.22281609108671543,0.007614566656947135,-0.1275479370266199
1772537090848537900,1.026537841796875,-0.14541501762866973,0.005110474881529808,-0.04995207164883613
1772537090858605800,1.036605712890625,-0.0524631776869297,0.005748188263177871,0.029252105708420274
1772537090868673800,1.046673828125,-0.06480535738766192,-0.010922376030683517,0.037783202688395974
1772537090878740700,1.05674072265625,-0.09368424586951732,-0.019796002838015556,0.03910641411617398
1772537090888808700,1.06680859375,-0.11032616859078406,0.021712650114297866,0.04642302073985338
1772537090898875600,1.076875732421875,-0.09955226112008095,0.02553308518528938,0.017108078928291796
1772537090908944000,1.08694384765625,-0.17578092979788779,-0.04212064737081527,-0.039041532186418766
1772537090919011800,1.09701171875,-0.20039090878888963,-0.04088555261790752,-0.1250850540444255
1772537090929078800,1.107078857421875,-0.12642448595464229,-0.04237140726149082,-0.09574249357357621
1772537090939146800,1.117146728515625,-0.0502934324324131,-0.05864625023603439,0.019869506465643644
1772537090949214700,1.127214599609375,-0.011291647734493017,-0.02690729614794254,0.06489625054150819
1772537090959282000,1.137281982421875,-0.029209727871417998,-0.009435352343320847,0.0209115628644824
1772537090969350000,1.147349853515625,-0.10409516524672507,-0.06348550696074962,-0.08803469567522407
1772537090979417900,1.15741796875,-0.1493687236905098,-0.1112701714426279,-0.13131050443053244
1772537090989484800,1.16748486328125,-0.12219196295142173,-0.0781394707351923,-0.060537324679642915
1772537090999552800,1.177552734375,-0.0873281548410654,-0.017100772404670714,0.019694734420627354
1772537091009619700,1.18761962890625,-0.09996668713986873,0.0189618901014328,0.04884790979921817
1772537091019688000,1.19768798828125,-0.14351882861852644,0.049797757869958874,0.025822715781629084
1772537091029756000,1.207755859375,-0.19463921339437365,0.07379296596348285,-0.016347908210754394
1772537091039822800,1.21782275390625,-0.2194464685231447,0.08696867387890815,-0.02602627552971244
1772537091049890800,1.227890869140625,-0.1604313849747181,0.13467968860268592,-0.0011189210273325444
1772537091059959000,1.237958984375,-0.14389672202020884,0.1591366689890623,-0.04741729247421026
1772537091070026000,1.24802587890625,-0.14692527606114744,0.12149462833702564,-0.07720525862500072
1772537091080094000,1.258093994140625,-0.060059039643406864,0.1375081900268793,-0.026570319278538226
1772537091090161000,1.268160888671875,0.021752397602796552,0.1772621082663536,0.027660306472331284
1772537091100228900,1.278228759765625,-0.005900163954496383,0.15572013854384423,-0.007703852375596761
1772537091110296800,1.288296875,-0.08468553137779235,0.13569032694995403,-0.04021349857524037
1772537091120363800,1.29836376953125,-0.09682400519996881,0.1746212383687496,0.005904840129613876
1772537091130432000,1.308431884765625,-0.09297332112118602,0.17676818726956844,0.041440702282637354
1772537091140499700,1.318499755859375,-0.14660919584929943,0.1409112764686346,-0.008590864343196154
1772537091150567000,1.32856689453125,-0.17532675628960132,0.12675824795365334,-0.0448548946402967
1772537091160635000,1.338634765625,-0.15790771171599627,0.10921323891282081,-0.013819266515970229
1772537091170702800,1.348702880859375,-0.1398299109727144,0.07556348276734352,0.015580430969595908
1772537091180770000,1.35877001953125,-0.10445318490415811,0.07064414654374122,0.03830561912730336
1772537091190837800,1.368837646484375,-0.09568243394941091,0.07073007126152515,0.07691124411448835
1772537091200905000,1.378905029296875,-0.12832988118454813,0.06196750361323356,0.09144055859595536
1772537091210972700,1.38897265625,-0.16598434292674064,0.058626376491785044,0.07083543133214115
1772537091221040600,1.39904052734375,-0.2333668573260307,0.02464695000052452,0.01019917632266879
1772537091231107600,1.409107666015625,-0.2857037782847881,-0.01038636945784092,-0.07924903941228985
1772537091241175800,1.41917578125,-0.30534312925636764,-0.06588380027413368,-0.1534388957388699
1772537091251243800,1.429243896484375,-0.23258418251574037,-0.09926993704736232,-0.11916384730190038
1772537091261310700,1.439310791015625,-0.12790785638019442,-0.0809931066006422,-0.08307400452792645
1772537091271378700,1.449378662109375,-0.08130275707170367,-0.07500584888458252,-0.07724529837444424
1772537091281447000,1.459447021484375,-0.06331365752518177,-0.0427162751764059,-0.12310732423067092
1772537091291513900,1.469513916015625,-0.08321312073767184,-0.04514087197482586,-0.13155541910231114
1772537091301581800,1.479581787109375,-0.06491349393725394,-0.020337854629755018,-0.12324804787561297
1772537091311648800,1.489648681640625,-0.02007423525750637,0.0395879140228033,-0.06396160003989934
1772537091321716700,1.499716796875,0.015528700782358646,0.09709610013961792,0.0249877262622118
1772537091331784700,1.50978466796875,0.03486380811035633,0.1481266146749258,0.06429433912560344
1772537091341851600,1.5198515625,0.03750760061740875,0.1861205375045538,0.08032076029703021
1772537091351919900,1.529919921875,0.021844167539477346,0.19342472303807734,0.06344736690744757
1772537091361987800,1.53998779296875,-0.0047691140979528425,0.1956184336900711,0.02494257194623351
1772537091372054800,1.5500546875,-0.05303586300835013,0.16773206337690352,-0.07535027840808034
1772537091382122800,1.560122802734375,-0.08818155680000782,0.11650339592099189,-0.15661226507797837
1772537091392189700,1.570189697265625,-0.09547755902707576,0.031443770533800125,-0.15317849123701452
1772537091402258000,1.5802578125,-0.04703939907252788,0.004903554132580757,-0.10246522595733404
1772537091412326000,1.590325927734375,-0.01457213070988655,0.002267360410094261,-0.09542670562267302
1772537091422392800,1.600392822265625,-0.05243716646283865,-0.028297873723506926,-0.11755334336534141
1772537091432460800,1.610460693359375,-0.10312193630039691,-0.03164659962952137,-0.15346680665910242
1772537091442528800,1.62052880859375,-0.1225894378364086,-0.017359131079912184,-0.12294570392817258
1772537091452595700,1.630595703125,-0.12678557435199617,-0.016342062991857528,-0.04796688918098807
1772537091462664000,1.640663818359375,-0.1176665944814682,0.006805003839731216,0.019193945291638374
1772537091472732000,1.65073193359375,-0.10143383708298205,0.04743979656696319,0.03543444760516286
1772537091482798800,1.660798828125,-0.1302180330187082,0.05783785646259784,0.0374323434241116
1772537091492866800,1.67086669921875,-0.11296630783602594,0.056474166893959045,0.05064882174134254
1772537091502933800,1.680933837890625,-0.09953589450716972,0.07251578563451766,0.013854191698879003
1772537091513002000,1.691001953125,-0.09895663331449031,0.05238251366615295,-0.04384732503294945
1772537091523070000,1.701070068359375,-0.0814656925484538,0.040030981615185736,-0.05438391661643981
1772537091533137000,1.711136962890625,-0.06452654044628144,0.034788989308476445,-0.06508212850242853
1772537091543204900,1.721204833984375,-0.01840074908733368,0.03957154740989208,-0.014770429760962723
1772537091553272800,1.73127294921875,0.012052256843447684,0.0331049817442894,0.03557327155396342
1772537091563339800,1.74133984375,-0.012994213868677615,0.01932137106359005,0.05290083845183253
1772537091573408000,1.751407958984375,-0.048412294860929246,0.029411972445249557,0.011233195545524358
1772537091583475700,1.761475830078125,-0.10349369222223759,0.01449322025477886,-0.01588949691876769
1772537091593543000,1.77154296875,-0.11372925503253936,0.03852759131491184,0.010879705932736397
1772537091603611000,1.78161083984375,-0.08603723824769258,0.08696458222568035,0.03386310663521289
1772537091613677800,1.791677734375,-0.07290595399588345,0.09921499198973179,0.057119771321117875
1772537091623745800,1.801745849609375,-0.06275543912053108,0.11384908201992511,0.06158844116777181
1772537091633813800,1.811813720703125,-0.10002630837261677,0.10230068304538727,0.04540975204408169
1772537091643881000,1.821880859375,-0.1108124908030033,0.09121756349503994,0.07658361959531902
1772537091653948700,1.83194873046875,-0.07351590258777141,0.10482523308694362,0.11888327679485082
1772537091664016600,1.8420166015625,-0.11521657098084688,0.05443652358651161,0.07477262465059757
1772537091674083600,1.85208349609375,-0.17995441609025,-0.022792846566438672,0.04852247723713517
1772537091684151800,1.86215185546875,-0.21086568718254564,-0.025384616625308987,0.010897972241789101
1772537091694218800,1.87221875,-0.2525622639223933,-0.04530629166960716,-0.06357347750514745
1772537091704286700,1.88228662109375,-0.2785518607035279,-0.06333236222565174,-0.08099953634142876
1772537091714354700,1.892354736328125,-0.25369872060641646,-0.05175532167851925,-0.03502440549954772
1772537091724421600,1.902421630859375,-0.24782120687514542,-0.050880876931548115,-0.023994331310689447
1772537091734489900,1.91248974609375,-0.25689196368977424,-0.06329670639038086,-0.050043841585516925
1772537091744557800,1.922557861328125,-0.22860680331736802,-0.040353053176403045,-0.048181554844975466
1772537091754624800,1.932624755859375,-0.17424334496706723,0.006993804410099983,0.001976706900447607
1772537091764692700,1.942692626953125,-0.10370645819008349,0.058819853237271305,0.041214053919911384
1772537091774760700,1.9527607421875,-0.06993862862288952,0.0815203453451395,0.050815848871320485
1772537091784827600,1.96282763671875,-0.02196151030883193,0.107174426561594,0.04379720228090882
1772537091794896000,1.972895751953125,-0.03747954356670379,0.10615735847353934,-0.0041119653634727
1772537091804962800,1.982962890625,-0.02359597964286804,0.10534428852498531,0.011412059243768454
1772537091815031000,1.993031005859375,0.012636340341717005,0.14709902519285678,0.01980725488439202
1772537091825099000,2.00309912109375,-0.025251199503988027,0.1288771398037672,-0.05907046699747443
1772537091835166000,2.013166015625,-0.07169964694604278,0.09263210646808147,-0.08723945364430546
1772537091845234000,2.02323388671875,-0.041417905928939576,0.11343114886879921,-0.059348991677910086
1772537091855302000,2.033302001953125,-0.015518033257871865,0.11946633737981319,-0.027745792798697946
1772537091865368800,2.043368896484375,0.014399842882901429,0.1402718095213175,0.016144786854088305
1772537091875437000,2.05343701171875,0.024510756400227544,0.16116788255572317,0.05406126053333282
1772537091885504000,2.06350390625,0.024226094239950178,0.1673328349262476,0.08035539321899414
1772537091895572000,2.073572021484375,0.02656710440814495,0.17212357633411884,0.08183920203596352
1772537091905640000,2.083639892578125,0.029408611444383857,0.186097741150856,0.11296338522657752
1772537091915707000,2.093706787109375,-0.02597790634334087,0.14789572852849958,0.0822292242668569
1772537091925775000,2.103775146484375,-0.10270897158533335,0.09879121361970901,0.010124065259844064
1772537091935843000,2.113843017578125,-0.1430114636182785,0.05678630158305168,-0.03350742506533861
1772537091945910000,2.123909912109375,-0.16454875716567038,0.015224457138776779,-0.06248202900663018
1772537091955978000,2.13397802734375,-0.1835524405822158,-0.045695583248138424,-0.08716828810423612
1772537091966046000,2.1440458984375,-0.1751768264248967,-0.06315934374630451,-0.06469093722775578
1772537091976113000,2.15411279296875,-0.18055121293962,-0.10623802249431609,-0.06637187605202198
1772537091986181000,2.16418115234375,-0.19135785363614558,-0.1188473286986351,-0.0831952928200364
1772537091996248000,2.174248046875,-0.17747180549427866,-0.09783376676440238,-0.04788476385548711
1772537092006316000,2.18431591796875,-0.11839417810365557,-0.05180792864859104,0.02160480582565069
1772537092016384000,2.194384033203125,-0.11446458356976509,-0.03599251987934112,-0.011147124697268009
1772537092026451000,2.204450927734375,-0.20022680426836012,-0.06531155334413051,-0.13080737721398472
1772537092036519200,2.214519287109375,-0.18820318899750707,-0.03937807066440582,-0.1134074757322669
1772537092046587000,2.2245869140625,-0.054934828497469425,0.020393968731164933,0.043305911632627245
1772537092056654000,2.234654052734375,-0.0466553681910038,0.015512041908502578,0.08043444980457425
1772537092066721800,2.2447216796875,-0.11357654868885875,0.006194762986898422,0.00824073573127389
1772537092076789800,2.254789794921875,-0.1262922378771007,0.03482522966563702,-0.016676555643230676
1772537092086857000,2.26485693359375,-0.06819704565256833,0.07033201185464859,0.026881138793379066
1772537092096925000,2.274925048828125,-0.05004939454346895,0.04444704449176788,-0.000180032742023468
1772537092106992000,2.2849921875,-0.09436755195856093,0.010646481698751448,-0.08870309645608067
1772537092117059800,2.295059814453125,-0.08586217394173144,0.009991232660412788,-0.11365823562294244
1772537092127127800,2.3051279296875,-0.02449351300448179,0.0010416180074214936,-0.08472337917014956
1772537092137194800,2.31519482421875,-0.0076177815273404115,0.005117489144206047,-0.06195069860890507
1772537092147263000,2.325262939453125,-0.0012535071924328802,0.041889761224389074,-0.041594577670097346
1772537092157331000,2.3353310546875,-0.012396540236473083,0.07028466558158397,0.007422551216185093
1772537092167398000,2.34539794921875,-0.028967005156725643,0.09180909964740276,0.04646276822835207
1772537092177465900,2.3554658203125,-0.04643383439481258,0.1014624786555767,0.04625760104507207
1772537092187532800,2.36553271484375,-0.06854381326362491,0.11825988419950008,0.018476883063465357
1772537092197600800,2.375600830078125,-0.06920271556377411,0.11865034482181072,-0.013502894043177366
1772537092207669000,2.3856689453125,-0.09187515062093735,0.07668108862042426,-0.047452363787591455
1772537092217736000,2.39573583984375,-0.0571294159322977,0.0706359632372856,-0.0565163986004889
1772537092227804000,2.405803955078125,-0.021112638394534585,0.09036825318932533,-0.057274377360939974
1772537092237871900,2.415871826171875,-0.023899346503615377,0.04017828113138675,-0.05066796483322978
1772537092247938800,2.425938720703125,-0.014971359160542487,0.04287994130551815,-0.025568156498670575
1772537092258007000,2.436007080078125,0.008644494226574897,0.06538344953656196,0.054943742456287144
1772537092268075000,2.446074951171875,-0.04948386961519718,0.03872165258228778,0.026048487361520527
1772537092278142000,2.456141845703125,-0.14086962928399444,0.000723053577542305,-0.03807283328473568
1772537092288210000,2.4662099609375,-0.15370032315403223,-0.019757424393296242,-0.036416005988419056
1772537092298276900,2.47627685546875,-0.1320250824406743,-0.018437573966383933,-0.02986234656125307
1772537092308344800,2.4863447265625,-0.1587836177676916,-0.0161298815459013,-0.029463702632486818
1772537092318413000,2.4964130859375,-0.17677169440090656,0.023036007672548292,-0.03312207900956273
1772537092328480000,2.50647998046875,-0.16180238106697797,0.064279287686944,0.015244038622081279
1772537092338548000,2.5165478515625,-0.13382102594673634,0.06601999387443065,0.045332156763225794
1772537092348616000,2.526615966796875,-0.13223112640678883,0.05261866050958633,0.04536620516330003
1772537092358683000,2.536682861328125,-0.10416589239537716,0.06266776083707809,0.05633081290051341
1772537092368751000,2.546751220703125,-0.06926102162227034,0.0866051012635231,0.0872626883894205
1772537092378818000,2.556818115234375,-0.04925400638207793,0.09033785805106162,0.032092589831352235
1772537092388886000,2.566885986328125,-0.0806225197225809,0.0338806422919035,-0.0037406478330492972
1772537092398954000,2.5769541015625,-0.07504661928638816,0.03935936596393585,-0.043750586660206314
1772537092409021000,2.58702099609375,-0.06610591859221458,0.05597966137528419,-0.05433087125495076
1772537092419089000,2.5970888671875,-0.0765172763608396,0.03618132044970989,-0.04833206923156976
1772537092429157000,2.6071572265625,-0.06694280780777334,0.03537409572005272,-0.024637451519817114
1772537092439224000,2.61722412109375,-0.07583996162116527,0.04880933135449886,-0.02952624647468328
1772537092449292000,2.6272919921875,-0.11467018914446234,0.030117490366101264,-0.056118193063139914
1772537092459359000,2.63735888671875,-0.12447262123450636,0.02092822173833847,-0.05067191035598516
1772537092469427000,2.647427001953125,-0.0760150259271264,0.0329828166693449,0.007255231825262307
1772537092479495200,2.6574951171875,-0.0678645988278091,0.06621230157613754,0.00918619988784194
1772537092489562000,2.66756201171875,-0.099436525785923,0.07143266657292842,-0.003456716325134039
1772537092499630000,2.677630126953125,-0.09157704445719718,0.08581015149354934,0.02640826058462262
1772537092509697800,2.68769775390625,-0.09742109431028366,0.09292027575969695,0.0425529013082385
1772537092519765000,2.697764892578125,-0.1128209080159664,0.0538093315988779,0.034843934366106985
1772537092529833000,2.7078330078125,-0.0911349997781217,0.07258943539261818,0.020470541098713872
1772537092539901000,2.71790087890625,-0.09016659313738346,0.048147652575373644,-0.011313567305356263
1772537092549968100,2.727968017578125,-0.1370491942130029,0.013191490006446838,-0.11040975522100925
1772537092560035800,2.738035888671875,-0.14910510431826113,-0.004448796102404594,-0.11036226281747222
1772537092570103000,2.74810302734375,-0.06426803564056753,0.00744096365571022,-0.023059388548135756
1772537092580170800,2.758170654296875,-0.041151948469132185,0.020137948143482208,-0.023296266043931244
1772537092590239000,2.768239013671875,-0.05576660314649343,0.006514496460556984,-0.021993951273709535
1772537092600306000,2.778305908203125,-0.025907909847050905,0.04254851739406586,0.010526800841838121
1772537092610374000,2.788373779296875,-0.018067571610212326,0.06818681651949882,0.033859453373402355
1772537092620441900,2.79844189453125,-0.07366144853830336,0.04921908119916916,0.012260346636176108
1772537092630508800,2.8085087890625,-0.10037409889698028,0.056523266732692715,-0.0006472118623554706
1772537092640576800,2.81857666015625,-0.12882482509464024,0.056685763818025585,-0.03316168036758899
1772537092650645000,2.82864501953125,-0.12518003885149956,0.02997077537178993,-0.03588759820014238
1772537092660712000,2.8387119140625,-0.08400280981063843,0.03681085052490234,-0.046827509887516494
1772537092670780000,2.84877978515625,-0.06648878042995929,0.0054535892307758325,-0.06411299120932817
1772537092680846800,2.858846923828125,-0.06164513979107141,-0.02860357867181301,-0.0967874725818634
1772537092690914800,2.868914794921875,-0.043650925678014756,-0.010225625938177108,-0.05519026456326246
1772537092700983000,2.878983154296875,-0.014855916087329387,0.03675648998916149,0.013675912522524595
1772537092711050000,2.889050048828125,-0.0287250130943954,0.055748190706968306,0.03266410610899329
1772537092721118000,2.899117919921875,-0.06973287691771984,0.05442892480194568,0.054592737061530346
1772537092731186000,2.90918603515625,-0.07208426234945654,0.06137129128575325,0.06019947102740407
1772537092741252900,2.9192529296875,-0.06681202103495597,0.07580313674211502,0.06883256707713008
1772537092751320800,2.92932080078125,-0.06665639208182692,0.06649521017074585,0.02902706478089094
1772537092761387800,2.9393876953125,-0.06437047310173512,0.05529693980813026,-0.016989128723740577
1772537092771456000,2.9494560546875,-0.06559080867692828,0.031952889099717136,-0.05778729531913995
1772537092781524000,2.95952392578125,-0.05349821982309222,0.009542319849133491,-0.05361293224394321
1772537092791591000,2.9695908203125,-0.03325213513001799,0.013402502408623694,-0.03080518036931753
1772537092801659000,2.979658935546875,-0.025690321573615074,0.020290508356690405,-0.021161592102795838
1772537092811726800,2.989726806640625,-0.041292379853129384,0.03348667453825473,-0.002973316722363233
1772537092821793800,2.999793701171875,-0.07119944233894347,0.038898178192973136,-0.020114859528839586
1772537092831862000,3.009862060546875,-0.09228431594371796,0.04562953227460384,-0.012513006222993135
1772537092841930000,3.019929931640625,-0.09488529222235083,0.05088555310666561,-0.006545914512127637
1772537092851997000,3.029996826171875,-0.11852613392025231,0.05445347472131252,-0.03418196332603693
1772537092862065000,3.04006494140625,-0.13091580602452157,0.06630640960037708,-0.06388210506290197
1772537092872131800,3.0501318359375,-0.12349895389676094,0.055882046219706535,-0.049873891846090555
1772537092882200000,3.060199951171875,-0.12210370014607906,0.04778875613510608,-0.060629533007740974
1772537092892268000,3.07026806640625,-0.12923778980970382,0.041268414455652234,-0.05917918806895613
1772537092902335000,3.0803349609375,-0.11453516458794474,0.044210313126444814,-0.03071574852019548
1772537092912403000,3.09040283203125,-0.08439093234539032,0.05836860233843326,-0.004256196139752865
1772537092922471000,3.100470947265625,-0.04271846713349223,0.09115560417473316,0.02259191716685891
1772537092932537900,3.110537841796875,0.008538988025486468,0.10310673873126507,0.05028057295083999
1772537092942606000,3.120606201171875,0.021807050399482247,0.10213467882871627,0.03994184202700853
1772537092952673000,3.130673095703125,-0.04079904337823391,0.08374386661350726,-0.039839842957258224
1772537092962741000,3.140740966796875,-0.11006707926318049,0.06303250249624252,-0.10642623854279518
1772537092972809000,3.15080908203125,-0.1370773973941803,0.0328086291462183,-0.11124445247948168
1772537092982876000,3.1608759765625,-0.1297702892512083,0.04211187954246998,-0.08955547550171614
1772537092992944000,3.170944091796875,-0.09319587783068418,0.07228197687864303,-0.04469707373008132
1772537093003011800,3.18101171875,-0.04132145981714129,0.09972469507753848,0.03776142924800515
1772537093013079000,3.1910791015625,-0.0030475510023534294,0.10135960280299186,0.09614625206887721
1772537093023146800,3.201146728515625,0.009231938725709914,0.07262509122788906,0.10974895322471856
1772537093033214000,3.2112138671875,-0.01482332899197936,0.058819853237271305,0.09011647038534283
1772537093043282000,3.221281982421875,-0.056377574651688335,0.02440028176307678,0.04280483024269342
1772537093053350000,3.231349853515625,-0.09661796123385429,-0.0022311200529336927,0.0012852175049483776
1772537093063416800,3.241416748046875,-0.11323708760142326,-0.025569910064339636,-0.04194266045540571
1772537093073484800,3.25148486328125,-0.10144845013022422,-0.04171732726693153,-0.034981297010183335
1772537093083552800,3.261552734375,-0.10437924288511276,-0.040816579034924506,-0.06586188070327043
1772537093093619700,3.27161962890625,-0.16454232742488384,-0.06711480337381362,-0.08752616163119674
1772537093103688000,3.28168798828125,-0.17326923923790455,-0.07011690779924393,-0.09390066509917377
1772537093113756000,3.291755859375,-0.12494389200806617,-0.053875967094302174,-0.041334903820604084
1772537093123822800,3.30182275390625,-0.08528174370527267,-0.041191842088103295,0.018079115917533636
1772537093133890800,3.311890869140625,-0.05797507297620177,-0.02708908245563507,0.02473418989256024
1772537093143957800,3.321957763671875,-0.05335778843909502,-0.013687164568901062,0.007975655054301024
1772537093154025700,3.332025634765625,-0.05568666977807879,0.0014350012391805649,0.012909165933728216
1772537093164094000,3.342093994140625,-0.05110577172860503,0.020727146208286286,0.019803893883526325
1772537093174161000,3.352160888671875,-0.06311433556079864,0.04943126264512539,-0.02356310028657317
1772537093184228900,3.362228759765625,-0.06096314887627959,0.060336687541007995,-0.04020400009453296
1772537093194296800,3.372296875,-0.08634440450072288,0.07297463531792163,-0.07893091337382793
1772537093204363800,3.38236376953125,-0.09272665288373827,0.06198153213858604,-0.0765355426698923
1772537093214432000,3.392431884765625,-0.0747445675998926,0.06845511206686496,-0.06028758770227432
1772537093224500000,3.4025,-0.0724222621321678,0.07321312024891376,-0.05762187562435865
1772537093234567000,3.41256689453125,-0.0604082914724946,0.06441781937479972,-0.023741671723872423
1772537093244635000,3.422634765625,-0.020337123977392912,0.08909107286036014,0.030909663657099008
1772537093254701800,3.432701904296875,-0.006770809309184551,0.10206862785518168,0.047753100299835205
1772537093264769800,3.442769775390625,-0.026321605214476584,0.10326982033848763,0.052046413579583166
1772537093274838000,3.452838134765625,-0.03650280748903751,0.13808219052255152,0.04152180469483137
1772537093284905000,3.462905029296875,-0.07351824067533015,0.13080781560540197,-0.009870821151137351
1772537093294973000,3.472972900390625,-0.13700257859230042,0.08084288447499274,-0.07484130597263575
1772537093305041000,3.483041015625,-0.14667276260480283,0.07014087319672108,-0.1202826221987605
1772537093315107800,3.49310791015625,-0.12694149556607007,0.04747603692412376,-0.12688669663891194
1772537093325176000,3.503176025390625,-0.09795125566422938,0.04239069648385048,-0.07675780711844563
1772537093335243000,3.513242919921875,-0.0618307254910469,0.05802198085784912,-0.02171045815721154
1772537093345311000,3.52331103515625,-0.08862170178294182,0.05230769486427307,-0.032549978210031985
1772537093355379000,3.53337890625,-0.1051917283117771,0.03331014892756939,-0.026056086146086455
1772537093365446000,3.54344580078125,-0.07371347098648548,0.06571662701368332,0.006419073262065649
1772537093375513900,3.553513916015625,-0.04682429501712322,0.09373451475203037,0.027928455889225004
1772537093385582000,3.56358203125,-0.06716711808294057,0.07897942869067191,-0.042130291981995104
1772537093395649000,3.57364892578125,-0.1094014549612999,0.0328606515944004,-0.06152078275904059
1772537093405717000,3.583717041015625,-0.08550196232721209,0.03596446282863617,-0.029056144744902847
1772537093415785000,3.593784912109375,-0.054446460458636284,0.05199965182840824,0.01239186406135559
1772537093425852000,3.603851806640625,-0.05537044343575835,0.06995674880146979,0.03873173558488488
1772537093435920100,3.613920166015625,-0.07011383905932307,0.057851300466060636,0.03592836860194802
1772537093445987000,3.623987060546875,-0.08571428990364074,0.051665305307507514,0.011585077723115681
1772537093456055000,3.634054931640625,-0.10340294519886374,0.04039163162112236,-0.019526245985925197
1772537093466122800,3.644122802734375,-0.09679346393123268,0.021620295655727387,-0.049574616638571024
1772537093476190000,3.65418994140625,-0.08497823071405292,0.014009820652008056,-0.0929280206747353
1772537093486257700,3.664257568359375,-0.08158522727489471,-0.012242226457595824,-0.08965162935256958
1772537093496326000,3.674325927734375,-0.03986030122339725,0.005107552272081375,-0.054092532454431054
1772537093506392800,3.684392822265625,-0.04845686465501785,0.007768880435824394,-0.03038344782590866
1772537093516460800,3.694460693359375,-0.046236265996098515,0.04487783712446689,-0.017948329144716262
1772537093526528000,3.704528076171875,-0.062408817639946934,0.062108957910537714,-0.004054097696393728
1772537093536595700,3.714595703125,-0.11094342370629309,0.05845920323133468,-0.035683892321586606
1772537093546664000,3.724663818359375,-0.10984218446612358,0.06681903529763221,-0.04136369152367115
1772537093556731000,3.73473095703125,-0.09147416860461234,0.05808160209059715,-0.024109628253430125
1772537093566798800,3.744798828125,-0.07487184724137187,0.04129822507202625,-0.0229834007024765
1772537093576866800,3.75486669921875,-0.0707540366590023,0.024722937846183776,-0.011113076297193766
1772537093586933800,3.764933837890625,-0.05424421588480472,0.038462124863266944,0.004998685070127249
1772537093597001700,3.775001708984375,-0.08893091386258602,0.020499767193198203,-0.039181525178998707
1772537093607070000,3.785070068359375,-0.1226136954948306,0.003892331263422966,-0.062360886844992636
1772537093617137000,3.795136962890625,-0.07329086166024208,0.017760697618126868,-0.018099281922727823
1772537093627204900,3.805204833984375,-0.026454876205325124,0.007307108142971992,0.005228402172774076
1772537093637271800,3.815271728515625,-0.03367591350004077,-0.002562543964385986,0.007799129443615675
1772537093647339800,3.82533984375,-0.059276364833116525,0.011304068824648857,-0.01799801350533962
1772537093657408000,3.835407958984375,-0.11923457445055245,0.000827098473906517,-0.03343684404715896
1772537093667475000,3.845474853515625,-0.1307180914953351,0.019762100568413734,-0.031214199561625716
1772537093677543000,3.85554296875,-0.10436097657606005,0.018587796092033385,0.018436258792132138
1772537093687611000,3.86561083984375,-0.06015899288654327,0.03563713057041168,0.025357582487910986
1772537093697677800,3.875677734375,-0.04599778106510639,0.04864741879105568,0.013477321210503577
1772537093707745800,3.885745849609375,-0.026220482927560806,0.05985913315713405,0.02230140978768468
1772537093717813000,3.89581298828125,-0.04358692053109407,0.058608256313204765,0.0038444004684686658
1772537093727881000,3.905880859375,-0.09690320791602135,0.02753039648234844,-0.026698329572379588
1772537093737949000,3.915948974609375,-0.11056932969689369,0.02405658289194107,-0.05094035203382372
1772537093748015900,3.926015869140625,-0.09621814826130866,-0.0021048633247613907,-0.051275867598503826
1772537093758083800,3.936083740234375,-0.07674363246262073,-0.019109774139523503,-0.06776011554002762
1772537093768152000,3.946152099609375,-0.06511836885958909,-0.015223872616887091,-0.07204422260001302
1772537093778219000,3.956218994140625,-0.06628302872478961,0.015981997507810593,-0.0636912586659193
1772537093788287000,3.966286865234375,-0.06664879329726099,0.052288405641913414,-0.0834146346591413
1772537093798354400,3.9763544921875,-0.03825520411431789,0.0881605140119791,-0.036071576464921234
1772537093808421400,3.98642138671875,0.037202041799575085,0.12698095079362393,0.07228767596706748
1772537093818489300,3.9964892578125,0.07963716194704175,0.14031681770682333,0.13943725839331744
1772537093828556300,4.006556396484375,0.028380291309952736,0.10586860466003417,0.10136544802188872
1772537093838624300,4.016624267578125,-0.03978548242151737,0.051073184633255005,0.04035539126396179
1772537093848692200,4.026692138671875,-0.06742050832211971,0.03678513156175613,-0.0006537877336144447
1772537093858759200,4.03675927734375,-0.07598360787555575,0.029963176587224007,-0.019596973134577273
1772537093868827400,4.046827392578125,-0.07032382854819297,0.03667056527137756,-0.008416238428652287
1772537093878895400,4.056895263671875,-0.06989771209061145,0.049506081447005267,-0.00068710548132658
1772537093888962300,4.06696240234375,-0.11542714499160647,0.05166004461050033,-0.012728694800287484
1772537093899030300,4.0770302734375,-0.13613397906422614,0.07141454639434815,0.018272008141130208
1772537093909098500,4.087098388671875,-0.14917992312014103,0.08284545646905898,0.018060411217063664
1772537093919165400,4.09716552734375,-0.16143384001553057,0.05444295332729816,0.007719634466618299
1772537093929233400,4.1072333984375,-0.1258534080684185,0.048774260041117665,0.03969634283334016
1772537093939300400,4.11730029296875,-0.08637947581410407,0.034601942303776737,0.06209244516715407
1772537093949368300,4.127368408203125,-0.07164864741116762,0.0499450573861599,0.05922185816690326
1772537093959436300,4.137436279296875,-0.07918342683017253,0.040869770526885986,0.0040716333530843255
1772537093969503200,4.147503173828125,-0.08652852889597415,0.0176589908093214,-0.015083002841472624
1772537093979571500,4.157571533203125,-0.0803875419229269,0.018458032232522962,-0.046018823853135105
1772537093989639200,4.16763916015625,-0.08564999249577522,0.016976269242167472,-0.020821984884887932
1772537093999706400,4.177706298828125,-0.09275354089066386,0.037142274436354636,0.01997574331909418
1772537094009774300,4.1877744140625,-0.08262509171664714,0.056716158956289286,0.027220307619869707
1772537094019841300,4.19784130859375,-0.08218027055859566,0.05384498743414878,0.048477030660212035
1772537094029909200,4.2079091796875,-0.08228548449873924,0.037467268607020376,0.03305807386264205
1772537094039977200,4.217977294921875,-0.08742840034514665,0.03501812188923359,0.008642010008543729
1772537094050044400,4.22804443359375,-0.071043667255342,0.030365327647328376,-0.011481471218168735
1772537094060112100,4.238112060546875,-0.04585574224591255,0.00039279870986938477,-0.01714563445970416
1772537094070180000,4.24818017578125,-0.010939911687374114,-0.010698504146933555,-0.013056319319456815
1772537094080247000,4.2582470703125,0.004245674745738506,-0.0183779527336359,0.0018229776434600352
1772537094090315300,4.268315185546875,-0.015609072542190551,-0.01504442439675331,-0.005884235733002424
1772537094100382200,4.27838232421875,-0.035168636275827884,-0.0019961422532796856,-0.02863368154913187
1772537094110450200,4.2884501953125,-0.04740940142869949,-0.004279869276285171,-0.01890153821632266
1772537094120518100,4.29851806640625,-0.0500166613176465,0.004552840998768806,-0.011288140603154898
1772537094130585000,4.308585205078125,-0.024513094487786293,0.015653496205806732,-0.047465661660581825
1772537094140653300,4.3186533203125,-0.026304361818730828,-0.010417349117994308,-0.070199763777107
1772537094150721300,4.32872119140625,0.023961305823922155,0.00988660324215889,-0.017688509164750576
1772537094160788200,4.338788330078125,0.06584288374185562,0.05269581739902496,0.02515051560848951
1772537094170856200,4.348856201171875,0.03646554421856999,0.07058686339855194,0.04505144012570381
1772537094180924200,4.358924072265625,-0.01480827755331993,0.0892582461208105,0.060488955493271344
1772537094190991000,4.3689912109375,-0.0721264940559864,0.11685703166425228,0.04889584059417248
1772537094201059300,4.379059326171875,-0.08208499349057674,0.13446458454728125,0.047236967471241946
1772537094211126300,4.389126220703125,-0.04487345321029424,0.15171148742437363,0.09115034347772598
1772537094221194200,4.3991943359375,-0.0021647768184542655,0.14645546659231184,0.12492957122176884
1772537094231262200,4.40926220703125,-0.02934752890691161,0.11816519165337085,0.08061199832856655
1772537094241329200,4.4193291015625,-0.097169603767246,0.07997545399069786,0.00510623709782958
1772537094251397400,4.4293974609375,-0.07999825034439563,0.05754033482074737,0.0028591888234019277
1772537094261465300,4.43946533203125,-0.09741729491800069,0.029222002831101417,-0.02123465733900666
1772537094271532300,4.4495322265625,-0.18824293648600576,-0.02945405802130699,-0.1276465750955045
1772537094281600300,4.459600341796875,-0.22572598718404768,-0.06897299846112728,-0.15045578827485442
1772537094291667200,4.469667236328125,-0.160707571567595,-0.051668227916955946,-0.1018655064985156
1772537094301735200,4.479735107421875,-0.08546674488335847,-0.0707365010023117,-0.07265241762623191
1772537094311803400,4.489803466796875,-0.05202537079155445,-0.07749123595952988,-0.04052139548063278
1772537094321870300,4.499870361328125,-0.030364158603549,-0.020055530557036398,0.0024088147073984146
1772537094331938300,4.509938232421875,-0.05097878434807062,0.039406127715110775,0.015704641871154307
1772537094342006300,4.52000634765625,-0.09615969607234001,0.0599964958012104,0.005204875166714191
1772537094352073200,4.5300732421875,-0.11321999033614992,0.07292845808863639,0.044780221968889235
1772537094362141400,4.540141357421875,-0.08183189551234245,0.0943558615207672,0.06652984309270978
1772537094372209400,4.55020947265625,-0.09112345547080039,0.0604582680940628,-0.013455693900585174
1772537094382276400,4.5602763671875,-0.07059007826894521,0.029655133551359174,-0.049380555371195074
1772537094392344300,4.57034423828125,0.02857508322969079,0.04134323325753212,-0.019452596227824685
1772537094402411300,4.580411376953125,0.04517068259119987,0.03531330544352531,-0.020016075329482554
1772537094412479200,4.590479248046875,0.0055406829923391335,0.0392915614247322,-0.034906332077831025
1772537094422547500,4.60054736328125,-0.024267595294117927,0.04748480475246906,-0.0034819968968629834
1772537094432614400,4.610614501953125,-0.05444806789383292,0.044672669941186904,0.004155804505199194
1772537094442682400,4.620682373046875,-0.09647636080607772,0.020278817918896675,-0.017812866196781397
1772537094452750000,4.63075,-0.07717763996571302,0.041917818275094026,0.02019669259339571
1772537094462817300,4.6408173828125,-0.014099106370657682,0.05897825866937637,0.08219824460670351
1772537094472885200,4.65088525390625,-0.005116173969954252,0.051069677501916884,0.0857173586435616
1772537094482953200,4.660953125,-0.009210165285319089,0.07357026312351227,0.060604983088374136
1772537094493020400,4.6710205078125,-0.046584348781406874,0.0752326433777809,0.027556407706439492
1772537094503088000,4.681088134765625,-0.08762392291724681,0.061624973785877224,-0.040867432439327236
1772537094513155300,4.6911552734375,-0.08196808911263942,0.06547346590757369,0.0028910452663898465
1772537094523223000,4.70122314453125,-0.009354103800654412,0.0777121852338314,0.05414192455410957
1772537094533291300,4.711291259765625,-0.027144612035155294,0.036161446705460544,0.004128624237328768
1772537094543358200,4.721358154296875,-0.05198036260604858,0.018507132071256635,-0.009495558097958564
1772537094553426200,4.73142626953125,-0.03376490695774555,0.0497965888261795,0.01410699741616845
1772537094563494100,4.741494140625,-0.06330255160927772,0.04735737898051738,0.0041186873652040955
1772537094573561000,4.75156103515625,-0.13837737407684325,0.003022562691569328,-0.06655468527302145
1772537094583629300,4.76162939453125,-0.13489742300659419,0.022853052321076393,-0.09341580419167876
1772537094593696300,4.7716962890625,-0.07819426966235041,0.03377367478609085,-0.019246260000765323
1772537094603764200,4.78176416015625,-0.0738243840150535,0.01702420003712177,0.000727145230770111
1772537094613832200,4.791832275390625,-0.07954583040177822,0.008531681501865387,0.011452537384629249
1772537094623899100,4.801899169921875,-0.09216156634688377,0.03731061674058437,0.06238529063388705
1772537094633967000,4.811967041015625,-0.10661445459127425,0.05717851577103138,0.050017830361425875
1772537094644035300,4.822035400390625,-0.1404926126651466,0.04429682236611843,0.028712153612822294
1772537094654102300,4.832102294921875,-0.14236016010269523,0.03875321676433086,0.005109890359640121
1772537094664170200,4.842170166015625,-0.1037497128099203,0.050740591678023333,0.0021805589094758032
1772537094674238200,4.85223828125,-0.022658991053700447,0.07462590965628624,0.016689999646693467
1772537094684305200,4.86230517578125,-0.050367666712403295,0.025507366222143172,-0.0629109219431877
1772537094694373400,4.872373291015625,-0.1414034438997507,-0.04957388598620891,-0.18408099450096488
1772537094704440300,4.8824404296875,-0.1009311482578516,-0.04242050710022449,-0.14388386253863572
1772537094714508300,4.89250830078125,0.032683833722770214,-0.010198737931251525,0.007277005265653133
1772537094724576300,4.902576171875,0.058732759475708,-0.03064998980760574,0.026507190914452073
1772537094734643200,4.912643310546875,-0.018299919061362743,-0.043138884502649306,-0.02834171286523342
1772537094744711200,4.922711181640625,-0.059668432890623804,0.005226794737577438,-0.029039047479629515
1772537094754779400,4.932779296875,0.015893734702467917,0.04586801720559597,0.064176704095304
1772537094764846300,4.942846435546875,0.05453443100303411,0.0575607930868864,0.06007920564860105
1772537094774914300,4.952914306640625,-0.027560791620612143,-0.0013069909453392028,-0.01429082955047488
1772537094784981200,4.962981201171875,-0.036167876446247096,-0.008476736444234847,-0.015674100602418185
1772537094795049200,4.97304931640625,0.002059270617365837,0.03458440664708614,0.02651391291618347
1772537094805117200,4.9831171875,-0.036053894677758214,0.020388123512268066,-0.03112725193053484
1772537094815184100,4.99318408203125,-0.11730360638797283,-0.004469838890433312,-0.08440671443641186
1772537094825252000,5.003252197265625,-0.09547492867857217,0.03139291712939739,-0.022720073591172694
1772537094835320000,5.013320068359375,-0.055234980487823486,0.06818097130060195,0.02017988758906722
1772537094845387000,5.023386962890625,-0.07146949145197867,0.06026479134857654,0.013477467340975999
1772537094855455000,5.033455078125,-0.055987260159850116,0.06824409966468811,-0.0021102701522409915
1772537094865523200,5.043523193359375,-0.05983809036910533,0.06759001967012881,-0.03311068083271384
1772537094875590100,5.053590087890625,-0.11153875925093888,0.024309096348285673,-0.0909108356334269
1772537094885658000,5.063658203125,-0.11422492959499359,-0.00001052139401435852,-0.07287336690053343
1772537094895725000,5.07372509765625,-0.10409925689995288,0.024887188497185707,-0.029097499668598172
1772537094905793000,5.08379296875,-0.09462971002608538,0.08610708861351013,-0.007434826175868511
1772537094915861200,5.093861328125,-0.10107420999035238,0.08726502647697926,-0.020294161618500946
1772537094925928200,5.10392822265625,-0.08058964036628603,0.08167407460212707,-0.003999152638763189
1772537094935996200,5.11399609375,-0.02031213566660881,0.10097674096524714,0.011646890912950039
1772537094946064000,5.12406396484375,0.011884206800162792,0.10773556757569312,0.024404957938194274
1772537094956131000,5.134131103515625,-0.005393675737082958,0.06427753412127495,-0.08601414963304996
1772537094966199000,5.144198974609375,-0.07770166383981704,-0.029962592065334318,-0.15262261091992257
1772537094976267000,5.15426708984375,-0.06813654763698578,-0.025813071170449255,-0.121598380972445
1772537094986334200,5.164334228515625,0.011762626247107982,0.029518939951062202,-0.016238602617383004
1772537094996402000,5.17440185546875,0.0195174781575799,0.03887655088305473,0.02603270527049899
1772537095006469000,5.18446923828125,-0.03475391799509525,0.02534311557114124,0.0030459435671567913
1772537095016536800,5.194536865234375,-0.0276779882594943,0.06453881540596484,0.021022768153995276
1772537095026605000,5.20460498046875,-0.0063452773734927175,0.0886053351700306,0.043593642532825466
1772537095036672000,5.214672119140625,-0.04576777170151472,0.03477262269556522,-0.03301248115524649
1772537095046740000,5.224739990234375,-0.06786167621836066,-0.01939794343113899,-0.05000906253308057
1772537095056808000,5.234807861328125,-0.03949132178053259,-0.017408815440535543,0.010065320809930563
1772537095066875000,5.244875,-0.019573299998044965,0.0049491468399763105,0.045307314582914114
1772537095076942800,5.25494287109375,-0.09342238006293774,-0.011481178957223892,0.0020380816988646985
1772537095087009800,5.265009765625,-0.16921733349859713,-0.00590074847638607,-0.041449470110982656
1772537095097078000,5.275078125,-0.1421615687906742,0.018159926068782806,-0.005530015467852353
1772537095107146000,5.28514599609375,-0.033047552468627686,0.04805354455113411,0.06776712980270386
1772537095117213000,5.295212890625,-0.006931260567903518,0.03954816653430462,0.0561599863782525
1772537095127281000,5.305281005859375,-0.04728475213572383,0.02784720734655857,-0.007422697346657514
1772537095137349000,5.31534912109375,-0.052235214149951935,0.04074760545194149,-0.027645985686033964
1772537095147416000,5.325416015625,-0.05089125219509005,0.02404781506359577,-0.05052461083978414
1772537095157484000,5.335484130859375,-0.08562602709829807,-0.010105214428901672,-0.056104895190149544
1772537095167552000,5.345552001953125,-0.04890738490149379,0.035569910553097724,-0.02908478631749749
1772537095177619000,5.355618896484375,-0.029042408480495212,0.03795592890679836,-0.011905541849136352
1772537095187687000,5.36568701171875,-0.0637614012926817,0.004113280537724495,-0.002146802770346403
1772537095197753900,5.37575390625,-0.04893427290841937,0.05863631336390972,0.06189385385513305
1772537095207822000,5.385822021484375,-0.011715279974043369,0.12685937024056912,0.1359095226585865
1772537095217890000,5.39589013671875,-0.042781741628050804,0.13211188394129275,0.12165727155283093
1772537095227957000,5.40595703125,-0.10418868874907493,0.12056173140108585,0.04401654412001371
1772537095238025000,5.41602490234375,-0.10794833354353904,0.12387129434049128,0.01087824462801218
1772537095248093200,5.42609326171875,-0.07250877137184143,0.10497253260314464,0.0020690613590180875
1772537095258160000,5.43616015625,-0.06637874418422579,0.06716214964687824,-0.0320329685986042
1772537095268228000,5.44622802734375,-0.04648512619063258,0.0655646513223648,0.003790186063200235
1772537095278295000,5.456294921875,-0.041917818275094026,0.05620645586848259,0.0003738017484545707
1772537095288363000,5.466363037109375,-0.09540040213763713,0.00604103372991085,-0.04199745938256383
1772537095298431000,5.476430908203125,-0.08740969564467668,-0.007369651985168457,-0.018942893140017986
1772537095308498000,5.486497802734375,-0.06263152047991752,0.011004793617129326,-0.016148586246371267
1772537095318566100,5.496566162109375,-0.06223287655115127,0.0012006079614162444,-0.014129355378448963
1772537095328634000,5.506634033203125,-0.03841653215587139,0.00518704724907875,0.016252192751318215
1772537095338701000,5.516701171875,0.0028279169023036955,0.02516249830722809,0.07579466117471456
1772537095348769000,5.52676904296875,-0.008345803540945053,0.05372516044676304,0.07026347666308283
1772537095358837200,5.536837158203125,-0.04140095479413867,0.06558920124173163,0.05669628521203995
1772537095368904200,5.546904296875,-0.058200260034203526,0.05211421811878681,0.026260376546531915
1772537095378972200,5.55697216796875,-0.04635258585214615,0.015401567271351814,-0.02904226235002279
1772537095389039000,5.5670390625,-0.024006752400845287,-0.021695698979496955,-0.04700257419347763
1772537095399107000,5.577107177734375,0.03815583539307117,-0.01077449199259281,-0.03668956223279238
1772537095409175000,5.587175048828125,0.04962590843439102,-0.006027005204558372,-0.04874664138182998
1772537095419242000,5.597241943359375,0.03419350763335824,-0.012900982627272605,-0.0061887716375291345
1772537095429310200,5.607310302734375,0.021067484078556298,-0.0038087446331977843,0.05799480058997869
1772537095439378000,5.6173779296875,-0.0575216301202774,-0.04158756340742111,0.044109190839529036
1772537095449445000,5.627445068359375,-0.12041092475354671,-0.08469254564046859,-0.015462942069768905
1772537095459512800,5.637512939453125,-0.08828194843456148,-0.07697218052148819,-0.03914440803900361
1772537095469581000,5.6475810546875,-0.1345370652616024,-0.03875497032999992,-0.031252047353982924
1772537095479648000,5.65764794921875,-0.14952639847025273,0.010794365736842155,-0.027933862716704606
1772537095489716000,5.667716064453125,-0.12328837988600135,0.04281330581009388,0.04443988409861922
1772537095499783000,5.677782958984375,-0.10789017361551523,0.05583645351231098,0.0825660550057888
1772537095509851000,5.687850830078125,-0.0844569833189249,0.05942483339309692,0.07310586048215627
1772537095519918800,5.6979189453125,-0.05922843403816223,0.06362286960482597,0.05445610506981611
1772537095529986000,5.707986083984375,-0.010638006131350993,0.06354162106215953,0.06112491530925035
1772537095540054000,5.718053955078125,-0.012171499308943748,0.05718026933670044,0.040907033797353505
1772537095550122000,5.7281220703125,-0.03085574151277542,0.05119067353308201,0.011988543957471847
1772537095560189000,5.73818896484375,-0.018606354662030936,0.0628419483602047,0.02433189270198345
1772537095570257000,5.7482568359375,-0.03300020619556308,0.059496145063638685,-0.024338614703714845
1772537095580323800,5.75832373046875,-0.07889350397288798,0.03682663261592388,-0.05788374143093824
1772537095590392000,5.76839208984375,-0.08603694598674774,0.03753858027756214,-0.0579779955856502
1772537095600460000,5.7784599609375,-0.11712532721161842,0.020100538742542265,-0.08491305652335286
1772537095610527000,5.78852685546875,-0.12288520591259001,0.0216980370670557,-0.08274944874867797
1772537095620595000,5.798594970703125,-0.09489362165927887,0.028635142853856085,-0.051592093940824264
1772537095630663000,5.808662841796875,-0.06265607039928436,0.026713234880566594,-0.04196516454815864
1772537095640730000,5.818730224609375,-0.04730740235894918,0.046104164049029346,-0.0025536300055682658
1772537095650798000,5.828798095703125,-0.010858370883762836,0.1092880577147007,0.05442600219249725
1772537095660866000,5.838865966796875,0.009347235668450594,0.1555026964008808,0.043673137509822844
1772537095670933000,5.84893310546875,-0.04358692053109407,0.1364408530563116,0.05720818025693297
1772537095681001000,5.8590009765625,-0.06469605179429054,0.15160978061556815,0.022671704404801128
1772537095691068000,5.86906787109375,-0.07688157962858677,0.12305062560737132,-0.02281578905060887
1772537095701136100,5.87913623046875,-0.055011693125963206,0.06728197663426398,-0.04577317852899432
1772537095711204000,5.8892041015625,-0.004579582875221967,0.03149754654765129,-0.072987933190912
1772537095721271000,5.89927099609375,0.0058925651699304575,-0.005279986229538917,-0.10057371312230824
1772537095731339000,5.909339111328125,0.0026046295404434203,-0.02192424703836441,-0.08660963130816816
1772537095741407000,5.919406982421875,-0.030547990737855434,-0.003067570877075195,-0.07525558586195111
1772537095751474200,5.92947412109375,-0.06594459055066108,0.02210544882416725,-0.01025952820777893
1772537095761542100,5.939542236328125,-0.09119330583661794,0.04031389020979404,0.056647331503778695
1772537095771610000,5.949610107421875,-0.12511384174749254,0.05948211653828621,0.06572510258108377
1772537095781677000,5.959677001953125,-0.1362754333615303,0.05980711070895195,0.07683554852977395
1772537095791745000,5.9697451171875,-0.13808043695688246,0.03144435505568981,0.08043021202087401
1772537095801812500,5.9798125,-0.11642565450966358,0.04626081591546535,0.06644713324531912
1772537095811880700,5.989880615234375,-0.08175503088384867,0.07395078687369823,0.05048208687230944
1772537095821948400,5.999948486328125,-0.09247954625487327,0.044783729100227355,-0.0429322560146451
1772537095832015600,6.010015625,-0.09162380620837211,0.00927402430176735,-0.05699935981184244
1772537095842083300,6.020083251953125,-0.0328727804236114,-0.0037777649730443954,-0.0304579743668437
1772537095852151600,6.030151611328125,-0.008303133442997932,-0.05132978974282741,-0.006583177782595157
1772537095862218500,6.040218505859375,-0.007365998723357916,-0.04925006085932254,-0.016174159079045056
1772537095872286500,6.050286376953125,-0.04393295748978853,-0.028558570486307142,-0.04605681777596474
1772537095882353700,6.060353759765625,-0.0921335092961788,-0.018018471771478653,-0.06606997049599886
1772537095892421400,6.07042138671875,-0.11169263463839887,-0.006607435441017151,-0.052124447251856325
1772537095902489300,6.0804892578125,-0.06665127751529216,0.03515314644575119,-0.01810337357595563
1772537095912556300,6.090556396484375,-0.06768821934759617,0.03554652967751026,-0.02175736603885889
1772537095922624500,6.10062451171875,-0.052865767138451335,0.02071077959537506,-0.03821414145156741
1772537095932692500,6.1106923828125,-0.02530322195217013,0.03661678925752639,-0.03725158002972603
1772537095942759400,6.120759521484375,-0.0021639000356197357,0.034660979014635086,-0.03800429809316992
1772537095952827400,6.130827392578125,0.007853636109828949,0.04379822519421577,-0.032612375921756025
1772537095962895600,6.1408955078125,0.01741656035557389,0.07152209842205047,-0.006019552550464868
1772537095972962600,6.150962646484375,0.031631986582279205,0.07830196782052516,-0.0025863632313907147
1772537095983030500,6.161030517578125,0.01952303111553192,0.0817512314915657,-0.022902590551227328
1772537095993097500,6.171097412109375,-0.007269114220142364,0.08610299696028233,-0.0065790861293673515
1772537096003165400,6.18116552734375,-0.013707038313150404,0.10478782368600367,-0.015850772343575955
1772537096013233400,6.1912333984375,-0.0633766397587955,0.07298457219004631,-0.09001257161945105
1772537096023300400,6.20130029296875,-0.09796411514580249,0.032196634727716444,-0.12091682844907045
1772537096033368600,6.21136865234375,-0.060002341020107264,0.031792145580053326,-0.08945172286629677
1772537096043436500,6.2214365234375,-0.04571545699238777,0.021140987706184385,-0.01827653818577528
1772537096053503500,6.23150341796875,-0.03180032888650894,0.052504678741097446,0.01723959635347128
1772537096063571500,6.241571533203125,-0.0651771133095026,0.07246493223011494,0.014857231261581182
1772537096073639700,6.2516396484375,-0.10791735388338565,0.07016659215986729,0.026062369756400583
1772537096083706600,6.26170654296875,-0.11254077590033411,0.0814414348900318,0.029241438183933495
1772537096093774600,6.271774658203125,-0.09943126508891582,0.08125497240722179,0.01583732834011316
1772537096103841500,6.281841552734375,-0.10594050085246562,0.061546647852659224,-0.029383477003127333
1772537096113909500,6.291909423828125,-0.08832651822865009,0.043755555096268654,-0.03294453048557043
1772537096123977500,6.3019775390625,-0.012400631889700888,0.0492956535667181,0.038411563719809055
1772537096134044400,6.31204443359375,0.025147300738096234,0.03871346927583218,0.054623716721683736
1772537096144112600,6.322112548828125,0.011335194615274668,0.021348492977023122,0.029859423951804635
1772537096154180600,6.3321806640625,0.009422200600802897,0.008517068454623222,-0.0015320318728685378
1772537096164247600,6.34224755859375,-0.00412438645362854,0.0037257425248622893,-0.02026332808881998
1772537096174315500,6.3523154296875,-0.012912380804121493,-0.011477671825885771,-0.011961948211491108
1772537096184383700,6.3623837890625,0.0005202244818210602,0.002845452558994293,0.00028904607445001603
1772537096194450700,6.37245068359375,-0.04247939768061042,0.006825462105870247,-0.04755684707537293
1772537096204518700,6.3825185546875,-0.06440437537133693,-0.006332125630974769,-0.053534460180252784
1772537096214585600,6.392585693359375,-0.009269932648539543,0.04334171359837055,0.08626914730742573
1772537096224653600,6.402653564453125,-0.006557604949921369,0.043126609542965884,0.018458909015357492
1772537096234721500,6.412721435546875,-0.06737886113747954,-0.010547112977504729,-0.03292100347951055
1772537096244788500,6.42278857421875,0.014958499678969383,-0.012803367471694945,0.05224062097743153
1772537096254856700,6.432856689453125,0.017588263660669325,-0.043892917740345,0.045579994044452905
1772537096264924400,6.44292431640625,-0.0441258497133851,-0.04967442375123501,0.00013239420801401138
1772537096274991600,6.45299169921875,-0.06506883062943816,-0.018298457756638527,-0.01570025795698166
1772537096285059300,6.463059326171875,-0.10146174800321459,0.0022860651105642317,0.007591478042304515
1772537096295127600,6.47312744140625,-0.11201821333095431,0.03035948242843151,-0.019597703786939383
1772537096305194500,6.483194580078125,-0.10942775844633579,0.040671033084392544,-0.01715995524600148
1772537096315262500,6.493262451171875,-0.09195347655415534,0.04655190781652927,0.0019625322446227074
1772537096325329700,6.50332958984375,-0.05044891525506973,0.06283084244430065,0.02089811886101961
1772537096335397400,6.5133974609375,-0.0218681329369545,0.03761339907944202,0.03380377766340971
1772537096345465300,6.52346533203125,-0.01273088675737381,0.028724574702978133,0.056364569039642806
1772537096355532300,6.5335322265625,-0.03450315810441971,0.03474456564486027,0.03905030001476407
1772537096365600500,6.5436005859375,-0.07153145077228545,0.04198796090185642,0.011292524517327547
1772537096375668500,6.55366845703125,-0.07709843724966049,0.04663315635919571,-0.007118015311658382
1772537096385735400,6.5637353515625,-0.06770049430727958,0.03374854034483433,-0.004308656979352236
1772537096395803400,6.573803466796875,-0.06086012689322233,0.03637129006385803,0.01868950290083885
1772537096405870300,6.583870361328125,-0.013470891469717024,0.05265782347619533,0.03615618600845337
1772537096415938600,6.5939384765625,0.009998393053561448,0.06596271072924137,0.044267011749744414
1772537096426006500,6.604006591796875,-0.011433832684159278,0.05921031385958194,0.02009922356829047
1772537096436073500,6.614073486328125,-0.04588423768803477,0.04688040911853313,-0.006647475190460682
1772537096446141400,6.624141357421875,-0.060733577904105183,0.039113866770267486,-0.014914076015353201
1772537096456209400,6.63420947265625,-0.05122223771512508,0.027089666977524757,-0.029174802688509225
1772537096466276400,6.6442763671875,-0.06637333735674619,0.008050619986653327,-0.021162468885630368
1772537096476344600,6.654344482421875,-0.09242430893629788,0.00036649522483348846,-0.06525514698177576
1772537096486412500,6.66441259765625,-0.09009761955440043,-0.028378537744283675,-0.038486090260744094
1772537096496479500,6.6744794921875,-0.07248977441042662,-0.010426116946339607,0.011729454629868269
1772537096506547500,6.68454736328125,-0.0719718880161643,0.019579145216941832,0.014930881019681692
1772537096516614400,6.694614501953125,-0.08048106542527675,0.028279753544926643,-0.012576719108968973
1772537096526682600,6.7046826171875,-0.04298690881133079,0.045967970448732375,-0.004072656266391277
1772537096536750600,6.71475048828125,0.0029191023170948025,0.05054653041064739,0.022366145586967468
1772537096546817500,6.724817626953125,0.05432429538369178,0.04271276804506779,0.007131605445593595
1772537096556885500,6.734885498046875,0.035599136647582054,0.027646131816506384,-0.013945084852725267
1772537096566953500,6.744953369140625,0.011566519153118134,0.034493805754184724,-0.03359334978312254
1772537096577020400,6.7550205078125,-0.0020557634860277176,0.04700023610591888,-0.042958121108263726
1772537096587088600,6.765088623046875,-0.0006274842485785484,0.05663958658874035,0.012193126618862151
1772537096597156600,6.775156494140625,0.0031368367210030555,0.062086161556839936,0.017202771474421022
1772537096607223600,6.7852236328125,-0.029266426494717595,0.04519873964190483,-0.02043546978533268
1772537096617291500,6.79529150390625,-0.008967442570626736,0.050910103026032445,0.013276391810923814
1772537096627358500,6.8053583984375,0.0008294365614652633,0.056098903840780256,0.024809008694440124
1772537096637426700,6.8154267578125,-0.05964402910172939,0.01986030024588108,-0.009007774581015109
1772537096647494700,6.82549462890625,-0.08544716340005397,0.03323006942868233,0.014906477230787276
1772537096657561600,6.8355615234375,-0.08725567412674426,0.057818567240238185,0.05184504578858613
1772537096667629600,6.845629638671875,-0.08724266851469874,0.06104805068075657,0.04077902350351214
1772537096677697500,6.855697509765625,-0.12551482376381753,0.043135961893200875,-0.02168020914942026
1772537096687764500,6.865764404296875,-0.12112228789329528,0.032982232147455215,-0.00832870627567172
1772537096697832700,6.875832763671875,-0.0738128397077322,0.05026595990359783,0.0022856267191469666
1772537096707900400,6.885900390625,-0.09265358764752744,0.03745382460355758,-0.017891630521416662
1772537096717967600,6.895967529296875,-0.07620923332497477,0.02532499539256096,-0.0013458616510033607
1772537096728035300,6.906035400390625,-0.023019348798692225,0.04814180735647678,0.06191285081654787
1772537096738102500,6.9161025390625,0.0022550854504108427,0.062055766418576234,0.06918415699377656
1772537096748170500,6.92617041015625,-0.03226736187636852,0.01657470270395279,0.009252543122321367
1772537096758238500,6.936238525390625,-0.02163315513730049,0.015338438907265663,-0.021247224559634924
1772537096768305700,6.9463056640625,0.0007183774024248123,0.01645955189168453,-0.01374927001968026
1772537096778373400,6.956373291015625,-0.035732407638430594,-0.003119593325257301,-0.06993950540572405
1772537096788441300,6.96644140625,-0.04604337377250194,-0.029852117428183556,-0.07698840100392698
1772537096798508300,6.97650830078125,-0.040092210283130404,-0.026754151412844655,-0.04177870206534862
1772537096808576000,6.986575927734375,-0.011983429390937089,-0.0030389293044805524,-0.01942614661231637
1772537096818643200,6.996643310546875,0.0021878654330968854,-0.005742927566170692,-0.0019371055424213409
1772537096828711000,7.0067109375,0.01735153229534626,0.02157294938266277,0.022240034989267587
1772537096838779100,7.016779052734375,0.01675239735841751,0.027882278659939766,0.006053600950539112
1772537096848846000,7.02684619140625,0.0309568637996912,0.028749709144234657,0.02471782327964902
1772537096858914000,7.0369140625,0.02288929267823696,0.039945641419291494,0.0335154622413218
1772537096868982000,7.04698193359375,-0.014686404739320277,0.017137012761831282,0.003985124113410711
1772537096879049000,7.057049072265625,-0.04164528494402766,0.010521978536248207,-0.03830371943116188
1772537096889117200,7.0671171875,-0.043833004246652124,0.011778700599074363,-0.05513444272279739
1772537096899185200,7.07718505859375,-0.04695230531096458,-0.002757774275541305,-0.022963526958227155
1772537096909252000,7.087252197265625,-0.059456251444667575,-0.00708148269355297,-0.02029021609574556
1772537096919320000,7.097320068359375,-0.07371507842168211,0.02270750637054443,0.004995616330206394
1772537096929387000,7.107386962890625,-0.07078209370970726,0.054615387284755706,0.05705912717506289
1772537096939455000,7.117455078125,-0.058330608415603634,0.06763152072429657,0.0685052348189056
1772537096949523200,7.127523193359375,-0.05872808330059051,0.06498422108590603,0.06468041583374143
1772537096959590100,7.137590087890625,-0.03889978562816977,0.09015022652447223,0.0525941105902195
1772537096969658000,7.147658203125,-0.033751901345700025,0.08433598728775978,0.00814662770703435
1772537096979726000,7.15772607421875,-0.04881985274851322,0.06285422331988812,-0.021703005503118038
1772537096989793000,7.16779296875,-0.02095671718046069,0.0978068787574768,0.008946107521653176
1772537096999861200,7.177861328125,-0.01194090542346239,0.10722527996599673,0.033143560189008714
1772537097009929200,7.18792919921875,0.041879970482736825,0.07313479431569576,-0.0062146367311477655
1772537097019996200,7.19799609375,0.045695583248138424,0.08355214343369007,0.025362112532556054
1772537097030064000,7.208064208984375,0.00727232909053564,0.09910217926502227,0.08241656353250146
1772537097040131000,7.218131103515625,-0.05264847112596035,0.07565817531347274,0.0667939008563757
1772537097050199000,7.228198974609375,-0.13271744861900805,0.023269816428422928,0.05681581993848085
1772537097060267300,7.238267333984375,-0.1355984108828008,0.030447745233774182,0.041907443011552095
1772537097070334200,7.248334228515625,-0.14186550845354795,0.013377952489256857,0.022106033346056937
1772537097080402200,7.258402099609375,-0.13811404696553944,-0.013814590340852737,-0.024182985750585792
1772537097090470100,7.26847021484375,-0.09545914658755063,-0.011762918508052824,-0.035333763709664345
1772537097100537000,7.278537109375,-0.04733166001737117,0.0011813187390565872,0.002414806056767702
1772537097110605300,7.288605224609375,-0.022146365356445312,0.0021288287222385404,-0.007260492522269487
1772537097120673300,7.29867333984375,-0.025369126795232295,-0.026844752305746077,-0.00008738602250814438
1772537097130740200,7.308740234375,-0.0010246668726205826,-0.01974573395550251,0.050786915037780996
1772537097140808200,7.31880810546875,0.010211743543297052,0.00029401451051235195,0.05040113059058785
1772537097150875100,7.328875244140625,-0.017825433417409657,-0.03435293597877025,0.03142652713805437
1772537097160943000,7.338943115234375,-0.023707331062853335,-0.014462825116515159,0.013025047398358582
1772537097171011300,7.34901123046875,-0.009618892216682433,0.004888941085338592,0.027998598515987395
1772537097181078300,7.359078369140625,-0.0023880641803145407,0.0190881468296051,0.041706805872917176
1772537097191146200,7.369146240234375,0.014806523987650871,0.035545945155620574,0.03976210154592991
1772537097201214000,7.3792138671875,0.02562719320952892,0.007113631397485732,0.04357084617912769
1772537097211281200,7.38928125,0.0017839608073234557,-0.01873568013012409,0.024235738851130006
1772537097221349000,7.39934912109375,-0.05448533116430044,-0.02886661352217197,-0.04108239036425948
1772537097231417000,7.4094169921875,-0.09761749366521835,-0.02381692891716957,-0.08851604945138096
1772537097241484300,7.419484375,-0.09241115719377994,-0.0083393738001585,-0.03806377319544554
1772537097251552000,7.429552001953125,-0.04944119951725006,0.019922844088077544,0.020545213770121334
1772537097261619200,7.439619140625,-0.06313888548016548,0.03675239833593368,0.03155249160528183
1772537097271687000,7.44968701171875,-0.1017979942202568,0.020471710142493247,0.014796002593636512
1772537097281755100,7.459755126953125,-0.09724193835109472,0.04613455918729305,0.028012042519450185
1772537097291822000,7.469822021484375,-0.05769494086056948,0.09024784168004989,0.07281666827723383
1772537097301890000,7.47989013671875,-0.03274666982591152,0.10961714353859424,0.08166501451283693
1772537097311958000,7.4899580078125,-0.04203998335003853,0.08417758185565472,0.01741261483281851
1772537097322025000,7.50002490234375,-0.049749242553114886,0.08023264362215995,-0.04106222435906529
1772537097332093200,7.51009326171875,-0.014050737184286117,0.07679974656403064,-0.08052841169834137
1772537097342160100,7.52016015625,-0.013564999493956564,0.0378887088894844,-0.09750088154822588
1772537097352228000,7.53022802734375,-0.0066370999269187445,0.022924363991618155,-0.07863879855945706
1772537097362296000,7.540296142578125,-0.010296060825884341,0.036004210317134855,-0.03545782848075032
1772537097372363000,7.550363037109375,-0.034656302839517594,0.07143325109481811,-0.006038987903296947
1772537097382431000,7.560430908203125,-0.05921835103556514,0.07938450236022472,0.011426526160538197
1772537097392499200,7.570499267578125,-0.06773308140262961,0.08113163828849793,0.045843905677646395
1772537097402566100,7.580566162109375,-0.04885901571512222,0.09669628716707229,0.05162015099152922
1772537097412634000,7.590634033203125,-0.0692114833921194,0.07199263854324817,-0.014383622400462627
1772537097422702000,7.6007021484375,-0.05926993509232997,0.04643967961370945,-0.01379632403180003
1772537097432769000,7.61076904296875,0.007330781279504299,0.04112696015834808,0.026826924388110636
1772537097442837200,7.620837158203125,-0.008508008365333079,0.029181670820713042,0.004382598998397588
1772537097452905200,7.6309052734375,-0.06085019002109766,0.01106909102499485,-0.0008323591709136962
1772537097462972200,7.64097216796875,-0.09473404718339443,0.04385433929562568,-0.0066610653243958946
1772537097473040100,7.6510400390625,-0.12891717955321072,0.018065818044543266,-0.04181844955384731
1772537097483107000,7.661107177734375,-0.11085340733528136,-0.011308744999766349,-0.07669117162302136
1772537097493175300,7.67117529296875,-0.022830109836906195,-0.006674070936441421,-0.01737199056148529
1772537097503243300,7.6812431640625,0.05202390948683023,-0.003590717968344688,0.03893909472525119
1772537097513310200,7.691310302734375,0.0627656682536006,0.0019289222359657287,0.0414005164027214
1772537097523378200,7.701378173828125,0.024603987641632557,0.018180968856811523,0.03792071146294474
1772537097533446100,7.711446044921875,-0.01632102020382881,0.05337444731295109,0.04768865676149726
1772537097543513000,7.72151318359375,-0.055850482037663456,0.06635083326399326,0.022844576753675936
1772537097553581300,7.731581298828125,-0.11486615010797976,0.03167173407077789,0.00927592399790883
1772537097563648300,7.741648193359375,-0.07540887672752142,0.03499240292608738,0.0015123042590916157
1772537097573716200,7.75171630859375,-0.02182575509995222,0.027474866902828216,0.030940497186779974
1772537097583784200,7.7617841796875,0.00563888266980648,0.014037293180823326,0.021924685429781675
1772537097593851100,7.77185107421875,0.010924860248714684,0.00023030162453651428,-0.01034384549036622
1772537097603919400,7.78191943359375,-0.026071283715218305,-0.008422375908493995,-0.0365033920109272
1772537097613987300,7.7919873046875,-0.04979293556436896,-0.005235562565922737,-0.027373013963550328
1772537097624054300,7.80205419921875,-0.09045578534230589,0.018230068695545196,-0.02896832033097744
1772537097634122200,7.812122314453125,-0.13530147376284002,0.01705167256593704,-0.030336247683316466
1772537097644190000,7.82218994140625,-0.16035232838913796,0.021119360396265982,-0.05771028456017375
1772537097654257200,7.832257080078125,-0.1642559116989374,0.03283727071881294,-0.06861687849983572
1772537097664325000,7.8423251953125,-0.12873320128843188,0.028462708896398542,-0.04131663751155138
1772537097674392300,7.852392333984375,-0.06028817222416401,0.024340076008439064,-0.009721475808322428
1772537097684460300,7.862460205078125,-0.034520693761110305,0.03210486479103565,-0.014603987152874469
1772537097694528000,7.872528076171875,-0.04404489343166351,0.03272971869111061,-0.06163388774469494
1772537097704595200,7.88259521484375,-0.05974339782297611,0.019102759876847265,-0.09277268398255109
1772537097714663200,7.8926630859375,-0.039052491971850394,0.009905892464518546,-0.060533817548304794
1772537097724731100,7.902731201171875,0.003109364192187786,0.03661503569185733,-0.005667378111928701
1772537097734798000,7.912798095703125,0.005334639026224613,0.07798106530308722,0.03071194912791252
1772537097744866000,7.922865966796875,-0.009935118559002875,0.09739479082524775,0.014970336247235535
1772537097754934000,7.93293408203125,-0.02723988910317421,0.09181085321307182,0.013087152849137782
1772537097765001000,7.9430009765625,-0.030528993776440617,0.10984218446612358,0.02088189837858081
1772537097775069200,7.953069091796875,-0.019719430470466613,0.11837971118688582,0.005557049605250358
1772537097785136000,7.96313623046875,-0.04271101447939873,0.09461422019600868,-0.037128976563364266
1772537097795204000,7.9732041015625,0.0021989713490009307,0.08068506356477737,-0.028894670572876927
1772537097805272800,7.98327294921875,0.07754866523519158,0.0886918444097042,0.051703153099864715
1772537097815339800,7.99333984375,0.07822481093108653,0.07511866160929202,0.07280015553385019
1772537097825407700,8.00340771484375,-0.01916618050187826,0.041299394115805625,0.027630057464540003
1772537097835475700,8.013475830078125,-0.10830810676664113,0.021243279036879538,0.022694646888971326
1772537097845542700,8.023542724609374,-0.1616411991558969,0.0019119711011648178,0.011863164012134074
1772537097855611000,8.03361083984375,-0.17290435144826768,-0.0011281272470951079,0.007983838360756635
1772537097865678800,8.043678955078125,-0.17170038248598574,0.00400455946624279,0.012980185343325137
1772537097875745800,8.053745849609374,-0.13829144935905932,-0.021747136905789374,0.0055853989169001575
1772537097885813800,8.063813720703125,-0.12272738500237464,-0.032490649238228794,-0.0165241415604949
1772537097895880700,8.073880615234375,-0.12824848651140927,-0.02793079397678375,-0.05711845614686608
1772537097905949000,8.083948974609376,-0.08958660129234194,-0.036380057892203325,-0.04561068144366145
1772537097916017000,8.094016845703125,-0.044993572458624835,-0.048907531031966205,0.008400894729048014
1772537097926083800,8.104083740234374,-0.016097586711496113,-0.04849719666540622,0.037112756080925464
1772537097936151800,8.11415185546875,-0.028466216027736663,-0.038511224702000614,0.04028714833334088
1772537097946219800,8.1242197265625,-0.04461991684064269,-0.0386819050937891,0.02803878439590335
1772537097956286700,8.13428662109375,-0.05206161114871501,-0.03098550537228584,-0.0010633914478123188
1772537097966355000,8.14435498046875,-0.04492752148509025,-0.03873451206386089,-0.012618074032664298
1772537097976422000,8.154421875,-0.02315583465993404,-0.033738603472709655,-0.04537862625345587
1772537097986489900,8.16448974609375,-0.026742460975050925,-0.0695604429602623,-0.09997282461971044
1772537097996557800,8.174557861328125,-0.015842150645703077,-0.07635141827464104,-0.0886344151340425
1772537098006624800,8.184624755859375,0.02672083366513252,-0.014162380865216255,-0.03608940438255667
1772537098016693000,8.19469287109375,0.022079291469603777,0.00961421604156494,-0.008742840034514665
1772537098026760700,8.2047607421875,-0.017608721926808357,0.03310439722239971,-0.013017887005209922
1772537098036828000,8.214827880859374,-0.04032616516947746,0.06922726548314094,-0.020636837576329708
1772537098046895600,8.2248955078125,-0.060467620444297786,0.08135200304090977,0.0022679449319839475
1772537098056963600,8.234963623046875,-0.06818184808343648,0.11225742891430854,0.006924976957589387
1772537098067030800,8.24503076171875,-0.05513561176657676,0.11259177543520926,-0.01340484049618244
1772537098077098800,8.2550986328125,-0.03242956670075655,0.10615151325464248,-0.024335838224738834
1772537098087166000,8.265166015625,-0.012411153283715247,0.09325169967114925,-0.014828443558514117
1772537098097233700,8.275233642578126,-0.0481453144878149,0.0902384893298149,-0.04576368004828691
1772537098107301600,8.285301513671875,-0.06298018778711557,0.11348200227320193,-0.04095817946270108
1772537098117368600,8.29536865234375,-0.05264642529934645,0.1392243462949991,0.0011121990256011485
1772537098127436800,8.305436767578126,-0.06735723382756113,0.1404232006907463,0.046061347820609805
1772537098137504800,8.3155048828125,-0.10092340334281324,0.13549392759501933,0.019423808524757624
1772537098147571700,8.32557177734375,-0.09258987476155162,0.1379915896296501,0.017001403683423996
1772537098157639700,8.3356396484375,-0.0936895065665245,0.12169804195463657,0.0011889175236225128
1772537098167707600,8.345707763671875,-0.05536050656363368,0.08323767065703869,0.005940788225829601
1772537098177774600,8.355774658203124,-0.003876549172401428,0.05124912572205066,0.00632861849963665
1772537098187842800,8.3658427734375,0.005894464866071939,0.020382862815260885,-0.014122194985300303
1772537098197909800,8.37590966796875,-0.00431084893643856,-0.0015121581286191938,-0.03470189554691314
1772537098207977700,8.385977783203124,-0.018837971460819242,-0.0015682722300291061,-0.0025150515608489514
1772537098218045700,8.396045654296875,-0.056310793025791644,-0.01154313827753067,-0.030790421191602944
1772537098228112600,8.406112548828125,-0.11530395700335502,-0.03175298261344433,-0.07979074507355689
1772537098238180900,8.416180908203126,-0.12998013260960578,-0.049209144327044485,-0.10958777131363749
1772537098248248800,8.426248779296875,-0.11479366939365863,-0.09331307446956634,-0.07725728107318282
1772537098258315800,8.436315673828124,-0.07521919937431812,-0.08915653931200504,-0.04925239894688129
1772537098268383700,8.4463837890625,-0.019526245985925197,-0.06120587159097194,-0.006997019280493259
1772537098278451700,8.45645166015625,0.0011468319475650788,-0.04034486986994743,0.020897534339129924
1772537098288518700,8.4665185546875,-0.0022118308305740355,-0.01850304041802883,0.013586480673402547
1772537098298587000,8.4765869140625,-0.020246669214963913,-0.003849661165475845,-0.003927402576804161
1772537098308653800,8.48665380859375,-0.02941664862036705,0.029963761109113692,-0.003292757935076952
1772537098318721800,8.4967216796875,-0.03529284717738628,0.06183715523183345,-0.0022713059328496456
1772537098328789800,8.506789794921875,-0.05716375659331679,0.05544950002133846,-0.022065409074723718
1772537098338856700,8.516856689453125,-0.03649915422722697,0.062441550865769385,-0.028563100530952214
1772537098348925000,8.526925048828126,-0.02806114235818386,0.03555295941829681,-0.0421883057795465
1772537098358993000,8.536992919921875,-0.03448445340394973,0.0050339025139808655,-0.0518150890417397
1772537098369059800,8.547059814453124,0.011104308468848465,0.023693010276556015,-0.024060820675641297
1772537098379127800,8.5571279296875,0.03431128879413008,0.04792261164784431,0.04553191711902618
1772537098389195800,8.56719580078125,0.023462270260602235,0.09422785122692584,0.05458659958168864
1772537098399262700,8.5772626953125,-0.05247764460369944,0.09778700501322746,0.027605361414700744
1772537098409331000,8.5873310546875,-0.09982523284256457,0.11256722551584243,0.029879882217943667
1772537098419398000,8.59739794921875,-0.0924392142444849,0.14954115764796733,0.05115720965489745
1772537098429465900,8.6074658203125,-0.10167115297019481,0.10431085382401943,-0.004850947162508964
1772537098439533800,8.617533935546875,-0.09317571182548999,0.060898997598886485,-0.039542905837297436
1772537098449600800,8.627600830078125,-0.04853986676335335,0.0546329229414463,-0.041184243303537364
1772537098459669000,8.6376689453125,-0.029690643256157636,0.029944471886754035,-0.03441241108104586
1772537098469736700,8.64773681640625,-0.07325023738890886,0.012883446970582007,-0.060437517566978925
1772537098479804000,8.657803955078125,-0.06832987825199961,0.04898293435573577,-0.003559884438663721
1772537098489871600,8.66787158203125,-0.03539908403083682,0.09195639916360378,0.08924714020490646
1772537098499939600,8.677939697265625,-0.022900983116030692,0.1011573582291603,0.09657119948267937
1772537098510006800,8.6880068359375,-0.027399609709531068,0.0917068083167076,0.06921221404448151
1772537098520074800,8.69807470703125,-0.033793548530340195,0.08371522504091262,0.05525251614451408
1772537098530142000,8.708141845703125,-0.030525194384157656,0.07383797414898872,0.012921294762939213
1772537098540209700,8.718209716796874,-0.08781389253139495,0.023345219752192496,-0.07384484228119254
1772537098550277600,8.728277587890625,-0.08570961372852325,0.003325345030426979,-0.09149740334972739
1772537098560344600,8.738344482421875,-0.02852466821670532,0.03711713999509811,-0.04911708212941885
1772537098570412800,8.748412841796876,-0.033305180491507054,0.0360983183413744,-0.03565831948891282
1772537098580480800,8.758480712890625,0.0021469489008188246,0.05183364761173725,0.020015783068537712
1772537098590547700,8.768547607421874,0.05697217954397201,0.07565700626969336,0.09598273207023739
1772537098600615700,8.77861572265625,0.046640462882816786,0.05775953052937984,0.10385858001187444
1772537098610683600,8.78868359375,-0.03789630767405033,0.007545593073964118,0.0030232933439314365
1772537098620750600,8.79875048828125,-0.08373919043838977,-0.015668109253048897,-0.03814575239047408
1772537098630818800,8.80881884765625,-0.06020896950811147,-0.011384148323535919,-0.01473024388104677
1772537098640885800,8.8188857421875,-0.04345803345441818,-0.02110416282713413,-0.06119228145703673
1772537098650953700,8.82895361328125,-0.08907514463886618,-0.02871113069951534,-0.10195435382574797
1772537098661021700,8.839021728515625,-0.07176818213760852,-0.004959083712100983,-0.07231018005982041
1772537098671088600,8.849088623046875,-0.030002339553833007,0.0170534261316061,0.0013014379873871802
1772537098681156900,8.859156982421876,-0.02296747248098254,0.01567570803761482,0.027517829261720177
1772537098691224800,8.869224853515625,-0.024330723658204077,0.036976270219683645,0.06570128331407904
1772537098701291800,8.879291748046874,-0.00323401348516345,0.05570727417469024,0.08668591141477226
1772537098711359700,8.88935986328125,-0.043397243177890774,0.03117196785509586,0.035452275522798296
1772537098721427700,8.899427734375,-0.054074704536795616,0.025060206976532936,-0.0005139408715069294
1772537098731494700,8.90949462890625,-0.006574409954249859,0.04747369883656501,0.017485095547139645
1772537098741563000,8.91956298828125,0.007051818207651377,0.03395487657189369,0.020175211413949727
1772537098751629800,8.9296298828125,-0.019363895031064747,0.026031682357192037,-0.015710779350996018
1772537098761697800,8.93969775390625,-0.04531213688850402,0.03245323983728885,-0.05599018276929855
1772537098771765800,8.949765869140625,-0.04677110352516174,0.020907178950309753,-0.043494127681106325
1772537098781832700,8.959832763671875,-0.05741860813722014,0.020271803656220434,-0.012335749959945679
1772537098791901000,8.96990087890625,-0.058547466036677355,0.0342073900282383,0.0032173546113073823
1772537098801969000,8.979968994140625,-0.04922317285239696,0.04387596660554409,0.017180559642612933
1772537098812035800,8.990035888671875,-0.029578999575227496,0.04630816218852996,0.03347191536054015
1772537098822103800,9.000103759765626,-0.019357465290278195,0.07245557987987995,0.05207081736847758
1772537098832171800,9.010171875,0.025211013624072073,0.08695639891922473,0.07237111646682023
1772537098842238700,9.02023876953125,0.010835866791009903,0.07578267847597599,0.05024126385375857
1772537098852307000,9.030306884765626,-0.004548749345541,0.04752689032852649,0.017662644071131942
1772537098862374000,9.040373779296875,-0.010965630650520324,0.015896657311916352,-0.001324234341084957
1772537098872441900,9.05044189453125,0.002753828752785921,-0.029571546921133993,-0.05155132353901863
1772537098882509800,9.060509765625,0.01567643868997693,-0.046724341773986815,-0.06242708394899964
1772537098892576800,9.07057666015625,0.00150470547452569,-0.05656418326497078,-0.08549407128170132
1772537098902645000,9.08064501953125,0.007386895380914211,-0.0677607000619173,-0.07001987716555595
1772537098912712700,9.090712646484375,0.012411153283715247,-0.04795008417665958,-0.013258125501871108
1772537098922780000,9.10077978515625,0.01646831972002983,-0.025759879678487776,0.037884471105784176
1772537098932847600,9.11084765625,0.014570961666107177,0.0009627075523138045,0.0738465958468616
1772537098942915600,9.12091552734375,-0.008635141876339911,0.0071270754009485245,0.07383183666914701
1772537098952982800,9.130982666015624,-0.021066168904304503,0.019691957941651343,0.05037979554161429
1772537098963050800,9.14105078125,-0.010742343288660049,0.03032031946182251,0.06660714611262082
1772537098973118000,9.151117919921875,-0.037241935418546195,0.006167290458083153,0.02230140978768468
1772537098983185700,9.161185546875,-0.043348143339157104,-0.021534370937943456,-0.0075758420817553995
1772537098993253600,9.171253662109375,-0.011937106031179428,0.004715922605991363,0.01966857706606388
1772537099003320600,9.181320556640625,-0.016810557286441326,0.004456979408860206,0.03145063866600394
1772537099013388800,9.191388916015624,-0.06564677664786576,0.01044248355925083,-0.02616071556434035
1772537099023456800,9.201456787109375,-0.06704933692216873,0.003009118688106537,0.009181377582252025
1772537099033523700,9.211523681640625,-0.054541006874293085,0.023074586117267606,0.03679083065018057
1772537099043591700,9.221591796875,-0.0493868389815092,0.024897709891200066,0.030711364606022834
1772537099053659600,9.23165966796875,-0.007338672325015068,0.03938800753653049,0.046152094843983645
1772537099063726600,9.2417265625,-0.030114860017597674,0.029437691408395767,0.0679604604177177
1772537099073794800,9.251794921875,-0.0582365003913641,0.016004793861508368,-0.01859539487659931
1772537099083861800,9.26186181640625,-0.10122267855033278,0.018128946408629415,-0.060464113312959665
1772537099093929700,9.2719296875,-0.1012228246808052,0.029596681362390517,0.0019119711011648178
1772537099103997700,9.281997802734375,-0.06228007669374346,0.05805471408367156,0.008447071958333253
1772537099114064600,9.292064697265625,-0.08576134391576051,0.03033200989961624,-0.019566431865841147
1772537099124132900,9.3021328125,-0.04538213338479399,0.03302724033296108,-0.004683773902058601
1772537099134200800,9.312200927734375,0.0013720190055668353,0.042837855729460715,0.024534867928177117
1772537099144267800,9.322267822265625,0.022387188374996186,0.061277183261513705,0.018013795596361157
1772537099154335700,9.332335693359376,0.025843466308712957,0.03855681740939617,0.01308335345685482
1772537099164403700,9.34240380859375,0.019855624070763588,0.031902620217204095,0.029434184277057646
1772537099174470700,9.352470703125,0.020574585995078085,0.052819736039638514,0.029462387458235022
1772537099184539000,9.362538818359376,0.001701250959932804,0.07503799758851527,0.04250979281887412
1772537099194605800,9.372605712890625,-0.006803688665479421,0.05886486142277717,0.03488485089838505
1772537099204673800,9.382673828125,-0.020917408083379267,0.0683574969112873,0.002862695954740047
1772537099214741800,9.39274169921875,-0.019064765954017637,0.06258358968496322,0.0018440204314887523
1772537099224808700,9.40280859375,-0.010260112729668617,0.07019523373246192,-0.009506517883390188
1772537099234877000,9.412876953125,-0.05434066199660301,0.025058453410863876,-0.03691314185559749
1772537099244945000,9.42294482421875,-0.08288096617385744,0.015109306326508521,-0.040956718157976864
1772537099255011800,9.43301171875,-0.0693903470903635,0.03297580240666866,0.01931961749792099
1772537099265079800,9.443079833984376,-0.03437368650585413,0.040351884132623674,0.0490647674202919
1772537099275147800,9.453147705078125,-0.038487843826413154,0.03628945699930191,0.04307283352911472
1772537099285214700,9.463214599609374,-0.0772761319041252,0.02017886467576027,0.03271057559922337
1772537099295283000,9.473282958984376,-0.06711524176523088,0.03952069400548935,0.03884980900660157
1772537099305350000,9.483349853515625,-0.03502674358710647,0.07019114207923412,0.04498685045689344
1772537099315417900,9.49341796875,-0.06272972015738487,0.07481412570476531,0.00841039320975542
1772537099325485800,9.50348583984375,-0.08623977508246898,0.05279109446704387,-0.02174845208004117
1772537099335552800,9.513552734375,-0.045671033328771586,0.05880582471191883,-0.003830664204061031
1772537099345621000,9.52362109375,-0.026909634235501287,0.03497662083506584,0.013299480425566433
1772537099355688700,9.533688720703125,-0.03787731071263552,0.0063648588567972175,0.04546279740557074
1772537099365756000,9.543755859375,-0.04257452861815691,0.007713350856304168,0.05560922062769532
1772537099375823600,9.55382373046875,-0.07775923924595117,-0.0017290157496929167,0.018665975894778968
1772537099385891600,9.5638916015625,-0.10276713151335716,-0.004486205503344535,-0.03530117661431432
1772537099395958800,9.573958740234374,-0.07885287970155477,-0.005353635987639427,0.007443155612796544
1772537099406026800,9.58402685546875,-0.007785247048735618,0.03759177176952362,0.044386108084768054
1772537099416094000,9.594093994140625,0.010032149192690848,0.05021978267431259,0.04496683058217168
1772537099426161700,9.60416162109375,-0.04524433234930038,0.005843465331196784,-0.03734977970719337
1772537099436229600,9.614229736328125,-0.05439589931517839,0.004810030630230903,-0.013940847069025038
1772537099446296600,9.624296630859375,-0.020079203693568706,0.01649403868317604,-0.005172288071364164
1772537099456364800,9.63436474609375,-0.0263764041416347,0.008138298270106314,0.003982055373489856
1772537099466432800,9.644432861328125,-0.017093027489632366,0.0016577040791511534,0.0169575645416975
1772537099476499700,9.654499755859375,-0.009745733466744422,0.016390578308701515,0.011894289802759885
1772537099486567700,9.664567626953126,0.006246347043663263,0.03191080352365971,0.011601298205554484
1772537099496634600,9.674634521484375,-0.0007207154899835586,0.03458499116897583,-0.019542612598836422
1772537099506702600,9.68470263671875,0.014309095859527587,0.02995207067131996,-0.012060440149903297
1772537099516770800,9.694770751953126,0.05656798265725374,0.027748423147201537,0.006060176821798086
1772537099526837800,9.704837646484375,0.059141048015654084,-0.016037527087330816,0.003192220170050859
1772537099536905700,9.71490576171875,0.04080079694390297,-0.024305589216947553,-0.03550678218901157
1772537099546973700,9.7249736328125,-0.03858867385238409,-0.0363420639693737,-0.07551905910372733
1772537099557040600,9.73504052734375,-0.10176569938585162,-0.03225742500424385,-0.0825930891431868
1772537099567108900,9.74510888671875,-0.12696093091890215,-0.02233984210193157,-0.07490428820624948
1772537099577177900,9.755177734375,-0.10863383158966898,0.0008458031743764876,-0.0378258727863431
1772537099587245800,9.765245849609375,-0.06973989118039607,0.04083119208216667,-0.00517374937608838
1772537099597312800,9.775312744140624,-0.021704320677369833,0.044106268230080604,0.026401830843836068
1772537099607381000,9.785381103515626,0.014683482129871844,0.04118190521597862,0.06891571531593799
1772537099617448700,9.79544873046875,0.04008548828139901,0.05840484269559383,0.07229147535935043
1772537099627516000,9.805515869140624,0.0016559505134820937,0.058030748686194414,0.04932487966120243
1772537099637583600,9.81558349609375,-0.0143172791659832,0.06990355730950831,0.032760406090319154
1772537099647650800,9.82565087890625,-0.013528759136795996,0.0779652832120657,-0.003651508244872093
1772537099657718800,9.83571875,-0.04540960591360926,0.04225567192733288,-0.04206394874751568
1772537099667786800,9.845786865234375,-0.03350888637006283,0.046774026134610173,-0.04640504669174551
1772537099677853700,9.855853759765624,-0.020485154145956037,0.037920857593417165,-0.017234189525991678
1772537099687921700,9.865921630859376,0.0018447510838508604,0.06287292802035808,0.0033300212055444715
1772537099697989600,9.87598974609375,0.007546177595853805,0.08437573477625847,0.0429201271854341
1772537099708056600,9.886056640625,-0.03103679716810584,0.08640344121158122,0.04616290849894285
1772537099718124800,9.896124755859375,-0.04763473461717367,0.08882511540055274,0.04781184474974871
1772537099728192800,9.90619287109375,-0.01839987230449915,0.10719897648096084,0.08893851264715194
1772537099738259700,9.916259765625,0.0048483168140053745,0.11338555616140365,0.11426394643113016
1772537099748327700,9.92632763671875,-0.018549509908258915,0.11510112790763377,0.060832800494879484
1772537099758394600,9.93639453125,-0.03806874163150787,0.06941080535650253,0.010836889704316854
1772537099768462600,9.946462646484376,-0.04099705016836524,0.039380408751964566,0.013738017973303793
1772537099778530800,9.95653076171875,-0.02686170344054699,0.03537818737328052,-0.03538213289603591
1772537099788597800,9.96659765625,-0.09815613058656454,-0.014313187512755393,-0.11449746292605996
1772537099798666000,9.976666015625,-0.10774711188301443,-0.033683658415079115,-0.0943476782143116
1772537099808734000,9.98673388671875,-0.08854337584972381,-0.01943593735396862,-0.01523614757657051
1772537099818801000,9.99680078125,-0.09062982673496008,-0.024871406406164167,-0.011000117442011832
1772537099828869000,10.006869140625,-0.08128697498068213,-0.04859364277720451,-0.02922755578905344
1772537099838937000,10.01693701171875,-0.046507484152913094,-0.0568202038526535,0.003739040397852659
1772537099849004000,10.027004150390624,-0.017651976546645163,-0.03307809373736381,0.01703632886633277
1772537099859072000,10.037072021484375,-0.019354104289412498,-0.05053893162608147,0.008432166650146245
1772537099869139000,10.047138916015625,-0.015841127732396126,-0.04955108963251113,-0.008260901736468077
1772537099879207200,10.057207275390626,-0.04793254851996898,-0.07163257305920123,-0.0310655848711729
1772537099889275100,10.067275146484375,-0.03491232342720031,-0.051802083429694175,-0.029445874714851376
1772537099899342000,10.077342041015624,0.0001999064862728119,-0.02112637465894222,0.03360577087327838
1772537099909410000,10.08741015625,0.04278656393364071,-0.002111293065547943,0.08284794068709016
1772537099919478000,10.09747802734375,0.062063365203142165,0.0190881468296051,0.0663889733172953
1772537099929545000,10.107544921875,0.025762217766046522,0.0070125091105699535,0.0410967111505568
1772537099939613200,10.11761328125,0.013524667483568191,0.030532500907778738,0.02340747133344412
1772537099949681200,10.12768115234375,0.008356909456849098,0.04593757531046867,0.026646599385142324
1772537099959748000,10.137748046875,0.018733926564455033,0.08620528829097747,0.05530848411545157
1772537099969816000,10.147816162109375,-0.04092676141113043,0.14138766180872916,0.11706366015225649
1772537099979883000,10.157883056640625,-0.02531359721571207,0.20392858139574527,0.14222659685090183
1772537099989951200,10.167951171875,0.06633972734808921,0.08444529288113117,0.03361585387587547
1772537100000019200,10.178019287109375,0.07263064418584107,-0.03495090187191963,-0.1227123335637152
1772537100010086100,10.188086181640625,0.035167174971103665,-0.06069558398127556,-0.16290055156722663
1772537100020154000,10.198154052734376,-0.0683750325679779,-0.08278291262686252,-0.10806713761761784
1772537100030221800,10.208221923828125,-0.13138561549335717,0.0040951603591442105,-0.01066518639922142
1772537100040289000,10.2182890625,-0.1335702660560608,0.06633855830430985,0.03663096391335129
1772537100050357000,10.22835693359375,-0.09424480236172676,0.08155541665852069,0.025465719037503002
1772537100060425000,10.238425048828125,-0.13866378980278968,0.08441431322097778,0.012397124758362769
1772537100070492000,10.248491943359374,-0.11738543945252895,0.0672165101826191,-0.025016806226223706
1772537100080559900,10.258559814453125,-0.05233458287119865,0.08899111961722374,-0.02157002677321434
1772537100090627000,10.268626953125,-0.05762260627672076,0.0730593909919262,0.02390036941692233
1772537100100695000,10.278695068359376,-0.019970190361142157,0.10615443586409092,0.03424538395106792
