time,seconds_elapsed,z,y,x
1772537089882044700,0.060044677734375,-0.004536313004791737,0.09520231187343597,-0.07532141357660294
1772537089892112400,0.0701123046875,0.036299265921115875,0.0859837755560875,-0.031095366925001144
1772537089902180400,0.080180419921875,0.04457554221153259,0.052018582820892334,-0.006285008508712053
1772537089912247300,0.090247314453125,0.06482674926519394,0.027906320989131927,0.030315613374114037
1772537089922315300,0.100315185546875,0.07371727377176285,0.00699688121676445,0.063118577003479
1772537089932382500,0.110382568359375,0.07154785841703415,-0.006142889149487019,0.07940487563610077
1772537089942450400,0.120450439453125,0.06431474536657333,-0.0046275160275399685,0.08015473932027817
1772537089952518400,0.130518310546875,0.05056777596473694,0.00717374961823225,0.05328371003270149
1772537089962585300,0.14058544921875,0.04162546992301941,0.031680185347795486,0.014907880686223507
1772537089972653300,0.1506533203125,0.03304503113031387,0.056341059505939484,-0.029547199606895447
1772537089982721300,0.16072119140625,0.02372320182621479,0.07759448885917664,-0.0713450238108635
1772537089992788500,0.17078857421875,0.01324872300028801,0.09124425053596497,-0.10487449169158936
1772537090002856400,0.1808564453125,0.002191720763221383,0.08693329244852066,-0.12652254104614258
1772537090012924400,0.19092431640625,-0.007625224068760872,0.055077891796827316,-0.128153994679451
1772537090022991400,0.200991455078125,-0.014352931641042233,0.011086164973676205,-0.11130489408969879
1772537090033059300,0.211059326171875,-0.01562805287539959,-0.020759383216500282,-0.0808713510632515
1772537090043126300,0.221126220703125,-0.01783616840839386,-0.02152940444648266,-0.05570635572075844
1772537090053194500,0.231194580078125,-0.00948023609817028,-0.012783583253622055,-0.03749486058950424
1772537090063262500,0.241262451171875,0.0050520217046141624,-0.016983674839138985,-0.03599144145846367
1772537090073329400,0.251329345703125,0.007135146297514439,-0.011222993023693562,-0.037235137075185776
1772537090083397400,0.2613974609375,-0.01486501470208168,-0.00363913644105196,-0.04213808476924896
1772537090093465300,0.27146533203125,-0.029891103506088257,-0.0036601750180125237,-0.05981507897377014
1772537090103532500,0.281532470703125,-0.036231629550457,0.007934239692986012,-0.0822172686457634
1772537090113600500,0.2916005859375,-0.03823379427194595,0.016597768291831017,-0.10071851313114166
1772537090123668500,0.30166845703125,-0.041618820279836655,0.02202911674976349,-0.10203608870506287
1772537090133735400,0.3117353515625,-0.03971359506249428,0.018824268132448196,-0.0914473608136177
1772537090143803400,0.321803466796875,-0.03181459754705429,0.003939210437238216,-0.07353343069553375
1772537090153870300,0.331870361328125,-0.018606381490826607,0.0061879837885499,-0.05776618421077728
1772537090163938600,0.3419384765625,-0.004452388733625412,0.012135989964008331,-0.045170221477746964
1772537090174006500,0.352006591796875,0.0034313672222197056,0.012101901695132256,-0.02800854481756687
1772537090184073500,0.362073486328125,0.019351357594132423,0.00416021840646863,-0.025691788643598557
1772537090194141400,0.372141357421875,0.027043631300330162,-0.0005439892411231995,-0.021157223731279373
1772537090204209400,0.38220947265625,0.022013269364833832,-0.0070420801639556885,-0.008405276574194431
1772537090214276600,0.392276611328125,0.02236134372651577,-0.007914265617728233,-0.0002607970964163542
1772537090224344600,0.402344482421875,0.031846556812524796,0.0012660995125770569,-0.0005840141093358397
1772537090234412500,0.41241259765625,0.03891964629292488,0.0025241768453270197,-0.006589176133275032
1772537090244479500,0.4224794921875,0.041458193212747574,0.0011107908794656396,-0.008799227885901928
1772537090254547500,0.43254736328125,0.036832015961408615,-0.006761780008673668,-0.017482198774814606
1772537090264614400,0.442614501953125,0.0281425341963768,-0.01739352196455002,-0.024753089994192123
1772537090274682600,0.4526826171875,0.026715612038969994,-0.013576945289969444,-0.03201286867260933
1772537090284750300,0.462750244140625,0.019286340102553368,0.009335198439657688,-0.04058094322681427
1772537090294817500,0.472817626953125,0.021195027977228165,0.029441531747579575,-0.04461216926574707
1772537090304885500,0.482885498046875,0.02212001569569111,0.02641606330871582,-0.04947839304804802
1772537090314953200,0.492953125,0.025898775085806847,0.007948107086122036,-0.04365219548344612
1772537090325020700,0.503020751953125,0.02228526771068573,-0.015541722998023033,-0.032126568257808685
1772537090335088400,0.51308837890625,0.023931633681058884,-0.03298383206129074,-0.013285504654049873
1772537090345156400,0.52315625,0.03533002361655235,-0.0342424139380455,-0.008342621847987175
1772537090355223300,0.533223388671875,0.04006991535425186,-0.03308127447962761,-0.0052980962209403515
1772537090365291300,0.543291259765625,0.04636222869157791,-0.029253404587507248,-0.0060439081862568855
1772537090375358500,0.5533583984375,0.056192487478256226,-0.03794276714324951,-0.008799746632575989
1772537090385426400,0.563426513671875,0.05454375594854355,-0.04886968061327934,-0.01929641328752041
1772537090395494400,0.573494384765625,0.048445381224155426,-0.05842510610818863,-0.019092682749032974
1772537090405561300,0.583561279296875,0.04229129105806351,-0.06163344532251358,-0.022913845255970955
1772537090415629300,0.59362939453125,0.04433819651603699,-0.047102171927690506,-0.03195607662200928
1772537090425697300,0.603697265625,0.04393251612782478,-0.028718698769807816,-0.050712697207927704
1772537090435764500,0.613764404296875,0.037313226610422134,-0.019849305972456932,-0.05243948847055435
1772537090445832400,0.62383251953125,0.03449272736907005,-0.01625138893723488,-0.05855195224285126
1772537090455900400,0.633900390625,0.027678759768605232,-0.023682139813899994,-0.053779568523168564
1772537090465967400,0.64396728515625,0.0214344821870327,-0.02480458840727806,-0.053238727152347565
1772537090476035300,0.654035400390625,0.02324862778186798,-0.029002796858549118,-0.05770218372344971
1772537090486102300,0.664102294921875,0.022379577159881592,-0.04002328962087631,-0.058593910187482834
1772537090496170500,0.67417041015625,0.01906234212219715,-0.04650276154279709,-0.056438080966472626
1772537090506238500,0.684238525390625,0.01629936881363392,-0.043636903166770935,-0.05177775397896767
1772537090516305400,0.694305419921875,0.015852756798267365,-0.03134109079837799,-0.049773991107940674
1772537090526373400,0.704373291015625,0.018207328394055367,-0.02182067185640335,-0.051701683551073074
1772537090536441300,0.71444140625,0.012524675577878952,-0.019068295136094093,-0.046110909432172775
1772537090546508500,0.724508544921875,0.010442514903843403,-0.02256019040942192,-0.03707573190331459
1772537090556576500,0.734576416015625,0.011635344475507736,-0.022102924063801765,-0.029577337205410004
1772537090566643500,0.7446435546875,0.015879394486546516,-0.02292439714074135,-0.027982905507087708
1772537090576711400,0.75471142578125,0.015913749113678932,-0.029702141880989075,-0.016172053292393684
1772537090586779400,0.764779296875,0.005405713804066181,-0.042693573981523514,-0.007036078721284866
1772537090596846300,0.774846435546875,-0.007283450104296207,-0.06309418380260468,-0.0035076565109193325
1772537090606914600,0.78491455078125,-0.02206854708492756,-0.07825449109077454,-0.00009442842565476894
1772537090616982500,0.794982421875,-0.035049859434366226,-0.07407359033823013,-0.009038655087351799
1772537090627049500,0.805049560546875,-0.042155712842941284,-0.055461637675762177,-0.021552657708525658
1772537090637117400,0.815117431640625,-0.04798617213964462,-0.036140672862529755,-0.03010166995227337
1772537090647185400,0.825185302734375,-0.04898151010274887,-0.022527487948536873,-0.03873686119914055
1772537090657252600,0.835252685546875,-0.03844418376684189,-0.020902426913380623,-0.04265916347503662
1772537090667320600,0.845320556640625,-0.036869872361421585,-0.008942914195358753,-0.043192215263843536
1772537090677387500,0.855387451171875,-0.034576889127492905,0.004210704006254673,-0.030253781005740166
1772537090687455500,0.86545556640625,-0.0333721861243248,0.010841161012649536,-0.010303317569196224
1772537090697523500,0.8755234375,-0.022892383858561516,0.004876213148236275,0.003664696356281638
1772537090707590400,0.88559033203125,-0.011341089382767677,-0.007365663535892963,0.012082194909453392
1772537090717658600,0.89565869140625,-0.0011571618961170316,-0.02284555323421955,0.014943495392799377
1772537090727726300,0.905726318359375,0.004529679659754038,-0.0382600761950016,0.005992709659039974
1772537090737793500,0.91579345703125,0.00021349475719034672,-0.04083855077624321,0.0007215151563286781
1772537090747861500,0.925861572265625,-0.007344265002757311,-0.03884362429380417,-0.0048119015991687775
1772537090757929200,0.93592919921875,-0.007833221927285194,-0.03843402862548828,-0.010795225389301777
1772537090767996700,0.94599658203125,0.0017911812756210566,-0.04616696760058403,-0.01600215584039688
1772537090778064400,0.956064453125,0.0043528759852051735,-0.04159245640039444,-0.01641201600432396
1772537090788131600,0.966131591796875,0.003939413465559483,-0.029869312420487404,-0.012416246347129345
1772537090798199800,0.97619970703125,0.002473609521985054,-0.02015490084886551,-0.007071281783282757
1772537090808267800,0.986267822265625,0.011356392875313759,-0.021907012909650803,-0.014058452099561691
1772537090818334700,0.996334716796875,0.0054745362140238285,-0.033712539821863174,-0.015351150184869766
1772537090828402700,1.006402587890625,-0.010631579905748367,-0.03571932762861252,-0.0003617029869928956
1772537090838470700,1.016470703125,-0.021202998235821724,-0.028780195862054825,-0.006246756296604872
1772537090848537900,1.026537841796875,-0.01566885970532894,-0.01952667161822319,-0.016287125647068024
1772537090858605800,1.036605712890625,-0.009030397981405258,-0.016355646774172783,-0.03598732873797417
1772537090868673800,1.046673828125,-0.008181768469512463,-0.013429234735667706,-0.04847908020019531
1772537090878740700,1.05674072265625,-0.005593175068497658,-0.008321825414896011,-0.04910225793719292
1772537090888808700,1.06680859375,-0.0008314455044455826,-0.012067068368196487,-0.04734594747424126
1772537090898875600,1.076875732421875,-0.0016373180551454425,-0.03326024115085602,-0.026823628693819046
1772537090908944000,1.08694384765625,-0.01634468510746956,-0.036955177783966064,0.002632432384416461
1772537090919011800,1.09701171875,-0.030887940898537636,-0.024697978049516678,0.01683560200035572
1772537090929078800,1.107078857421875,-0.02994472160935402,-0.020255232229828835,0.012892136350274086
1772537090939146800,1.117146728515625,-0.02609565481543541,-0.01704292744398117,0.0026970228645950556
1772537090949214700,1.127214599609375,-0.026493070647120476,-0.004922764375805855,-0.010197107680141926
1772537090959282000,1.137281982421875,-0.02706431783735752,0.006169833708554506,-0.012948419898748398
1772537090969350000,1.147349853515625,-0.04716789722442627,0.009295954369008541,-0.013877583667635918
1772537090979417900,1.15741796875,-0.05622424557805061,0.01563960313796997,-0.01322830468416214
1772537090989484800,1.16748486328125,-0.05203345790505409,0.01829005591571331,-0.0167197547852993
1772537090999552800,1.177552734375,-0.034248337149620056,0.016467921435832977,-0.02946404740214348
1772537091009619700,1.18761962890625,-0.025890307500958443,0.009819265455007553,-0.023229805752635002
1772537091019688000,1.19768798828125,-0.017077108845114708,-0.0033908120822161436,-0.0048225694335997105
1772537091029756000,1.207755859375,-0.014151607640087605,-0.005505507346242666,0.014883860945701599
1772537091039822800,1.21782275390625,-0.006961870938539505,0.00009192456491291523,0.024371372535824776
1772537091049890800,1.227890869140625,-0.0015892591327428818,0.004097696393728256,0.029629763215780258
1772537091059959000,1.237958984375,-0.004240169655531645,0.00568653829395771,0.036346256732940674
1772537091070026000,1.24802587890625,-0.008109587244689465,0.007025786675512791,0.035093385726213455
1772537091080094000,1.258093994140625,-0.003587539540603757,0.008394651114940643,0.011587527580559254
1772537091090161000,1.268160888671875,0.001958101522177458,0.011140460148453712,-0.014551895670592785
1772537091100228900,1.278228759765625,-0.008047394454479218,0.012910663150250912,-0.02640828862786293
1772537091110296800,1.288296875,-0.004147641360759735,0.018660489469766617,-0.032229986041784286
1772537091120363800,1.29836376953125,0.0009022445883601904,0.019355308264493942,-0.03495066985487938
1772537091130432000,1.308431884765625,0.004968277178704739,0.016302239149808884,-0.03282806649804115
1772537091140499700,1.318499755859375,-0.001254997681826353,0.016319816932082176,-0.02335626818239689
1772537091150567000,1.32856689453125,-0.005509094335138798,0.018675457686185837,-0.017192166298627853
1772537091160635000,1.338634765625,-0.0017316666198894382,0.024755986407399178,-0.019121892750263214
1772537091170702800,1.348702880859375,0.0030923224985599518,0.031606897711753845,-0.02469784952700138
1772537091180770000,1.35877001953125,0.010312418453395367,0.03441067412495613,-0.036513496190309525
1772537091190837800,1.368837646484375,0.023050125688314438,0.03505030646920204,-0.04213370755314827
1772537091200905000,1.378905029296875,0.03291234374046326,0.028040334582328796,-0.03629685565829277
1772537091210972700,1.38897265625,0.03791145607829094,0.014571007341146469,-0.0129592539742589
1772537091221040600,1.39904052734375,0.03411725163459778,0.0019960938952863216,0.011666996404528618
1772537091231107600,1.409107666015625,0.02352115511894226,0.0024824892170727253,0.03548658639192581
1772537091241175800,1.41917578125,0.014216335490345955,0.010670644231140614,0.05027725175023079
1772537091251243800,1.429243896484375,0.014311088249087334,0.026836004108190536,0.04231247678399086
1772537091261310700,1.439310791015625,0.015306845307350159,0.03841755911707878,0.026635780930519104
1772537091271378700,1.449378662109375,0.014133728109300137,0.047138653695583344,0.015138682909309864
1772537091281447000,1.459447021484375,0.0016030221013352275,0.04464886337518692,0.011051262728869915
1772537091291513900,1.469513916015625,-0.009664084762334824,0.03609167039394379,0.012173838913440704
1772537091301581800,1.479581787109375,-0.01427827775478363,0.04079854115843773,0.011525891721248627
1772537091311648800,1.489648681640625,-0.0061267828568816185,0.04846006631851196,0.0036179558373987675
1772537091321716700,1.499716796875,0.006457984913140535,0.04296596348285675,-0.005652241408824921
1772537091331784700,1.50978466796875,0.024608135223388672,0.03554656356573105,-0.008515952154994011
1772537091341851600,1.5198515625,0.03571112081408501,0.02424250915646553,-0.0016023857751861215
1772537091351919900,1.529919921875,0.044837333261966705,0.012620309367775917,0.0055135940201580524
1772537091361987800,1.53998779296875,0.044778209179639816,0.0013095989124849439,0.01642856001853943
1772537091372054800,1.5500546875,0.03279528394341469,-0.0011119015980511904,0.028736576437950134
1772537091382122800,1.560122802734375,0.0186014361679554,-0.005474958568811417,0.03670049458742142
1772537091392189700,1.570189697265625,0.009188649244606495,-0.01162679586559534,0.035093024373054504
1772537091402258000,1.5802578125,0.007527369074523449,-0.00878946390002966,0.0147858876734972
1772537091412326000,1.590325927734375,0.0009073985274881124,-0.0036681091878563166,-0.0053788782097399235
1772537091422392800,1.600392822265625,-0.00941714458167553,0.006191978231072426,-0.018072834238409996
1772537091432460800,1.610460693359375,-0.020991599187254906,0.01480400562286377,-0.02588842622935772
1772537091442528800,1.62052880859375,-0.02270214818418026,0.01414700411260128,-0.029156658798456192
1772537091452595700,1.630595703125,-0.011069081723690033,0.008507510647177696,-0.022758610546588898
1772537091462664000,1.640663818359375,-0.003212489653378725,0.0029630751814693213,-0.011533651500940323
1772537091472732000,1.65073193359375,0.0021293775644153357,-0.007875233888626099,-0.004101965110749006
1772537091482798800,1.660798828125,0.008824298158288002,-0.016928384080529213,0.010221846401691437
1772537091492866800,1.67086669921875,0.014871926046907902,-0.020019644871354103,0.018929511308670044
1772537091502933800,1.680933837890625,0.012113689444959164,-0.018823087215423584,0.02077960968017578
1772537091513002000,1.691001953125,0.010835839435458183,-0.006956150289624929,0.022750215604901314
1772537091523070000,1.701070068359375,0.008793726563453674,0.0032219188287854195,0.019671602174639702
1772537091533137000,1.711136962890625,0.006809611804783344,0.014687557704746723,0.009516337886452675
1772537091543204900,1.721204833984375,0.00536804273724556,0.011756216175854206,-0.0011898356024175882
1772537091553272800,1.73127294921875,0.00496590556576848,0.005356374196708202,-0.007732689846307039
1772537091563339800,1.74133984375,0.0029831822030246258,-0.007057152688503265,-0.009384915232658386
1772537091573408000,1.751407958984375,0.00026960158720612526,-0.016046181321144104,-0.0063494183123111725
1772537091583475700,1.761475830078125,-0.000927489367313683,-0.016407571732997894,-0.0022121979855000973
1772537091593543000,1.77154296875,0.004197403788566589,-0.011019873432815075,0.0005361326038837433
1772537091603611000,1.78161083984375,0.009635578840970993,-0.008223820477724075,-0.003911878913640976
1772537091613677800,1.791677734375,0.013681099750101566,-0.005857132375240326,-0.007394734770059586
1772537091623745800,1.801745849609375,0.015557562932372093,-0.0019332303199917078,-0.011955130845308304
1772537091633813800,1.811813720703125,0.01714371144771576,0.009612870402634144,-0.01145623717457056
1772537091643881000,1.821880859375,0.02359628491103649,0.01647903211414814,-0.021098211407661438
1772537091653948700,1.83194873046875,0.02385784313082695,0.02003522589802742,-0.026735372841358185
1772537091664016600,1.8420166015625,0.020439941436052322,0.0037148422561585903,-0.015273925848305225
1772537091674083600,1.85208349609375,0.01847626455128193,-0.007239755243062973,-0.0101097971200943
1772537091684151800,1.86215185546875,0.007643058430403471,-0.009080265648663044,-0.0005455870414152741
1772537091694218800,1.87221875,-0.005059171933680773,0.004653742536902428,0.0033164634369313717
1772537091704286700,1.88228662109375,-0.009444599971175194,0.023051925003528595,0.0049061039462685585
1772537091714354700,1.892354736328125,-0.006125863641500473,0.03223276510834694,0.0048456015065312386
1772537091724421600,1.902421630859375,-0.009763475507497787,0.03506237268447876,0.01692037284374237
1772537091734489900,1.91248974609375,-0.013630585744976997,0.042099084705114365,0.024066034704446793
1772537091744557800,1.922557861328125,-0.013991444371640682,0.04966912046074867,0.03203288093209267
1772537091754624800,1.932624755859375,-0.00561151746660471,0.05636616423726082,0.03024578094482422
1772537091764692700,1.942692626953125,-0.0013427363010123372,0.0550532266497612,0.030177336186170578
1772537091774760700,1.9527607421875,0.005895258858799934,0.04542193189263344,0.03304029256105423
1772537091784827600,1.96282763671875,0.004975403193384409,0.031261637806892395,0.029569929465651512
1772537091794896000,1.972895751953125,0.00030652538407593966,0.024569811299443245,0.036479752510786057
1772537091804962800,1.982962890625,0.00919642299413681,0.02039051242172718,0.024203112348914146
1772537091815031000,1.993031005859375,0.012437991797924042,0.02681664749979973,0.013871153816580772
1772537091825099000,2.00309912109375,0.009730888530611992,0.03659284487366676,0.013062618672847748
1772537091835166000,2.013166015625,0.004621981643140316,0.03925409913063049,0.015717122703790665
1772537091845234000,2.02323388671875,0.0047543407417833805,0.036913979798555374,0.011126364581286907
1772537091855302000,2.033302001953125,0.010734722018241882,0.036201994866132736,0.00661458820104599
1772537091865368800,2.043368896484375,0.01595212146639824,0.03117367997765541,0.0014192932285368443
1772537091875437000,2.05343701171875,0.021393993869423866,0.021128734573721886,-0.0036246497184038162
1772537091885504000,2.06350390625,0.025485675781965256,0.012243097648024559,-0.0035644620656967163
1772537091895572000,2.073572021484375,0.033881619572639465,0.006988523527979851,-0.009004095569252968
1772537091905640000,2.083639892578125,0.04306899383664131,-0.004273984581232071,-0.011160191148519516
1772537091915707000,2.093706787109375,0.0471854992210865,-0.010435405187308788,-0.0074644251726567745
1772537091925775000,2.103775146484375,0.05085773393511772,-0.006129872985184193,-0.0032656854018568993
1772537091935843000,2.113843017578125,0.05153400078415871,0.006825708784162998,-0.0012874763924628496
1772537091945910000,2.123909912109375,0.050309743732213974,0.02323717251420021,-0.00768998172134161
1772537091955978000,2.13397802734375,0.04325695335865021,0.035991717129945755,-0.009366301819682121
1772537091966046000,2.1440458984375,0.04109952598810196,0.03486946225166321,-0.009452855214476585
1772537091976113000,2.15411279296875,0.03368087857961655,0.02520754374563694,-0.003018810413777828
1772537091986181000,2.16418115234375,0.024594437330961227,0.01948760636150837,0.001888063969090581
1772537091996248000,2.174248046875,0.021778859198093414,0.020228968933224678,0.005370439030230045
1772537092006316000,2.18431591796875,0.027366969734430313,0.013183841481804848,-0.00016387621872127056
1772537092016384000,2.194384033203125,0.014316118322312832,0.012861032038927078,0.006503964774310589
1772537092026451000,2.204450927734375,-0.005827765911817551,0.026487627997994423,0.018314551562070847
1772537092036519200,2.214519287109375,-0.002018991392105818,0.04686424881219864,0.010227921418845654
1772537092046587000,2.2245869140625,0.013947724364697933,0.0418228842318058,-0.0038870989810675383
1772537092056654000,2.234654052734375,0.017736438661813736,0.03181896358728409,-0.0022979469504207373
1772537092066721800,2.2447216796875,0.01274168025702238,0.031062625348567963,0.01196487806737423
1772537092076789800,2.254789794921875,0.014633778482675552,0.02868231013417244,0.015157579444348812
1772537092086857000,2.26485693359375,0.018386704847216606,0.01520884782075882,0.016293151304125786
1772537092096925000,2.274925048828125,0.011742779985070229,0.0006966604851186275,0.02632656879723072
1772537092106992000,2.2849921875,-0.004320076201111078,0.006375052500516176,0.028994791209697723
1772537092117059800,2.295059814453125,-0.011019628494977951,0.01621977612376213,0.01258963905274868
1772537092127127800,2.3051279296875,-0.013715013861656189,0.022396180778741837,-0.0018553466070443392
1772537092137194800,2.31519482421875,-0.01395384594798088,0.02851504646241665,-0.018328845500946045
1772537092147263000,2.325262939453125,-0.015454803593456745,0.026305953040719032,-0.023500170558691025
1772537092157331000,2.3353310546875,-0.0060730427503585815,0.0174480602145195,-0.020491700619459152
1772537092167398000,2.34539794921875,0.002382759703323245,0.0016693640500307083,-0.012001808732748032
1772537092177465900,2.3554658203125,0.008169062435626984,-0.009854944422841072,0.0003408954944461584
1772537092187532800,2.36553271484375,0.012998173013329506,-0.007340388838201761,0.012460941448807716
1772537092197600800,2.375600830078125,0.018052000552415848,-0.010864803567528725,0.013191694393754005
1772537092207669000,2.3856689453125,0.015860753133893013,-0.003945911303162575,0.021444031968712807
1772537092217736000,2.39573583984375,0.015197590924799442,0.0022549189161509275,0.012845262885093689
1772537092227804000,2.405803955078125,0.013811415061354637,-0.00497236754745245,0.007308284752070904
1772537092237871900,2.415871826171875,0.005554464180022478,-0.002174246357753873,0.004250735975801945
1772537092247938800,2.425938720703125,0.00949221383780241,-0.01003350131213665,-0.009077586233615875
1772537092258007000,2.436007080078125,0.016986506059765816,-0.016139918938279152,-0.01927575096487999
1772537092268075000,2.446074951171875,0.014594987034797668,-0.010801877826452255,-0.024896882474422455
1772537092278142000,2.456141845703125,0.012463090009987354,-0.004508636891841888,-0.020102346315979958
1772537092288210000,2.4662099609375,0.01117039192467928,-0.002478775568306446,-0.023762328550219536
1772537092298276900,2.47627685546875,0.006855247542262077,-0.009365970268845558,-0.018759459257125854
1772537092308344800,2.4863447265625,0.000053268042393028736,-0.013341537676751614,-0.010941483080387115
1772537092318413000,2.4964130859375,0.001847888226620853,-0.002475102199241519,-0.004700076766312122
1772537092328480000,2.50647998046875,0.012688018381595612,0.005807594861835241,-0.0039037917740643024
1772537092338548000,2.5165478515625,0.014984478242695332,0.003615726251155138,0.0038729754742234945
1772537092348616000,2.526615966796875,0.015624170191586018,-0.0006996600423008204,0.013955436646938324
1772537092358683000,2.536682861328125,0.02222055196762085,-0.000031739240512251854,0.01645161770284176
1772537092368751000,2.546751220703125,0.02528531849384308,0.001981610432267189,0.006971829570829868
1772537092378818000,2.556818115234375,0.02363860048353672,-0.002916803350672126,0.006928181275725365
1772537092388886000,2.566885986328125,0.014600098133087158,-0.010254078544676304,0.008824883960187435
1772537092398954000,2.5769541015625,0.010828935541212559,-0.013878116384148598,0.00823608785867691
1772537092409021000,2.58702099609375,0.00644270982593298,-0.019595656543970108,0.006594515405595303
1772537092419089000,2.5970888671875,0.005543747451156378,-0.012543678283691406,0.0028023270424455404
1772537092429157000,2.6071572265625,0.0077437846921384335,-0.005399748682975769,-0.005898219533264637
1772537092439224000,2.61722412109375,0.0029687457717955112,-0.00004907161928713322,-0.010176732204854488
1772537092449292000,2.6272919921875,0.0004757604328915477,0.006906839087605476,-0.01034025102853775
1772537092459359000,2.63735888671875,-0.004057381302118301,0.0056715006940066814,-0.010538910515606403
1772537092469427000,2.647427001953125,-0.0024373806081712246,0.003057874273508787,-0.013728312216699123
1772537092479495200,2.6574951171875,-0.004065617918968201,0.0022881340701133013,-0.011485334485769272
1772537092489562000,2.66756201171875,-0.003603293327614665,0.0036125238984823227,-0.0068050953559577465
1772537092499630000,2.677630126953125,0.0013721201103180647,-0.0012744597624987364,-0.0034400969743728638
1772537092509697800,2.68769775390625,0.006198566872626543,-0.011361182667315006,0.004278276115655899
1772537092519765000,2.697764892578125,0.013813426718115807,-0.012280484661459923,0.010436237789690495
1772537092529833000,2.7078330078125,0.02243141457438469,-0.005946687888354063,0.007420474663376808
1772537092539901000,2.71790087890625,0.02100718580186367,-0.0015271385200321674,0.005355108994990587
1772537092549968100,2.727968017578125,0.005806129425764084,0.00888395681977272,0.008799375034868717
1772537092560035800,2.738035888671875,-0.0009909688960760832,0.01463298499584198,0.008808135986328125
1772537092570103000,2.74810302734375,0.00003567978274077177,0.011450774036347866,-0.0006178569747135043
1772537092580170800,2.758170654296875,-0.005687094759196043,0.0024659433402121067,-0.0039028108585625887
1772537092590239000,2.768239013671875,-0.007274605333805084,0.0006038611754775047,-0.004014663398265839
1772537092600306000,2.778305908203125,-0.0013364683836698532,-0.005366085097193718,-0.014821265824139118
1772537092610374000,2.788373779296875,0.001872108201496303,-0.007007391192018986,-0.016403449699282646
1772537092620441900,2.79844189453125,0.007160436362028122,0.0012365260627120733,-0.012859834358096123
1772537092630508800,2.8085087890625,0.013713411055505276,0.0025425401981920004,-0.007091693580150604
1772537092640576800,2.81857666015625,0.01054295152425766,-0.0008734222501516342,0.004269306547939777
1772537092650645000,2.82864501953125,0.004880271852016449,-0.007272998336702585,0.014531796798110008
1772537092660712000,2.8387119140625,0.0003270915476605296,-0.010932187549769878,0.016017185524106026
1772537092670780000,2.84877978515625,-0.010978559963405132,-0.007435989566147327,0.010789666324853897
1772537092680846800,2.858846923828125,-0.018501514568924904,0.0050414246506989,0.00013723049778491259
1772537092690914800,2.868914794921875,-0.01745915226638317,0.013578986749053001,-0.01785801537334919
1772537092700983000,2.878983154296875,-0.012179115787148476,0.020375626161694527,-0.030360739678144455
1772537092711050000,2.889050048828125,-0.006718569900840521,0.012416237965226173,-0.022344093769788742
1772537092721118000,2.899117919921875,-0.003303480800241232,-0.009347816929221153,-0.005274142604321241
1772537092731186000,2.90918603515625,-0.001705850474536419,-0.028327632695436478,0.01102919690310955
1772537092741252900,2.9192529296875,0.004495351575314999,-0.03316386044025421,0.017827406525611877
1772537092751320800,2.92932080078125,0.007863185368478298,-0.027217021211981773,0.02332976460456848
1772537092761387800,2.9393876953125,0.006023150868713856,-0.013197902590036392,0.014585217460989952
1772537092771456000,2.9494560546875,-0.0024797902442514896,-0.0012807894963771105,0.00837765447795391
1772537092781524000,2.95952392578125,-0.006336910184472799,0.0010511919390410185,-0.001552922884002328
1772537092791591000,2.9695908203125,-0.013535967096686363,0.0006735555361956358,-0.006938367150723934
1772537092801659000,2.979658935546875,-0.010540761984884739,-0.000905380118638277,-0.011573039926588535
1772537092811726800,2.989726806640625,-0.007391573861241341,-0.004030599724501371,-0.011622308753430843
1772537092821793800,2.999793701171875,-0.008062844164669514,-0.0029216036200523376,-0.011239762417972088
1772537092831862000,3.009862060546875,-0.003103771945461631,-0.0028984341770410538,-0.01320996880531311
1772537092841930000,3.019929931640625,0.00008459773380309343,-0.001062376657500863,-0.006944926455616951
1772537092851997000,3.029996826171875,-0.002364711370319128,0.0015280803199857473,-0.0033677686005830765
1772537092862065000,3.04006494140625,-0.005445451475679874,0.0036868792958557606,0.0031721931882202625
1772537092872131800,3.0501318359375,-0.005873154848814011,-0.0004964142572134733,0.008273211307823658
1772537092882200000,3.060199951171875,-0.00798889808356762,0.004209707025438547,0.01173291727900505
1772537092892268000,3.07026806640625,-0.0036868276074528694,0.0031665468122810125,0.01581474393606186
1772537092902335000,3.0803349609375,0.0019135066540911794,0.001413394114933908,0.015087028034031391
1772537092912403000,3.09040283203125,0.011894235387444496,0.0031013055704534054,0.010577497072517872
1772537092922471000,3.100470947265625,0.01863531582057476,0.005399142857640982,0.003717699320986867
1772537092932537900,3.110537841796875,0.025811469182372093,-0.005838065408170223,-0.008338697254657745
1772537092942606000,3.120606201171875,0.02587462030351162,-0.021690456196665764,-0.011468487791717052
1772537092952673000,3.130673095703125,0.016225986182689667,-0.023189283907413483,-0.007007160224020481
1772537092962741000,3.140740966796875,0.0050555937923491,-0.017759131267666817,-0.004411558620631695
1772537092972809000,3.15080908203125,-0.0002912344643846154,-0.006195954047143459,-0.0016772914677858353
1772537092982876000,3.1608759765625,0.0008093337528407574,0.01395928580313921,-0.005797090940177441
1772537092992944000,3.170944091796875,0.006437391974031925,0.021480584517121315,-0.005499882623553276
1772537093003011800,3.18101171875,0.016325555741786957,0.016400888562202454,-0.012923904694616795
1772537093013079000,3.1910791015625,0.01826806552708149,-0.004318239167332649,-0.007803978398442268
1772537093023146800,3.201146728515625,0.022319717332720757,-0.023386720567941666,-0.0014389129355549812
1772537093033214000,3.2112138671875,0.02884232997894287,-0.026197686791419983,-0.0032226983457803726
1772537093043282000,3.221281982421875,0.029681634157896042,-0.023318719118833542,-0.004671425558626652
1772537093053350000,3.231349853515625,0.02629036456346512,-0.01718093454837799,-0.0006378021789714694
1772537093063416800,3.241416748046875,0.02006961777806282,-0.015218498185276985,-0.00048093812074512243
1772537093073484800,3.25148486328125,0.014812537468969822,-0.013943377882242203,-0.0000713438494130969
1772537093083552800,3.261552734375,0.004846183583140373,-0.0142078697681427,0.003167290473356843
1772537093093619700,3.27161962890625,-0.0063803717494010925,0.0003068908117711544,0.012096337042748928
1772537093103688000,3.28168798828125,-0.01038215309381485,0.016756875440478325,0.009463378228247166
1772537093113756000,3.291755859375,-0.008687317371368408,0.027042802423238754,0.008562164381146431
1772537093123822800,3.30182275390625,-0.00786132924258709,0.02507002092897892,0.005625531077384949
1772537093133890800,3.311890869140625,-0.006481013726443052,0.015411002561450005,0.006704377941787243
1772537093143957800,3.321957763671875,-0.004894215147942305,0.00496082054451108,0.013715388253331184
1772537093154025700,3.332025634765625,-0.001711737597361207,-0.012298593297600746,0.01580437272787094
1772537093164094000,3.342093994140625,-0.000024004722945392132,-0.014992319978773594,0.014846669510006905
1772537093174161000,3.352160888671875,-0.00105331651866436,-0.009675851091742516,0.009902779012918472
1772537093184228900,3.362228759765625,-0.0032084044069051743,0.0006007272750139236,0.008529330603778362
1772537093194296800,3.372296875,-0.011174717918038368,0.00709484564140439,0.009958649054169655
1772537093204363800,3.38236376953125,-0.01457290817052126,0.011192957870662212,0.011037269607186317
1772537093214432000,3.392431884765625,-0.013290329836308956,0.012059550732374191,0.012947022914886475
1772537093224500000,3.4025,-0.01574937254190445,0.007362137082964182,0.01869005709886551
1772537093234567000,3.41256689453125,-0.011731461621820927,-0.00045370799489319324,0.01851215772330761
1772537093244635000,3.422634765625,-0.0011856649070978165,-0.003967510536313057,0.013983658514916897
1772537093254701800,3.432701904296875,0.007252827286720276,-0.008672516793012619,0.002553104655817151
1772537093264769800,3.442769775390625,0.012454534880816936,-0.010480583645403385,0.0002575658727437258
1772537093274838000,3.452838134765625,0.020903944969177246,-0.011247573420405388,-0.0014279487077146769
1772537093284905000,3.462905029296875,0.02122086100280285,-0.013543485663831234,0.004333800636231899
1772537093294973000,3.472972900390625,0.009724794887006283,-0.007631001062691212,0.008698987774550915
1772537093305041000,3.483041015625,0.0018135819118469954,-0.005777701269835234,0.00961390696465969
1772537093315107800,3.49310791015625,-0.003462672932073474,0.0005568936467170715,0.008941992186009884
1772537093325176000,3.503176025390625,-0.001982839545235038,0.0065140570513904095,0.0018247184343636036
1772537093335243000,3.513242919921875,0.0007301225559785962,-0.0005286724772304296,-0.007374638691544533
1772537093345311000,3.52331103515625,0.0003128306707367301,0.00028837891295552254,-0.0038841557689011097
1772537093355379000,3.53337890625,0.0013320223661139607,-0.003940454684197903,-0.006251439452171326
1772537093365446000,3.54344580078125,0.010219667106866837,-0.00814842525869608,-0.005155518651008606
1772537093375513900,3.553513916015625,0.009339225478470325,-0.0027203706558793783,-0.01023177057504654
1772537093385582000,3.56358203125,0.005432647652924061,0.006084427237510681,-0.01160265039652586
1772537093395649000,3.57364892578125,-0.00034694443456828594,0.01570829190313816,-0.012926774099469185
1772537093405717000,3.583717041015625,-0.0002612605458125472,0.019449351355433464,-0.017986152321100235
1772537093415785000,3.593784912109375,0.0022887163795530796,0.019627517089247704,-0.01910414732992649
1772537093425852000,3.603851806640625,0.008409141562879086,0.007563943043351173,-0.009663795121014118
1772537093435920100,3.613920166015625,0.00735053513199091,-0.01066113356500864,0.0009419771376997232
1772537093445987000,3.623987060546875,0.008722883649170399,-0.021655773743987083,0.011402979493141174
1772537093456055000,3.634054931640625,0.009917311370372772,-0.022090401500463486,0.014316743239760399
1772537093466122800,3.644122802734375,0.008317996747791767,-0.01162264309823513,0.01336868479847908
1772537093476190000,3.65418994140625,0.002177545800805092,0.0013892955612391233,-0.00008240900933742523
1772537093486257700,3.664257568359375,-0.004187821410596371,0.015482347458600998,-0.005761937238276005
1772537093496326000,3.674325927734375,-0.006834204308688641,0.013228247873485088,-0.01512401457875967
1772537093506392800,3.684392822265625,-0.009411315433681011,0.0064361561089754105,-0.015102260746061802
1772537093516460800,3.694460693359375,-0.01190483383834362,-0.0032476303167641163,-0.01427534967660904
1772537093526528000,3.704528076171875,-0.005932904779911041,-0.006113696377724409,-0.006874898448586464
1772537093536595700,3.714595703125,-0.003627140074968338,-0.0015016337856650352,-0.0015704144025221467
1772537093546664000,3.724663818359375,0.0003183630760759115,0.0024262964725494385,0.00252038286998868
1772537093556731000,3.73473095703125,0.0012616547755897045,0.0035216547548770905,0.0025877607986330986
1772537093566798800,3.744798828125,0.0037958554457873106,-0.0036645014770329,0.0066395774483680725
1772537093576866800,3.75486669921875,0.0044824182987213135,-0.002849308308213949,0.009556803852319717
1772537093586933800,3.764933837890625,0.006655618082731962,-0.005303835496306419,0.004537686705589294
1772537093597001700,3.775001708984375,0.00016416318248957396,-0.0014209463261067867,0.009857350960373878
1772537093607070000,3.785070068359375,-0.0023803040385246277,0.004671012982726097,0.00976340752094984
1772537093617137000,3.795136962890625,-0.0037153465673327446,0.003954089712351561,0.003441329812631011
1772537093627204900,3.805204833984375,-0.0015270821750164032,0.005558616481721401,-0.0031604410614818335
1772537093637271800,3.815271728515625,0.00012940401211380959,0.005332514643669128,-0.012227972038090229
1772537093647339800,3.82533984375,-0.003008756786584854,0.005612694658339024,-0.006746308878064156
1772537093657408000,3.835407958984375,-0.004348060116171837,0.004003612324595451,-0.0014831034932285547
1772537093667475000,3.845474853515625,-0.0036757015623152256,0.0006058493163436651,0.009225985035300255
1772537093677543000,3.85554296875,0.0005709751276299357,-0.005340988747775555,0.017896438017487526
1772537093687611000,3.86561083984375,0.003275536932051182,-0.003948778845369816,0.015853766351938248
1772537093697677800,3.875677734375,0.004623629152774811,0.000955166295170784,0.006971856579184532
1772537093707745800,3.885745849609375,0.007045542821288109,-0.004764163866639137,0.0019030154217034578
1772537093717813000,3.89581298828125,0.00464470311999321,-0.004890664480626583,0.004174957983195782
1772537093727881000,3.905880859375,0.008262697607278824,-0.0056434376165270805,0.01637917011976242
1772537093737949000,3.915948974609375,0.0052349502220749855,-0.009730856865644455,0.015013768337666988
1772537093748015900,3.926015869140625,0.0026010838337242603,-0.006580071523785591,0.017435647547245026
1772537093758083800,3.936083740234375,-0.0011268090456724167,-0.0030822756234556437,0.010792392306029797
1772537093768152000,3.946152099609375,-0.006678203120827675,-0.0013012276031076908,0.001058320514857769
1772537093778219000,3.956218994140625,-0.014196041040122509,0.010546643286943436,-0.0025105816312134266
1772537093788287000,3.966286865234375,-0.017889639362692833,0.01961943320930004,-0.00003846688196063042
1772537093798354400,3.9763544921875,-0.018733061850070953,0.01877414435148239,-0.0004054504679515958
1772537093808421400,3.98642138671875,-0.0020117585081607103,0.007725277915596962,-0.00425360444933176
1772537093818489300,3.9964892578125,0.007811843883246183,-0.005475211888551712,-0.00963292270898819
1772537093828556300,4.006556396484375,0.011379387229681015,-0.018897539004683495,-0.0011602165177464485
1772537093838624300,4.016624267578125,0.011372196488082409,-0.02199585922062397,0.0065839895978569984
1772537093848692200,4.026692138671875,0.009262503124773502,-0.020875627174973488,0.004025893285870552
1772537093858759200,4.03675927734375,0.007107739336788654,-0.015545576810836792,0.000340344849973917
1772537093868827400,4.046827392578125,0.006240232847630978,-0.012104334309697151,-0.003288902109488845
1772537093878895400,4.056895263671875,0.0028044891078025103,-0.008583102375268936,-0.005274821072816849
1772537093888962300,4.06696240234375,0.006605528295040131,-0.0037706068251281977,0.0009348592720925808
1772537093899030300,4.0770302734375,0.00909558404237032,0.0028494789730757475,0.009040189906954765
1772537093909098500,4.087098388671875,0.009082358330488205,0.009115200489759445,0.020753316581249237
1772537093919165400,4.09716552734375,0.013189218938350677,0.011114967986941338,0.02721627801656723
1772537093929233400,4.1072333984375,0.010748105123639107,0.00988052412867546,0.022683214396238327
1772537093939300400,4.11730029296875,0.013411532156169415,0.006645848974585533,0.01776675134897232
1772537093949368300,4.127368408203125,0.014411426149308681,-0.0005262203048914671,0.013845546171069145
1772537093959436300,4.137436279296875,0.009039030410349369,-0.007426204159855843,0.014839704148471355
1772537093969503200,4.147503173828125,0.0032698949798941612,-0.004169275984168053,0.009629135020077229
1772537093979571500,4.157571533203125,-0.003691874910145998,0.0065984176471829414,0.0004569420125335455
1772537093989639200,4.16763916015625,-0.003857317613437772,0.018463796004652977,-0.0075917597860097885
1772537093999706400,4.177706298828125,-0.0004452756838873029,0.024312898516654968,-0.01036597415804863
1772537094009774300,4.1877744140625,0.0030490823555737734,0.025699065998196602,-0.006072014570236206
1772537094019841300,4.19784130859375,0.007876328192651272,0.01425306685268879,0.0001736310077831149
1772537094029909200,4.2079091796875,0.004881863482296467,0.00833783857524395,0.006799761671572924
1772537094039977200,4.217977294921875,0.0009102914482355118,0.006218495313078165,0.020028747618198395
1772537094050044400,4.22804443359375,-0.004759872332215309,0.01202605664730072,0.017621377483010292
1772537094060112100,4.238112060546875,-0.005797439720481634,0.013732077553868294,0.007980999536812305
1772537094070180000,4.24818017578125,-0.006644414737820625,0.016912056133151054,-0.0017573951045051217
1772537094080247000,4.2582470703125,-0.008193575777113438,0.013325044885277748,-0.006514599546790123
1772537094090315300,4.268315185546875,-0.009036672301590443,0.010565012693405151,-0.006598657928407192
1772537094100382200,4.27838232421875,-0.008818559348583221,0.009526113048195839,-0.0009911058004945517
1772537094110450200,4.2884501953125,-0.0050224862061440945,0.007105606608092785,0.0055145034566521645
1772537094120518100,4.29851806640625,-0.007925065234303474,0.006547408178448677,0.00939712580293417
1772537094130585000,4.308585205078125,-0.015638645738363266,0.00530131533741951,0.011981457471847534
1772537094140653300,4.3186533203125,-0.018631240352988243,0.007048881612718105,0.007757417857646942
1772537094150721300,4.32872119140625,-0.01627194508910179,0.013590138405561447,-0.010799222625792027
1772537094160788200,4.338788330078125,-0.010200737044215202,0.013720367103815079,-0.02101297676563263
1772537094170856200,4.348856201171875,-0.008242398500442505,0.007545124273747206,-0.024858159944415092
1772537094180924200,4.358924072265625,-0.0029682740569114685,-0.0035810302942991257,-0.01136019453406334
1772537094190991000,4.3689912109375,-0.0008119383128359914,-0.004230569116771221,0.0044194236397743225
1772537094201059300,4.379059326171875,0.0031801401637494564,-0.00033409777097404003,0.008760375902056694
1772537094211126300,4.389126220703125,0.01697647012770176,0.0011725547956302762,0.009414993226528168
1772537094221194200,4.3991943359375,0.03354506194591522,0.0026455491315573454,0.000641475897282362
1772537094231262200,4.40926220703125,0.03903259336948395,0.004905875772237778,0.0005216454155743122
1772537094241329200,4.4193291015625,0.03851380944252014,0.00991847738623619,0.002053762087598443
1772537094251397400,4.4293974609375,0.04007013887166977,0.0036914809606969357,0.000816575950011611
1772537094261465300,4.43946533203125,0.03479654714465141,-0.0116717629134655,0.012479357421398163
1772537094271532300,4.4495322265625,0.014163161627948284,-0.011071832850575447,0.025677645578980446
1772537094281600300,4.459600341796875,0.008527913130819798,0.0011632614769041538,0.028907261788845062
1772537094291667200,4.469667236328125,0.0036830909084528685,0.017026647925376892,0.015270811505615711
1772537094301735200,4.479735107421875,0.002283866051584482,0.021922603249549866,-0.00242456141859293
1772537094311803400,4.489803466796875,-0.005131089128553867,0.02452027052640915,-0.016066405922174454
1772537094321870300,4.499870361328125,0.00022958754561841488,0.020347630605101585,-0.02904265746474266
1772537094331938300,4.509938232421875,0.00017866725102066994,0.02003845013678074,-0.02004917897284031
1772537094342006300,4.52000634765625,0.007619273383170366,0.017527621239423752,-0.0057024648413062096
1772537094352073200,4.5300732421875,0.017214080318808556,0.004391012713313103,0.006705554202198982
1772537094362141400,4.540141357421875,0.018279876559972763,-0.003938289824873209,0.01920509897172451
1772537094372209400,4.55020947265625,0.01127817202359438,-0.007617366034537554,0.02882211096584797
1772537094382276400,4.5602763671875,0.003878579009324312,0.00782017968595028,0.01630738563835621
1772537094392344300,4.57034423828125,0.002491649240255356,0.012970147654414177,-0.00703603308647871
1772537094402411300,4.580411376953125,-0.0003696512430906296,0.019461335614323616,-0.023526592180132866
1772537094412479200,4.590479248046875,-0.005472057498991489,0.019316699355840683,-0.02778344787657261
1772537094422547500,4.60054736328125,-0.004316778853535652,0.007591333240270615,-0.02362891659140587
1772537094432614400,4.610614501953125,-0.006266685202717781,-0.00007264362648129463,-0.008013374172151089
1772537094442682400,4.620682373046875,-0.0015105457277968526,0.0011976842069998384,-0.0007978053763508797
1772537094452750000,4.63075,0.006899717263877392,0.0024983719922602177,0.0010839842725545168
1772537094462817300,4.6408173828125,0.021763350814580917,-0.0013930387794971466,-0.0067299967631697655
1772537094472885200,4.65088525390625,0.02891811542212963,0.00235210289247334,-0.01003335788846016
1772537094482953200,4.660953125,0.030221998691558838,-0.002730273874476552,-0.008527873083949089
1772537094493020400,4.6710205078125,0.026346266269683838,-0.0034560596104711294,0.0008632794488221407
1772537094503088000,4.681088134765625,0.017286723479628563,0.004506525583565235,0.007015448063611984
1772537094513155300,4.6911552734375,0.026172729209065437,0.014821398071944714,0.007964681833982468
1772537094523223000,4.70122314453125,0.030210083350539207,0.011789921671152115,-0.0019372176611796021
1772537094533291300,4.711291259765625,0.027585789561271667,0.01252220943570137,-0.0009183623478747904
1772537094543358200,4.721358154296875,0.02428453601896763,0.01366790197789669,-0.0011631068773567677
1772537094553426200,4.73142626953125,0.028024708852171898,0.004866188392043114,-0.009636570699512959
1772537094563494100,4.741494140625,0.022243518382310867,-0.0017794636078178883,0.001369741279631853
1772537094573561000,4.75156103515625,0.01496613584458828,-0.000030599767342209816,0.01168211828917265
1772537094583629300,4.76162939453125,0.013433486223220825,0.013292662799358368,0.006486024707555771
1772537094593696300,4.7716962890625,0.017754020169377327,0.01749785616993904,-0.0027991123497486115
1772537094603764200,4.78176416015625,0.01632736437022686,0.024120071902871132,-0.008884701877832413
1772537094613832200,4.791832275390625,0.018428683280944824,0.024302028119564056,-0.016437720507383347
1772537094623899100,4.801899169921875,0.026679689064621925,0.019337894394993782,-0.013438734225928783
1772537094633967000,4.811967041015625,0.027887936681509018,0.01268182322382927,-0.0017974410438910127
1772537094644035300,4.822035400390625,0.03023338131606579,0.005962135270237923,0.010017406195402145
1772537094654102300,4.832102294921875,0.029961448162794113,0.0027447764296084642,0.016935359686613083
1772537094664170200,4.842170166015625,0.035631582140922546,0.0008241045288741589,0.01602029800415039
1772537094674238200,4.85223828125,0.03610539063811302,-0.009393877349793911,0.010487762279808521
1772537094684305200,4.86230517578125,0.014331649988889694,-0.006422854959964752,0.015186910517513752
1772537094694373400,4.872373291015625,-0.011505794711411,0.016097182407975197,0.021190546452999115
1772537094704440300,4.8824404296875,-0.012226712889969349,0.03682509809732437,-0.001379477558657527
1772537094714508300,4.89250830078125,-0.006733326241374016,0.03566295653581619,-0.021332701668143272
1772537094724576300,4.902576171875,-0.007539465092122555,0.0257866233587265,-0.02078568935394287
1772537094734643200,4.912643310546875,-0.015641042962670326,0.019517268985509872,-0.013932697474956512
1772537094744711200,4.922711181640625,-0.011242564767599106,0.017958253622055054,-0.0049831448122859
1772537094754779400,4.932779296875,0.0014242276083678007,0.01168038509786129,-0.006966667249798775
1772537094764846300,4.942846435546875,0.0018492680974304676,-0.006991570349782705,-0.007584520615637302
1772537094774914300,4.952914306640625,-0.003043526317924261,-0.012724671512842178,0.00862134899944067
1772537094784981200,4.962981201171875,-0.0017950364854186773,-0.010533155873417854,0.004109421744942665
1772537094795049200,4.97304931640625,0.0021652355790138245,-0.0033211056143045425,-0.004888447001576424
1772537094805117200,4.9831171875,0.0005945028970018029,0.006919015198945999,-0.004183242097496986
1772537094815184100,4.99318408203125,-0.006189839448779821,0.014676871709525585,0.0008116140961647034
1772537094825252000,5.003252197265625,-0.004810588899999857,0.009439765475690365,0.002819637767970562
1772537094835320000,5.013320068359375,-0.003775001270696521,0.002405727980658412,0.004501001909375191
1772537094845387000,5.023386962890625,-0.0023110616020858288,-0.0029163327999413013,0.003426416078582406
1772537094855455000,5.033455078125,-0.004037889186292887,0.002163306111469865,-0.003697760868817568
1772537094865523200,5.043523193359375,-0.00742782698944211,0.0025883466005325317,-0.006801941432058811
1772537094875590100,5.053590087890625,-0.014591436833143234,0.001413620193488896,-0.0027077232953161
1772537094885658000,5.063658203125,-0.014534711837768555,-0.0005398085340857506,-0.0005851838504895568
1772537094895725000,5.07372509765625,-0.005672110244631767,0.0029651683289557695,-0.0005803478416055441
1772537094905793000,5.08379296875,0.00026061374228447676,0.009504560381174088,0.0016138304490596056
1772537094915861200,5.093861328125,0.0032458831556141376,0.009073097258806229,0.0016502286307513714
1772537094925928200,5.10392822265625,0.004309283569455147,0.005454660393297672,0.0018403781577944756
1772537094935996200,5.11399609375,0.009465170092880726,0.0012003813171759248,-0.0018772692419588566
1772537094946064000,5.12406396484375,0.004875744692981243,-0.007305488456040621,-0.007786024361848831
1772537094956131000,5.134131103515625,-0.012749793939292431,-0.017504261806607246,-0.0066444966942071915
1772537094966199000,5.144198974609375,-0.027243515476584435,-0.015149494633078575,-0.005142740439623594
1772537094976267000,5.15426708984375,-0.026849133893847466,-0.005362452939152718,-0.014536729082465172
1772537094986334200,5.164334228515625,-0.01677519641816616,-0.001429229974746704,-0.029317006468772888
1772537094996402000,5.17440185546875,-0.010834598913788795,-0.008105337619781494,-0.032340649515390396
1772537095006469000,5.18446923828125,-0.015551057644188404,-0.010108567774295807,-0.021620361134409904
1772537095016536800,5.194536865234375,-0.012313811108469963,-0.012323128990828991,-0.01702805981040001
1772537095026605000,5.20460498046875,-0.0077539472840726376,-0.015680575743317604,-0.01510445773601532
1772537095036672000,5.214672119140625,-0.01349104568362236,-0.012269695289433002,-0.009166828356683254
1772537095046740000,5.224739990234375,-0.014273482374846935,-0.005354264751076698,-0.010497876442968845
1772537095056808000,5.234807861328125,-0.009560517966747284,-0.005282167345285416,-0.016028687357902527
1772537095066875000,5.244875,-0.004773486405611038,-0.009134696796536446,-0.013769527897238731
1772537095076942800,5.25494287109375,-0.007106766104698181,-0.013111349195241928,-0.0021737893112003803
1772537095087009800,5.265009765625,-0.010644509457051754,-0.007064376026391983,0.016722403466701508
1772537095097078000,5.275078125,-0.0069188992492854595,-0.0014754107687622309,0.017278319224715233
1772537095107146000,5.28514599609375,0.006118339486420155,-0.002564377384260297,0.005456280894577503
1772537095117213000,5.295212890625,0.0019765121396631002,-0.007664844393730164,0.003980728797614574
1772537095127281000,5.305281005859375,-0.005928548984229565,-0.00908936932682991,0.004426275379955769
1772537095137349000,5.31534912109375,-0.013002828694880009,-0.011679470539093018,-0.0004603244597092271
1772537095147416000,5.325416015625,-0.023417651653289795,-0.007579001598060131,0.0012931008823215961
1772537095157484000,5.335484130859375,-0.02632368914783001,0.0004941453225910664,-0.0027122548781335354
1772537095167552000,5.345552001953125,-0.025563890114426613,0.008524108678102493,-0.016783332452178
1772537095177619000,5.355618896484375,-0.030023418366909027,0.0024562538601458073,-0.02047380991280079
1772537095187687000,5.36568701171875,-0.029421010985970497,-0.003969687968492508,-0.015153082087635994
1772537095197753900,5.37575390625,-0.01963634043931961,-0.008630739524960518,-0.022004617378115654
1772537095207822000,5.385822021484375,-0.0015545428032055497,-0.020591262727975845,-0.020823238417506218
1772537095217890000,5.39589013671875,0.00728761637583375,-0.026920679956674576,-0.010782764293253422
1772537095227957000,5.40595703125,0.0030758269131183624,-0.02274431101977825,0.005949610844254494
1772537095238025000,5.41602490234375,0.004851454868912697,-0.015280884690582752,0.004007190465927124
1772537095248093200,5.42609326171875,0.00419605104252696,0.0013156685745343566,-0.0023313991259783506
1772537095258160000,5.43616015625,0.0006803818978369236,0.009945874102413654,-0.005000600591301918
1772537095268228000,5.44622802734375,0.002594928489997983,0.009248659014701843,-0.01223507709801197
1772537095278295000,5.456294921875,-0.001529634348116815,0.0018949616933241487,-0.008632052689790726
1772537095288363000,5.466363037109375,-0.0055515398271381855,-0.0038633253425359726,-0.004124386236071587
1772537095298431000,5.476430908203125,-0.00475607393309474,-0.004379665479063988,-0.005474982783198357
1772537095308498000,5.486497802734375,-0.005919608753174543,0.004553109407424927,-0.005131168756633997
1772537095318566100,5.496566162109375,-0.005025585647672415,0.013190274126827717,-0.008064374327659607
1772537095328634000,5.506634033203125,0.00007809605449438095,0.016160497441887856,-0.010205822065472603
1772537095338701000,5.516701171875,0.008942002430558205,0.011371882632374763,-0.01109896507114172
1772537095348769000,5.52676904296875,0.01792803965508938,0.011292519979178905,-0.007963892072439194
1772537095358837200,5.536837158203125,0.020385101437568665,0.0053273397497832775,0.0018700121436268091
1772537095368904200,5.546904296875,0.016059329733252525,-0.0037788066547363997,0.0171794593334198
1772537095378972200,5.55697216796875,0.007294367533177137,-0.01912759430706501,0.025992613285779953
1772537095389039000,5.5670390625,-0.00039284711237996817,-0.023324204608798027,0.02266765758395195
1772537095399107000,5.577107177734375,-0.006094738375395536,-0.012456218712031841,0.0020882096141576767
1772537095409175000,5.587175048828125,-0.011945969425141811,0.009992098435759544,-0.019589122384786606
1772537095419242000,5.597241943359375,-0.006072213873267174,0.018988734111189842,-0.03607846796512604
1772537095429310200,5.607310302734375,-0.0024218191392719746,0.01072680950164795,-0.0417291633784771
1772537095439378000,5.6173779296875,-0.008219726383686066,-0.0041769715026021,-0.027104316279292107
1772537095449445000,5.627445068359375,-0.015694154426455498,-0.009453758597373962,-0.025342900305986404
1772537095459512800,5.637512939453125,-0.0190659761428833,0.0019328934140503407,-0.03077545017004013
1772537095469581000,5.6475810546875,-0.01990433968603611,0.01804954558610916,-0.03258240222930908
1772537095479648000,5.65764794921875,-0.01742379181087017,0.02898290753364563,-0.024453431367874146
1772537095489716000,5.667716064453125,-0.00815013237297535,0.01947302743792534,-0.01012988481670618
1772537095499783000,5.677782958984375,-0.004235577303916216,0.010485396720468998,0.0009939935989677906
1772537095509851000,5.687850830078125,-0.0029729725793004036,0.0033356081694364548,0.014683441258966923
1772537095519918800,5.6979189453125,-0.001419232925400138,-0.0014690135139971972,0.02041218802332878
1772537095529986000,5.707986083984375,0.003166198031976819,0.001778178964741528,0.014391046017408371
1772537095540054000,5.718053955078125,0.0018259288044646382,0.005833291448652744,0.014680352993309498
1772537095550122000,5.7281220703125,0.0038997321389615536,0.006292686332017183,0.006349186412990093
1772537095560189000,5.73818896484375,0.006278933957219124,0.0025380533188581467,0.006982619874179363
1772537095570257000,5.7482568359375,0.0009997498709708452,0.00043255812488496304,0.010548326186835766
1772537095580323800,5.75832373046875,-0.0013653432251885533,0.0013612705515697598,0.009815520606935024
1772537095590392000,5.76839208984375,-0.0037075933068990707,0.004623642656952143,0.012538069859147072
1772537095600460000,5.7784599609375,-0.004920360632240772,0.010717296041548252,0.014120204374194145
1772537095610527000,5.78852685546875,-0.004793860483914614,0.014742930419743061,0.014678936451673508
1772537095620595000,5.798594970703125,-0.006257563829421997,0.013111177831888199,0.011479233391582966
1772537095630663000,5.808662841796875,-0.009690112434327602,0.01561401691287756,0.005373403895646334
1772537095640730000,5.818730224609375,0.0008500554831698537,0.021141836419701576,-0.005482451058924198
1772537095650798000,5.828798095703125,0.012554381974041462,0.027348067611455917,-0.01845391094684601
1772537095660866000,5.838865966796875,0.020089251920580864,0.014897668734192848,-0.007151306141167879
1772537095670933000,5.84893310546875,0.023635251447558403,-0.006298163905739784,0.014587810263037682
1772537095681001000,5.8590009765625,0.022718418389558792,-0.018603423610329628,0.03140120208263397
1772537095691068000,5.86906787109375,0.024727772921323776,-0.019655371084809303,0.0415814034640789
1772537095701136100,5.87913623046875,0.02387070655822754,-0.014684117399156094,0.03127993270754814
1772537095711204000,5.8892041015625,0.013495031744241714,-0.008472027257084846,0.013929435051977634
1772537095721271000,5.89927099609375,0.0027155596762895584,-0.001546093262732029,-0.010310576297342777
1772537095731339000,5.909339111328125,-0.006487792357802391,0.004509402438998222,-0.026976903900504112
1772537095741407000,5.919406982421875,-0.016770459711551666,0.013172588311135769,-0.031379684805870056
1772537095751474200,5.92947412109375,-0.010910971090197563,0.010804505087435246,-0.029672596603631973
1772537095761542100,5.939542236328125,-0.0029600781854242086,0.008072362281382084,-0.023309096693992615
1772537095771610000,5.949610107421875,0.00846115406602621,0.008846277371048927,-0.0081743523478508
1772537095781677000,5.959677001953125,0.01563630811870098,0.0007160205859690905,0.0038651356007903814
1772537095791745000,5.9697451171875,0.02031121961772442,-0.006880113855004311,0.016446441411972046
1772537095801812500,5.9798125,0.025590792298316956,-0.003314004745334387,0.01984855718910694
1772537095811880700,5.989880615234375,0.01954648084938526,0.0016605136916041374,0.01911911740899086
1772537095821948400,5.999948486328125,0.009051883593201637,0.014029435813426971,0.021365419030189514
1772537095832015600,6.010015625,0.002709565684199333,0.02184128575026989,0.011374570429325104
1772537095842083300,6.020083251953125,-0.0015528338262811303,0.01786004565656185,0.000011055031791329384
1772537095852151600,6.030151611328125,-0.00532573414966464,0.01204157155007124,-0.012994758784770966
1772537095862218500,6.040218505859375,-0.014456413686275482,0.006330348085612059,-0.01688160002231598
1772537095872286500,6.050286376953125,-0.018852228298783302,-0.002122791251167655,-0.014999276027083397
1772537095882353700,6.060353759765625,-0.022918565198779106,0.001109642325900495,-0.01060476340353489
1772537095892421400,6.07042138671875,-0.017301160842180252,0.0027453559450805187,-0.0039772214367985725
1772537095902489300,6.0804892578125,-0.01032567210495472,0.00017731892876327038,0.001391175901517272
1772537095912556300,6.090556396484375,-0.01077974122017622,-0.00019685528241097927,0.00894043780863285
1772537095922624500,6.10062451171875,-0.009369594044983387,-0.0008088094182312489,0.014476125128567219
1772537095932692500,6.1106923828125,-0.00755411759018898,0.0039262911304831505,0.002741438103839755
1772537095942759400,6.120759521484375,-0.008763108402490616,0.016027983278036118,-0.0036376991774886847
1772537095952827400,6.130827392578125,-0.009084286168217659,0.016989916563034058,-0.008612217381596565
1772537095962895600,6.1408955078125,-0.010159452445805073,0.0052534183487296104,-0.008486763574182987
1772537095972962600,6.150962646484375,-0.014003725722432137,-0.012604140676558018,-0.005549030378460884
1772537095983030500,6.161030517578125,-0.012453444302082062,-0.031803909689188004,0.001278310315683484
1772537095993097500,6.171097412109375,-0.00811009481549263,-0.03477812558412552,0.0004673777148127556
1772537096003165400,6.18116552734375,-0.0017642317106947303,-0.0245510321110487,-0.001471203751862049
1772537096013233400,6.1912333984375,-0.004470802377909422,-0.008507351391017437,-0.005833461880683899
1772537096023300400,6.20130029296875,-0.012446435168385506,0.0073707215487957,-0.016159027814865112
1772537096033368600,6.21136865234375,-0.016706693917512894,0.006537418346852064,-0.017849870026111603
1772537096043436500,6.2214365234375,-0.012681344524025917,0.0012255238834768534,-0.022651124745607376
1772537096053503500,6.23150341796875,-0.007866615429520607,0.00004254770465195179,-0.024323057383298874
1772537096063571500,6.241571533203125,-0.0009266675333492458,-0.008778194896876812,-0.016770796850323677
1772537096073639700,6.2516396484375,0.007317414041608572,-0.014776166528463364,-0.007193005643785
1772537096083706600,6.26170654296875,0.014544879086315632,-0.012073652818799019,0.0027054594829678535
1772537096093774600,6.271774658203125,0.01637660153210163,-0.0014218073338270187,0.008333251811563969
1772537096103841500,6.281841552734375,0.011383295059204102,0.005240226164460182,0.012482118792831898
1772537096113909500,6.291909423828125,0.012370528653264046,0.010502099990844727,0.008478588424623013
1772537096123977500,6.3019775390625,0.018573885783553123,0.0012492411769926548,0.004448218271136284
1772537096134044400,6.31204443359375,0.020609606057405472,-0.009705405682325363,0.0025837391149252653
1772537096144112600,6.322112548828125,0.020183973014354706,-0.01604752615094185,-0.0015621013008058071
1772537096154180600,6.3321806640625,0.020703289657831192,-0.0164715014398098,-0.003194885328412056
1772537096164247600,6.34224755859375,0.017772866412997246,-0.012690474279224873,-0.006470111198723316
1772537096174315500,6.3523154296875,0.018661828711628914,-0.011081126518547535,-0.0107692526653409
1772537096184383700,6.3623837890625,0.01197002362459898,-0.011066233739256859,-0.012215551920235157
1772537096194450700,6.37245068359375,0.0024982255417853594,-0.007241668179631233,-0.006343015003949404
1772537096204518700,6.3825185546875,0.005493148695677519,-0.012596368789672852,-0.007872910238802433
1772537096214585600,6.392585693359375,0.013689825311303139,-0.0067648449912667274,-0.0015979702584445477
1772537096224653600,6.402653564453125,0.0023116229567676783,0.0010874292347580194,0.010141128674149513
1772537096234721500,6.412721435546875,-0.0026538409292697906,-0.0054727355018258095,0.005652104504406452
1772537096244788500,6.42278857421875,0.0005294056609272957,-0.00823500007390976,-0.008720092475414276
1772537096254856700,6.432856689453125,-0.00032253970857709646,-0.010669928044080734,-0.015890387818217278
1772537096264924400,6.44292431640625,-0.0002672660630196333,-0.005822312086820602,-0.018235228955745697
1772537096274991600,6.45299169921875,-0.001709101488813758,-0.006329644471406937,-0.012885204516351223
1772537096285059300,6.463059326171875,-0.002062818966805935,-0.004201233386993408,-0.0052273087203502655
1772537096295127600,6.47312744140625,-0.005441837944090366,-0.0030179910827428102,0.005108685698360205
1772537096305194500,6.483194580078125,-0.008842161856591702,0.0018350874306634068,0.009251232258975506
1772537096315262500,6.493262451171875,-0.00949117448180914,0.01196974702179432,0.011008386500179768
1772537096325329700,6.50332958984375,-0.012088539078831673,0.014211734756827354,0.010431302711367607
1772537096335397400,6.5133974609375,-0.009108196012675762,0.005809994414448738,0.0065180533565580845
1772537096345465300,6.52346533203125,-0.0075547657907009125,-0.0007146296557039022,0.005349314771592617
1772537096355532300,6.5335322265625,-0.004339265171438456,-0.002379637910053134,0.004709623754024506
1772537096365600500,6.5436005859375,-0.0043487101793289185,0.0024828515015542507,0.008785092271864414
1772537096375668500,6.55366845703125,-0.0049031805247068405,0.004284746013581753,0.006044966168701649
1772537096385735400,6.5637353515625,-0.003167984075844288,0.000651791924610734,0.007609110325574875
1772537096395803400,6.573803466796875,-0.000003882218152284622,0.007776546757668257,0.005483374930918217
1772537096405870300,6.583870361328125,0.0028099827468395233,0.010778920724987984,-0.00048073416110128164
1772537096415938600,6.5939384765625,0.006320295389741659,0.008200714364647865,-0.005354052409529686
1772537096426006500,6.604006591796875,0.0034101116470992565,0.0006888317875564098,-0.0006235940381884575
1772537096436073500,6.614073486328125,0.002447911538183689,-0.0012187906540930271,0.002821737201884389
1772537096446141400,6.624141357421875,-0.0009888679487630725,-0.001000603660941124,0.0007327157072722912
1772537096456209400,6.63420947265625,-0.001895141671411693,0.004293760750442743,0.0008195347618311644
1772537096466276400,6.6442763671875,-0.007990758866071701,0.00870329886674881,-0.0018736639758571982
1772537096476344600,6.654344482421875,-0.012033704668283463,0.009898792020976543,0.0024632939603179693
1772537096486412500,6.66441259765625,-0.012491680681705475,0.010108711197972298,0.002477381145581603
1772537096496479500,6.6744794921875,-0.008134217001497746,0.012930063530802727,0.004164493642747402
1772537096506547500,6.68454736328125,-0.007303986698389053,0.01441015861928463,0.009181058965623379
1772537096516614400,6.694614501953125,-0.003926565404981375,0.016019508242607117,0.016430716961622238
1772537096526682600,6.7046826171875,-0.004321929067373276,0.013564701192080975,0.014885705895721912
1772537096536750600,6.71475048828125,-0.002104314509779215,0.009936943650245667,0.009570569731295109
1772537096546817500,6.724817626953125,-0.004232150036841631,-0.001188910799100995,0.0010901808273047209
1772537096556885500,6.734885498046875,-0.005926985759288073,-0.0032091846223920584,-0.003621483687311411
1772537096566953500,6.744953369140625,-0.007770958356559277,0.003935543820261955,-0.007398112211376429
1772537096577020400,6.7550205078125,-0.007607972715049982,0.007999527268111706,-0.010327056981623173
1772537096587088600,6.765088623046875,-0.0077254739589989185,0.005142726935446262,-0.010052277706563473
1772537096597156600,6.775156494140625,-0.008327615447342396,0.0048729488626122475,-0.006210135295987129
1772537096607223600,6.7852236328125,-0.010005354881286621,0.004455578979104757,-0.003437276463955641
1772537096617291500,6.79529150390625,-0.007934747263789177,-0.0025333547964692116,-0.008808605372905731
1772537096627358500,6.8053583984375,-0.009215663187205791,-0.008556211367249489,-0.007831310853362083
1772537096637426700,6.8154267578125,-0.008255859836935997,-0.00657934695482254,-0.008137308061122894
1772537096647494700,6.82549462890625,-0.0037444387562572956,-0.001492182957008481,-0.008790172636508942
1772537096657561600,6.8355615234375,0.004780872724950314,0.0017411611042916775,-0.0062151625752449036
1772537096667629600,6.845629638671875,0.006304058246314526,-0.0015503296162933111,-0.0022577380295842886
1772537096677697500,6.855697509765625,-0.0026417660992592573,0.0015549162635579705,0.007450282573699951
1772537096687764500,6.865764404296875,-0.000808423210401088,0.010439441539347172,0.00514515396207571
1772537096697832700,6.875832763671875,-0.002000986598432064,0.017755145207047462,0.002622607396915555
1772537096707900400,6.885900390625,-0.00009632098954170942,0.028498874977231026,0.0023154038935899734
1772537096717967600,6.895967529296875,0.0014291376573964953,0.025771532207727432,0.001144944690167904
1772537096728035300,6.906035400390625,0.009015271440148354,0.014727539382874966,-0.00005088606849312782
1772537096738102500,6.9161025390625,0.01080331765115261,-0.0003392940852791071,0.002224518684670329
1772537096748170500,6.92617041015625,0.0020180228166282177,-0.007734161801636219,0.010349725373089314
1772537096758238500,6.936238525390625,0.0016691485652700067,-0.007825507782399654,0.005557633470743895
1772537096768305700,6.9463056640625,-0.0014696562429890037,0.0022888709791004658,-0.004449500702321529
1772537096778373400,6.956373291015625,-0.007200778927654028,0.014137275516986847,-0.007919066585600376
1772537096788441300,6.96644140625,-0.011070175096392632,0.0153172193095088,-0.010153206996619701
1772537096798508300,6.97650830078125,-0.013575411401689053,0.012206381186842918,-0.009797141887247562
1772537096808576000,6.986575927734375,-0.014443774707615376,0.007900457829236984,-0.007532868534326553
1772537096818643200,6.996643310546875,-0.011937740258872509,0.0017176633700728416,-0.0026803226210176945
1772537096828711000,7.0067109375,-0.010814985260367393,-0.0028297584503889084,-0.0064627667888998985
1772537096838779100,7.016779052734375,-0.011170515790581703,-0.0031860894523561,-0.0063892630860209465
1772537096848846000,7.02684619140625,-0.006491076201200485,-0.004592504817992449,-0.009021798148751259
1772537096858914000,7.0369140625,-0.005296382121741772,-0.013319950550794601,-0.011705465614795685
1772537096868982000,7.04698193359375,-0.010069944895803928,-0.017550969496369362,-0.007091919891536236
1772537096879049000,7.057049072265625,-0.01672704890370369,-0.012166057713329792,-0.0007850222755223513
1772537096889117200,7.0671171875,-0.015253734774887562,-0.00737317930907011,-0.005579493939876556
1772537096899185200,7.07718505859375,-0.01888468861579895,-0.00532307755202055,-0.010782511904835701
1772537096909252000,7.087252197265625,-0.01988523080945015,0.0014757864410057664,-0.006324833258986473
1772537096919320000,7.097320068359375,-0.012806549668312073,0.008309723809361458,-0.006020965985953808
1772537096929387000,7.107386962890625,-0.003173341043293476,0.006690701469779015,-0.002501274459064007
1772537096939455000,7.117455078125,-0.0018191237468272448,-0.0014250155072659254,-0.0015473301755264401
1772537096949523200,7.127523193359375,0.0005063196877017617,-0.007365722209215164,0.0035652685910463333
1772537096959590100,7.137590087890625,-0.000040959916077554226,-0.009091717191040516,0.003929588943719864
1772537096969658000,7.147658203125,-0.00539779057726264,-0.006452161818742752,-0.004064002074301243
1772537096979726000,7.15772607421875,-0.004815090913325548,0.00037485104985535145,-0.013713167048990726
1772537096989793000,7.16779296875,0.0024719692301005125,0.012761615216732025,-0.02265320159494877
1772537096999861200,7.177861328125,0.0038554812781512737,0.016524663195014,-0.038273438811302185
1772537097009929200,7.18792919921875,-0.001572515000589192,0.02640288695693016,-0.05230771005153656
1772537097019996200,7.19799609375,-0.0014771738788112998,0.021319711580872536,-0.05357484519481659
1772537097030064000,7.208064208984375,0.002035121899098158,0.0043517835438251495,-0.05163027346134186
1772537097040131000,7.218131103515625,0.0034455317072570324,-0.009111028164625168,-0.031025130301713943
1772537097050199000,7.228198974609375,0.011001131497323513,-0.014837877824902534,-0.013756142929196358
1772537097060267300,7.238267333984375,0.01955973170697689,-0.01204528659582138,-0.0031506367959082127
1772537097070334200,7.248334228515625,0.02490098588168621,-0.0046495674178004265,0.008421167731285095
1772537097080402200,7.258402099609375,0.024165155366063118,0.004472025670111179,0.014318205416202545
1772537097090470100,7.26847021484375,0.022378358989953995,0.006879826541990042,0.014213301241397858
1772537097100537000,7.278537109375,0.01861264929175377,0.007947221398353577,0.006624091416597366
1772537097110605300,7.288605224609375,0.011755822226405144,0.015619643032550812,0.006676137447357178
1772537097120673300,7.29867333984375,0.009830622002482414,0.021907100453972816,0.0023423752281814814
1772537097130740200,7.308740234375,0.01447439193725586,0.018329322338104248,-0.001179321319796145
1772537097140808200,7.31880810546875,0.012141197919845581,0.010446365922689438,-0.0006213891319930553
1772537097150875100,7.328875244140625,0.01072392612695694,-0.0013989999424666166,0.010427139699459076
1772537097160943000,7.338943115234375,0.009622176177799702,-0.01075148954987526,0.018974555656313896
1772537097171011300,7.34901123046875,0.012931953184306622,-0.010754684917628765,0.020287226885557175
1772537097181078300,7.359078369140625,0.019223405048251152,-0.008722160942852497,0.01773778349161148
1772537097191146200,7.369146240234375,0.0175783708691597,-0.007974611595273018,0.010216750204563141
1772537097201214000,7.3792138671875,0.01992514729499817,-0.017326567322015762,0.009617006406188011
1772537097211281200,7.38928125,0.015061838552355766,-0.02142256498336792,0.007952142506837845
1772537097221349000,7.39934912109375,0.0005023377016186714,-0.01320964191108942,0.008968138135969639
1772537097231417000,7.4094169921875,-0.00866826344281435,0.003404713934287429,0.008103907108306885
1772537097241484300,7.419484375,-0.007754266727715731,0.019790612161159515,-0.0009694824111647904
1772537097251552000,7.429552001953125,-0.0034852493554353714,0.024319548159837723,-0.010569294914603233
1772537097261619200,7.439619140625,-0.003495902055874467,0.019329316914081573,-0.001911091385409236
1772537097271687000,7.44968701171875,-0.0024529113434255123,0.008434202522039413,0.01054402720183134
1772537097281755100,7.459755126953125,0.004395407158881426,0.005140671040862799,0.01983899250626564
1772537097291822000,7.469822021484375,0.018648602068424225,-0.0013131627347320318,0.02019445039331913
1772537097301890000,7.47989013671875,0.026350995525717735,-0.00952688418328762,0.026602281257510185
1772537097311958000,7.4899580078125,0.019909460097551346,-0.011688129045069218,0.028567137196660042
1772537097322025000,7.50002490234375,0.014547186903655529,-0.010973336175084114,0.021605899557471275
1772537097332093200,7.51009326171875,0.00498951505869627,0.002766840625554323,0.008414534851908684
1772537097342160100,7.52016015625,-0.005142481066286564,0.013292985036969185,-0.008192405104637146
1772537097352228000,7.53022802734375,-0.006597771309316158,0.018902350217103958,-0.024889353662729263
1772537097362296000,7.540296142578125,-0.0029859920032322407,0.020680543035268784,-0.027668362483382225
1772537097372363000,7.550363037109375,0.00400184653699398,0.01347319781780243,-0.02604375034570694
1772537097382431000,7.560430908203125,0.005126233212649822,-0.0006926890928298235,-0.008982473984360695
1772537097392499200,7.570499267578125,0.010057632811367512,-0.010510705411434174,0.0009049223735928535
1772537097402566100,7.580566162109375,0.013813222758471966,-0.018369160592556,0.00711248442530632
1772537097412634000,7.590634033203125,0.012353630736470222,-0.008422458544373512,0.009594524279236794
1772537097422702000,7.6007021484375,0.013172552920877934,0.0004828856326639652,0.00023404601961374283
1772537097432769000,7.61076904296875,0.015101157128810883,0.0018892731750383973,-0.01734367571771145
1772537097442837200,7.620837158203125,0.014612201601266861,0.00169512873981148,-0.0185447596013546
1772537097452905200,7.6309052734375,0.012776914983987808,0.0014136175159364939,-0.013318397104740143
1772537097462972200,7.64097216796875,0.015228355303406715,-0.0010671170894056559,-0.003034600056707859
1772537097473040100,7.6510400390625,0.006356575060635805,0.003619386348873377,0.014693566597998142
1772537097483107000,7.661107177734375,0.00008056976366788149,0.010744141414761543,0.014252281747758389
1772537097493175300,7.67117529296875,0.002484316471964121,0.01306886039674282,0.002946260152384639
1772537097503243300,7.6812431640625,0.007220481988042593,0.00801205076277256,-0.010626540519297123
1772537097513310200,7.691310302734375,0.007626962382346392,0.004926800262182951,-0.015885282307863235
1772537097523378200,7.701378173828125,0.010253106243908405,-0.0009145771618932486,-0.01377925556153059
1772537097533446100,7.711446044921875,0.013807807117700577,-0.0015359546523541212,-0.004346045199781656
1772537097543513000,7.72151318359375,0.013683969154953957,-0.005730966106057167,0.011667275801301003
1772537097553581300,7.731581298828125,0.01274819951504469,-0.00869788508862257,0.02703198418021202
1772537097563648300,7.741648193359375,0.014997505582869053,-0.007219031453132629,0.02740323171019554
1772537097573716200,7.75171630859375,0.016933733597397804,-0.010842205956578255,0.01913769543170929
1772537097583784200,7.7617841796875,0.010023098438978195,-0.008802758529782295,0.0009509690571576357
1772537097593851100,7.77185107421875,0.0032997988164424896,-0.0075520421378314495,-0.009678085334599018
1772537097603919400,7.78191943359375,-0.003592728404328227,-0.011103900149464607,-0.017430545762181282
1772537097613987300,7.7919873046875,-0.0013397210277616978,-0.010818668641149998,-0.02180759236216545
1772537097624054300,7.80205419921875,-0.0027227005921304226,-0.0018121243920177221,-0.023346632719039917
1772537097634122200,7.812122314453125,-0.003443385474383831,0.0024472209624946117,-0.013659385964274406
1772537097644190000,7.82218994140625,-0.006074056029319763,0.004244588315486908,-0.00370076228864491
1772537097654257200,7.832257080078125,-0.010975625365972519,0.0003002672456204891,0.007426931522786617
1772537097664325000,7.8423251953125,-0.008058132603764534,-0.00266622775234282,0.01364221703261137
1772537097674392300,7.852392333984375,-0.007278007455170155,-0.0062382640317082405,0.008319331333041191
1772537097684460300,7.862460205078125,-0.0056588053703308105,-0.006625487469136715,-0.0027873816434293985
1772537097694528000,7.872528076171875,-0.010784151963889599,0.000647729029878974,-0.009856796823441982
1772537097704595200,7.88259521484375,-0.019635699689388275,0.008772500790655613,-0.013428894802927971
1772537097714663200,7.8926630859375,-0.022189315408468246,0.015531972050666809,-0.01838955096900463
1772537097724731100,7.902731201171875,-0.014254959300160408,0.016280852258205414,-0.024786196649074554
1772537097734798000,7.912798095703125,-0.00951699074357748,0.008425218053162098,-0.024257702752947807
1772537097744866000,7.922865966796875,-0.01312983501702547,-0.006350532174110413,-0.006625179201364517
1772537097754934000,7.93293408203125,-0.009320592507719994,-0.016070052981376648,0.0031544945668429136
1772537097765001000,7.9430009765625,-0.0037431337404996157,-0.02119104564189911,0.004265032708644867
1772537097775069200,7.953069091796875,-0.003059297101572156,-0.021577579900622368,0.008519827388226986
1772537097785136000,7.96313623046875,-0.004532291553914547,-0.008787216618657112,0.00622924230992794
1772537097795204000,7.9732041015625,-0.003266105195507407,-0.0027403722051531076,-0.011357811279594898
1772537097805272800,7.98327294921875,0.003732149489223957,-0.002435706788673997,-0.035250093787908554
1772537097815339800,7.99333984375,0.005149487406015396,-0.0009658676572144032,-0.045559417456388474
1772537097825407700,8.00340771484375,0.001064731040969491,0.000295138917863369,-0.04312848672270775
1772537097835475700,8.013475830078125,0.005593462847173214,-0.005303897429257631,-0.03111402317881584
1772537097845542700,8.023542724609374,0.007379910908639431,-0.006664505694061518,-0.013784834183752537
1772537097855611000,8.03361083984375,0.012767957523465157,-0.005346882157027721,0.0002200573217123747
1772537097865678800,8.043678955078125,0.01522498857229948,-0.012332620099186897,0.011909736320376396
1772537097875745800,8.053745849609374,0.0124152647331357,-0.015061130747199059,0.018424347043037415
1772537097885813800,8.063813720703125,0.0038769044913351536,-0.008505759760737419,0.021968480199575424
1772537097895880700,8.073880615234375,-0.004891285672783852,0.011074906215071678,0.016717569902539253
1772537097905949000,8.083948974609376,-0.0074399309232831,0.030841153115034103,0.007690252736210823
1772537097916017000,8.094016845703125,-0.01161029189825058,0.03016434982419014,-0.0016208455199375749
1772537097926083800,8.104083740234374,-0.012262766249477863,0.025907285511493683,-0.0039521767757833
1772537097936151800,8.11415185546875,-0.010744442231953144,0.01048703771084547,0.0012575110886245966
1772537097946219800,8.1242197265625,-0.012664048932492733,0.0024821083061397076,0.011012669652700424
1772537097956286700,8.13428662109375,-0.010841349139809608,-0.006352054886519909,0.01779942959547043
1772537097966355000,8.14435498046875,-0.011041885241866112,-0.004138169344514608,0.02238965407013893
1772537097976422000,8.154421875,-0.015202484093606472,-0.002026787493377924,0.017841828987002373
1772537097986489900,8.16448974609375,-0.02544313855469227,0.005404763389378786,0.016522498801350594
1772537097996557800,8.174557861328125,-0.030448338016867638,0.01203205157071352,0.006368917413055897
1772537098006624800,8.184624755859375,-0.029450982809066772,0.01038195751607418,-0.001363837393000722
1772537098016693000,8.19469287109375,-0.03135943412780762,0.0037562448997050524,-0.0003530834801495075
1772537098026760700,8.2047607421875,-0.030790317803621292,-0.008596029132604599,0.007912036031484604
1772537098036828000,8.214827880859374,-0.02637210674583912,-0.011846955865621567,0.014440917409956455
1772537098046895600,8.2248955078125,-0.017990872263908386,-0.013897323980927467,0.01865510456264019
1772537098056963600,8.234963623046875,-0.012746692635118961,-0.005690089426934719,0.022511739283800125
1772537098067030800,8.24503076171875,-0.010455042123794556,0.000402690377086401,0.022313067689538002
1772537098077098800,8.2550986328125,-0.011363182216882706,-0.00835169292986393,0.01750655099749565
1772537098087166000,8.265166015625,-0.014776289463043213,-0.016377128660678864,0.016334228217601776
1772537098097233700,8.275233642578126,-0.015592844225466251,-0.008761054836213589,0.011229299008846283
1772537098107301600,8.285301513671875,-0.009853465482592583,0.004862878005951643,0.00006692542228847742
1772537098117368600,8.29536865234375,0.001473490847274661,0.008383844047784805,-0.002912885509431362
1772537098127436800,8.305436767578126,0.010488024912774563,0.0011461705435067415,0.002617700956761837
1772537098137504800,8.3155048828125,0.014574204571545124,-0.005327299237251282,0.02109476923942566
1772537098147571700,8.32557177734375,0.01801208034157753,-0.008090062066912651,0.02736677974462509
1772537098157639700,8.3356396484375,0.01960580423474312,-0.007212714292109013,0.03232027217745781
1772537098167707600,8.345707763671875,0.02045801654458046,-0.008056404069066048,0.0282933060079813
1772537098177774600,8.355774658203124,0.019603906199336052,-0.008903097361326218,0.01775921694934368
1772537098187842800,8.3658427734375,0.014769203960895538,-0.003679040353745222,0.003415962914004922
1772537098197909800,8.37590966796875,0.01565464586019516,-0.003416827879846096,-0.0085758613422513
1772537098207977700,8.385977783203124,0.01523013785481453,-0.0029739439487457275,-0.009847519919276237
1772537098218045700,8.396045654296875,0.009514269419014454,-0.007557813078165054,-0.0022623154800385237
1772537098228112600,8.406112548828125,0.0025969743728637695,-0.004548441618680954,0.010999693535268307
1772537098238180900,8.416180908203126,-0.005467535462230444,-0.010830365121364594,0.020969094708561897
1772537098248248800,8.426248779296875,-0.010806374251842499,-0.010001854971051216,0.026448814198374748
1772537098258315800,8.436315673828124,-0.011326811276376247,-0.00011192820966243744,0.017676880583167076
1772537098268383700,8.4463837890625,-0.008861523121595383,0.003872959641739726,0.005479336716234684
1772537098278451700,8.45645166015625,-0.006485953461378813,0.0031590000726282597,0.0010581386741250753
1772537098288518700,8.4665185546875,-0.007665733806788921,-0.0027177974116057158,0.0017721322365105152
1772537098298587000,8.4765869140625,-0.01011729333549738,-0.005446075461804867,0.011527628637850285
1772537098308653800,8.48665380859375,-0.011373240500688553,-0.013691222295165062,0.01706220954656601
1772537098318721800,8.4967216796875,-0.011569219641387463,-0.01257559098303318,0.024960262700915337
1772537098328789800,8.506789794921875,-0.012644071131944656,-0.010964378714561462,0.0324820913374424
1772537098338856700,8.516856689453125,-0.009441820904612541,-0.00574234314262867,0.03284335508942604
1772537098348925000,8.526925048828126,-0.013269582763314247,-0.0030200595501810312,0.025413401424884796
1772537098358993000,8.536992919921875,-0.016260668635368347,0.0005327612161636353,0.02101517841219902
1772537098369059800,8.547059814453124,-0.015885695815086365,0.0016238582320511341,0.005809061229228973
1772537098379127800,8.5571279296875,-0.006223215255886316,0.0024696781765669584,-0.011862077750265598
1772537098389195800,8.56719580078125,-0.008312199264764786,-0.0046958234161138535,-0.013230675831437111
1772537098399262700,8.5772626953125,-0.009444786235690117,-0.014650692231953144,-0.0001331906532868743
1772537098409331000,8.5873310546875,-0.0022798168938606977,-0.014120190404355526,0.015147495083510876
1772537098419398000,8.59739794921875,0.004152187146246433,-0.01139828097075224,0.018995091319084167
1772537098429465900,8.6074658203125,0.0016426906222477555,-0.010393204167485237,0.027059409767389297
1772537098439533800,8.617533935546875,-0.006396207958459854,-0.004349024035036564,0.023610811680555344
1772537098449600800,8.627600830078125,-0.007932852022349834,-0.0008727996610105038,0.0067450134083628654
1772537098459669000,8.6376689453125,-0.0107408557087183,0.004739886615425348,-0.003936437889933586
1772537098469736700,8.64773681640625,-0.018038183450698853,0.014977610670030117,-0.009335198439657688
1772537098479804000,8.657803955078125,-0.013538303785026073,0.0184113010764122,-0.009416386485099792
1772537098489871600,8.66787158203125,-0.0014683254994452,0.005939718335866928,-0.007248306646943092
1772537098499939600,8.677939697265625,0.004454514943063259,-0.004508655518293381,0.0031695773359388113
1772537098510006800,8.6880068359375,0.009227431379258633,-0.013471524231135845,0.008576859720051289
1772537098520074800,8.69807470703125,0.01595999300479889,-0.012831689789891243,0.0050650062039494514
1772537098530142000,8.708141845703125,0.010867231525480747,-0.00721721351146698,0.00538937933743
1772537098540209700,8.718209716796874,0.002667151391506195,0.0023076494690030813,0.005953001789748669
1772537098550277600,8.728277587890625,-0.00023889006115496159,0.010043599642813206,0.001428291667252779
1772537098560344600,8.738344482421875,-0.0003731133183464408,0.012560820206999779,-0.0026937490329146385
1772537098570412800,8.748412841796876,-0.0051835812628269196,0.01467377133667469,0.0004136271309107542
1772537098580480800,8.758480712890625,-0.003511058632284403,0.011483333073556423,-0.006696690339595079
1772537098590547700,8.768547607421874,0.01015122327953577,0.005512258969247341,-0.013859794475138187
1772537098600615700,8.77861572265625,0.015352081507444382,-0.005853880196809769,-0.01501419022679329
1772537098610683600,8.78868359375,0.008170068264007568,-0.011268353089690208,-0.0024022585712373257
1772537098620750600,8.79875048828125,0.0060659414157271385,-0.009712952189147472,0.0007533165626227856
1772537098630818800,8.80881884765625,0.010082520544528961,-0.009061276912689209,-0.0026422138325870037
1772537098640885800,8.8188857421875,0.0011819403152912855,-0.003576264251023531,-0.0015057583805173635
1772537098650953700,8.82895361328125,-0.008963371627032757,0.007676656357944012,-0.0016900490736588836
1772537098661021700,8.839021728515625,-0.011964251287281513,0.017888512462377548,-0.005303873680531979
1772537098671088600,8.849088623046875,-0.01285028550773859,0.0209191907197237,-0.013682978227734566
1772537098681156900,8.859156982421876,-0.013645892031490803,0.025192895904183388,-0.011225607246160507
1772537098691224800,8.869224853515625,-0.002006546361371875,0.01641112193465233,-0.009357133880257607
1772537098701291800,8.879291748046874,0.00025669438764452934,0.0024192018900066614,-0.002370357047766447
1772537098711359700,8.88935986328125,0.0012069102376699448,-0.005241114646196365,0.00873182900249958
1772537098721427700,8.899427734375,0.0030141950119286776,0.0007697481196373701,0.006987594999372959
1772537098731494700,8.90949462890625,0.004297039471566677,0.00041075400076806545,0.00020319223403930664
1772537098741563000,8.91956298828125,0.00799439288675785,-0.002335435478016734,-0.0036682705394923687
1772537098751629800,8.9296298828125,-0.0018260142533108592,-0.0006499208975583315,-0.004581202287226915
1772537098761697800,8.93969775390625,-0.009524383582174778,0.011312234215438366,-0.006218864582479
1772537098771765800,8.949765869140625,-0.01112893782556057,0.01278469618409872,-0.00787641666829586
1772537098781832700,8.959832763671875,-0.008333333767950535,0.01677892729640007,-0.00960594229400158
1772537098791901000,8.96990087890625,-0.003960423171520233,0.014382613822817802,-0.007556106895208359
1772537098801969000,8.979968994140625,-0.004919131752103567,0.00959797203540802,-0.004793472588062286
1772537098812035800,8.990035888671875,-0.002345452783629298,0.0025208881124854088,0.002164035802707076
1772537098822103800,9.000103759765626,0.0026218814309686422,-0.0007208569440990686,0.004945301450788975
1772537098832171800,9.010171875,0.010023072361946106,-0.004444488789886236,0.003714122110977769
1772537098842238700,9.02023876953125,0.014282690361142159,-0.005195556208491325,0.009284267202019691
1772537098852307000,9.030306884765626,0.018530964851379395,-0.009069922380149364,0.010567378252744675
1772537098862374000,9.040373779296875,0.012812431901693344,-0.007746390998363495,0.012881522998213768
1772537098872441900,9.05044189453125,0.007588908076286316,-0.0056486185640096664,0.008875863626599312
1772537098882509800,9.060509765625,-0.002179801929742098,-0.00014165975153446198,0.004721024073660374
1772537098892576800,9.07057666015625,-0.014086262322962284,0.007625715807080269,-0.0013086390681564808
1772537098902645000,9.08064501953125,-0.020921265706419945,0.010708324611186981,-0.01071226131170988
1772537098912712700,9.090712646484375,-0.019711658358573914,0.007717061787843704,-0.014575442299246788
1772537098922780000,9.10077978515625,-0.016138575971126556,-0.001617072382941842,-0.008241849020123482
1772537098932847600,9.11084765625,-0.011563797481358051,-0.00951148010790348,-0.00250673177652061
1772537098942915600,9.12091552734375,-0.00763457827270031,-0.016720473766326904,0.004611554555594921
1772537098952982800,9.130982666015624,-0.0055511873215436935,-0.01621393859386444,0.012777072377502918
1772537098963050800,9.14105078125,-0.0015061714220792055,-0.020517408847808838,0.013107472099363804
1772537098973118000,9.151117919921875,-0.008612550795078278,-0.020085444673895836,0.015541334636509418
1772537098983185700,9.161185546875,-0.011311160400509834,-0.012342337518930435,0.012171455658972263
1772537098993253600,9.171253662109375,-0.01038970798254013,-0.007983008399605751,0.00249406136572361
1772537099003320600,9.181320556640625,-0.011814587749540806,-0.008028651587665081,0.0005882885307073593
1772537099013388800,9.191388916015624,-0.021527403965592384,-0.0005113466177135706,0.0014327769167721272
1772537099023456800,9.201456787109375,-0.017702365294098854,-0.0005878475494682789,0.00012986012734472752
1772537099033523700,9.211523681640625,-0.01659581996500492,0.003026328282430768,0.0006853954400867224
1772537099043591700,9.221591796875,-0.01642833836376667,0.008603219874203205,-0.010370367206633091
1772537099053659600,9.23165966796875,-0.011573661118745804,0.006406644359230995,-0.014044997282326221
1772537099063726600,9.2417265625,-0.005240336526185274,-0.005638192407786846,-0.0134150180965662
1772537099073794800,9.251794921875,-0.016010958701372147,0.0028532971628010273,-0.009754237718880177
1772537099083861800,9.26186181640625,-0.016007734462618828,0.002689199987798929,0.0018748166039586067
1772537099093929700,9.2719296875,-0.011485954746603966,0.001161877065896988,0.003865795908495784
1772537099103997700,9.281997802734375,-0.009701217524707317,-0.0012019600253552198,0.014302389696240425
1772537099114064600,9.292064697265625,-0.013318588957190514,-0.0009372418280690908,0.021288659423589706
1772537099124132900,9.3021328125,-0.01137646846473217,0.0003477828577160835,0.020092085003852844
1772537099134200800,9.312200927734375,-0.008323154412209988,0.001990420510992408,0.01248769648373127
1772537099144267800,9.322267822265625,-0.005548851098865271,0.0006403003353625536,0.006311308592557907
1772537099154335700,9.332335693359376,-0.008216539397835732,-0.008169170469045639,0.004003146663308144
1772537099164403700,9.34240380859375,-0.006930024828761816,-0.013982878066599369,0.0014030479360371828
1772537099174470700,9.352470703125,-0.0011006316635757685,-0.013195647858083248,-0.0018436117097735405
1772537099184539000,9.362538818359376,0.0015864106826484203,-0.019448813050985336,-0.0005322431679815054
1772537099194605800,9.372605712890625,0.0057776933535933495,-0.022191869094967842,-0.0013687419705092907
1772537099204673800,9.382673828125,0.0023940280079841614,-0.01661454699933529,-0.001337246736511588
1772537099214741800,9.39274169921875,0.005065444856882095,-0.009530005045235157,-0.004464596509933472
1772537099224808700,9.40280859375,0.0020178109407424927,-0.01405891589820385,-0.008145114406943321
1772537099234877000,9.412876953125,-0.0022176802158355713,-0.010010644793510437,-0.00013565702829509974
1772537099244945000,9.42294482421875,-0.00503444392234087,-0.002337702317163348,0.00009830889757722616
1772537099255011800,9.43301171875,0.0025315964594483376,0.0020908680744469166,0.003407286712899804
1772537099265079800,9.443079833984376,0.007617403753101826,-0.0002677016891539097,-0.003007427789270878
1772537099275147800,9.453147705078125,0.01071412768214941,-0.005497084930539131,0.0029828203842043877
1772537099285214700,9.463214599609374,0.00996311567723751,-0.004557521548122168,0.003496544435620308
1772537099295283000,9.473282958984376,0.011186305433511734,-0.0021524205803871155,0.002317562699317932
1772537099305350000,9.483349853515625,0.011751880869269371,-0.000029596034437417984,0.0021877072285860777
1772537099315417900,9.49341796875,0.005986403673887253,0.002144342288374901,0.00361649296246469
1772537099325485800,9.50348583984375,0.0031146323308348656,0.005053251050412655,0.005275932140648365
1772537099335552800,9.513552734375,-0.0030609718523919582,0.0032652048394083977,0.0035139848478138447
1772537099345621000,9.52362109375,-0.0024141562171280384,-0.0015626824460923672,0.0018701492808759212
1772537099355688700,9.533688720703125,0.006277069449424744,-0.00009022047743201256,-0.0013658576644957066
1772537099365756000,9.543755859375,0.008722230792045593,0.00538715859875083,-0.009413548745214939
1772537099375823600,9.55382373046875,0.009316116571426392,0.009548347443342209,-0.0038965444546192884
1772537099385891600,9.5638916015625,0.0030851182527840137,0.012992081232368946,0.005789904855191708
1772537099395958800,9.573958740234374,0.005385823082178831,0.005477439612150192,0.008534025400876999
1772537099406026800,9.58402685546875,0.011873490177094936,0.0022669308818876743,0.0030179889872670174
1772537099416094000,9.594093994140625,0.00682520167902112,-0.005173941142857075,0.000939657911658287
1772537099426161700,9.60416162109375,-0.00170738878659904,-0.007063290104269981,0.008615938946604729
1772537099436229600,9.614229736328125,0.0027299702633172274,0.002316896105185151,0.010144593194127083
1772537099446296600,9.624296630859375,0.0033634183928370476,0.009986704215407372,0.008589419536292553
1772537099456364800,9.63436474609375,0.0026560830883681774,0.011533734388649464,0.003168555675074458
1772537099466432800,9.644432861328125,0.004261383321136236,0.010567818768322468,0.007409088313579559
1772537099476499700,9.654499755859375,0.007528815884143114,-0.00004913960583508015,0.012330876663327217
1772537099486567700,9.664567626953126,0.0005805923137813807,-0.011098976247012615,0.015114948153495789
1772537099496634600,9.674634521484375,-0.002363532315939665,-0.010355154983699322,0.02138642780482769
1772537099506702600,9.68470263671875,0.0012620060006156564,-0.006384217645972967,0.012398511171340942
1772537099516770800,9.694770751953126,0.005282314028590918,-0.008031649515032768,-0.0017503316048532724
1772537099526837800,9.704837646484375,0.002489105798304081,-0.006404745392501354,-0.01373821496963501
1772537099536905700,9.71490576171875,-0.008066067472100258,-0.008149649016559124,-0.018786504864692688
1772537099546973700,9.7249736328125,-0.011766056530177593,-0.004246055614203215,-0.015629423782229424
1772537099557040600,9.73504052734375,-0.019024234265089035,-0.0030220667831599712,-0.003964511677622795
1772537099567108900,9.74510888671875,-0.02062816731631756,0.005788837559521198,0.006326221860945225
1772537099577177900,9.755177734375,-0.02087264508008957,0.008153724484145641,0.014617174863815308
1772537099587245800,9.765245849609375,-0.018305420875549316,0.013920610770583153,0.01417885534465313
1772537099597312800,9.775312744140624,-0.01399615965783596,0.009968480095267296,0.014073127880692482
1772537099607381000,9.785381103515626,-0.00836341641843319,0.0030653653666377068,0.0003115220461040735
1772537099617448700,9.79544873046875,-0.005063493736088276,-0.004481766372919083,0.0005799685604870319
1772537099627516000,9.805515869140624,-0.0030634349677711725,-0.003483620472252369,0.0037817663978785276
1772537099637583600,9.81558349609375,-0.00013449043035507202,-0.0052445027977228165,0.0017606934998184443
1772537099647650800,9.82565087890625,0.0006227971753105521,-0.0037321888376027346,0.002415141323581338
1772537099657718800,9.83571875,-0.004520565737038851,-0.0002554322127252817,0.0037608363199979067
1772537099667786800,9.845786865234375,-0.01241160649806261,-0.004162964876741171,0.000014250865206122398
1772537099677853700,9.855853759765624,-0.013778341002762318,-0.0031022275798022747,0.0003711143508553505
1772537099687921700,9.865921630859376,-0.009562820196151733,0.0035525194834917784,-0.010356326587498188
1772537099697989600,9.87598974609375,-0.002837538719177246,0.0039277588948607445,-0.015335106290876865
1772537099708056600,9.886056640625,-0.001766272704117,-0.005779107101261616,-0.009569063782691956
1772537099718124800,9.896124755859375,0.0012159351026639342,-0.016221094876527786,-0.0028136891778558493
1772537099728192800,9.90619287109375,0.014040444977581501,-0.021617431193590164,-0.0029707597568631172
1772537099738259700,9.916259765625,0.024245943874120712,-0.02291865088045597,-0.0022019052412360907
1772537099748327700,9.92632763671875,0.0260769035667181,-0.022309206426143646,-0.0011507589370012283
1772537099758394600,9.93639453125,0.02504120022058487,-0.024592600762844086,-0.0018237397307530046
1772537099768462600,9.946462646484376,0.024862146005034447,-0.020883452147245407,-0.009961040690541267
1772537099778530800,9.95653076171875,0.015278760343790054,-0.01557417307049036,-0.00958207342773676
1772537099788597800,9.96659765625,0.0027734115719795227,-0.0026122743729501963,-0.008126331493258476
1772537099798666000,9.976666015625,0.001304411911405623,0.005883475765585899,-0.01154369954019785
1772537099808734000,9.98673388671875,0.006739921402186155,0.011134657077491283,-0.008814534172415733
1772537099818801000,9.99680078125,0.007360171992331743,0.01429982390254736,-0.002110292436555028
1772537099828869000,10.006869140625,0.0030851182527840137,0.007203700952231884,0.00010725180618464947
1772537099838937000,10.01693701171875,0.00048800359945744276,0.007403171621263027,0.000159183400683105
1772537099849004000,10.027004150390624,0.0038971458561718464,0.003703009570017457,-0.0031456169672310352
1772537099859072000,10.037072021484375,-0.002008946379646659,0.006399992853403091,-0.003528313245624304
1772537099869139000,10.047138916015625,-0.0073775798082351685,0.00967708695679903,-0.004206664394587278
1772537099879207200,10.057207275390626,-0.014146536588668823,0.015682248398661613,-0.005149423144757748
1772537099889275100,10.067275146484375,-0.014714347198605537,0.023516742512583733,-0.008867872878909111
1772537099899342000,10.077342041015624,-0.010330784134566784,0.02469758875668049,-0.010383478365838528
1772537099909410000,10.08741015625,-0.01149805635213852,0.014989752322435379,-0.01459081843495369
1772537099919478000,10.09747802734375,-0.019358642399311066,-0.0071712094359099865,-0.014202795922756195
1772537099929545000,10.107544921875,-0.024949880316853523,-0.015699567273259163,-0.005636563524603844
1772537099939613200,10.11761328125,-0.02812250331044197,-0.00975379440933466,-0.006787049118429422
1772537099949681200,10.12768115234375,-0.024281732738018036,0.0034351295325905085,-0.018824797123670578
1772537099959748000,10.137748046875,-0.014004592783749104,0.0010369529481977224,-0.010564735159277916
1772537099969816000,10.147816162109375,0.0014795268652960658,-0.061785757541656494,0.061636269092559814
1772537099979883000,10.157883056640625,0.008767000399529934,-0.06497249752283096,0.05460738390684128
1772537099989951200,10.167951171875,0.013051141984760761,-0.008991009555757046,0.010908976197242737
1772537100000019200,10.178019287109375,-0.0006047484930604696,0.024068139493465424,-0.0407014861702919
1772537100010086100,10.188086181640625,-0.020929139107465744,0.021577579900622368,-0.05765032023191452
1772537100020154000,10.198154052734376,-0.03064514882862568,0.008973637595772743,-0.049130868166685104
1772537100030221800,10.208221923828125,-0.022721651941537857,-0.008729923516511917,-0.03443917632102966
1772537100040289000,10.2182890625,-0.009703587740659714,-0.00224858894944191,-0.02076011523604393
1772537100050357000,10.22835693359375,-0.0002985447645187378,0.00012119417078793049,-0.014234557747840881
1772537100060425000,10.238425048828125,0.0012319738743826747,0.006723170168697834,0.001005115220323205
1772537100070492000,10.248491943359374,-0.002437862101942301,0.02123286947607994,-0.00044577487278729677
1772537100080559900,10.258559814453125,-0.004187026526778936,0.019825655966997147,0.0027478879783302546
1772537100090627000,10.268626953125,0.002492564730346203,0.02965601347386837,-0.005030252039432526
1772537100100695000,10.278695068359376,0.0049906098283827305,0.02906159497797489,-0.009261482395231724
