time,seconds_elapsed,z,y,x
1772537127493793300,0.075793212890625,0.021587562429904936,0.09355623557567595,0.01636179060563445
1772537127503861500,0.085861572265625,0.004469546629488468,0.14616262112557887,0.06036854398399591
1772537127513929500,0.095929443359375,-0.0157943659812212,0.16349544872045516,0.07494125921577215
1772537127523996400,0.105996337890625,-0.014177578434348106,0.1726554912537336,0.05992533026114106
1772537127534064400,0.116064453125,0.024725860455632208,0.14932137741744517,0.00018894670084118842
1772537127544132400,0.12613232421875,0.09212474146783352,0.10645897176861763,0.007858604545891285
1772537127554199300,0.13619921875,0.17935060497820376,0.07358779878020286,0.014471008422970772
1772537127564267500,0.146267578125,0.16665508179515598,0.031788638448715205,-0.027439649458974598
1772537127574335200,0.156335205078125,0.13678747453689574,0.010317980396747589,-0.06539280188679694
1772537127584402400,0.16640234375,0.07956161249279975,0.001631400594115257,-0.06256824598535896
1772537127594470100,0.17647021484375,0.029084055665135382,0.019867899030447004,-0.03574292903244495
1772537127604538000,0.1865380859375,0.006379471904039383,0.03830956465005875,0.01694032114595175
1772537127614605300,0.196605224609375,-0.04475654883235693,0.04409516231417656,0.057460693713277576
1772537127624673300,0.20667333984375,-0.09044628686159849,0.03985445600450039,0.034599311955273146
1772537127634741200,0.2167412109375,-0.1291100717768073,-0.004991816937923431,-0.011867109534889458
1772537127644808200,0.22680810546875,-0.09485650451928376,-0.026603929287195204,0.0456008907020092
1772537127654876200,0.236876220703125,-0.01631926663815975,-0.00029401451051235195,0.11317498215064406
1772537127664944400,0.2469443359375,-0.014914660537242889,-0.0037537995755672453,0.1074403840214014
1772537127675011300,0.25701123046875,-0.09994973600506782,-0.012187281399965286,0.035479163529723884
1772537127685079300,0.267079345703125,-0.11572159789353609,0.0015764555364847182,0.05694119988381862
1772537127695147300,0.277147216796875,-0.10881254915744065,0.025813071170449255,0.08976751081719994
1772537127705214200,0.287214111328125,-0.11684943287968635,0.012284896555542945,0.07644085012376307
1772537127715282200,0.2972822265625,-0.09348726199269294,-0.01447977625131607,0.07640607107132673
1772537127725349400,0.307349365234375,-0.04014730147123337,-0.0002583586752414703,0.08767492245212197
1772537127735417300,0.317417236328125,-0.01757511191815138,-0.012882277926802634,0.0549292755395174
1772537127745485300,0.3274853515625,-0.0718821639060974,-0.05754384195208549,-0.045629240013659
1772537127755552300,0.33755224609375,-0.10824264031499624,-0.07823650136888027,-0.09027560646981
1772537127765620200,0.3476201171875,-0.08039718653410673,-0.06464870552122592,-0.045412236262112854
1772537127775688400,0.3576884765625,-0.05453939943909645,-0.05657353561520576,-0.049399406202137466
1772537127785755400,0.36775537109375,-0.04309095370769501,-0.06337269423604011,-0.07014759519845247
1772537127795823400,0.3778232421875,-0.0008636310920119285,-0.059980129188299175,-0.061352586585283274
1772537127805891300,0.387891357421875,0.046348201937973496,-0.03262275118529796,-0.039300913774967194
1772537127815958300,0.397958251953125,0.06641805328130722,0.0034089316606521606,-0.037016456099599596
1772537127826026200,0.408026123046875,0.05883505080640316,0.029511341166496275,-0.019617723661661146
1772537127836094500,0.418094482421875,0.0869163591697812,0.05528524937033653,0.014136077380180358
1772537127846161700,0.42816162109375,0.10268588297069071,0.07098550732731819,0.060767187912762165
1772537127856229600,0.438229736328125,0.08545125505328179,0.07992752319574356,0.07190598317310214
1772537127866297600,0.448297607421875,0.06180266844034195,0.07684417022764682,0.05120806305930018
1772537127876364500,0.458364501953125,0.01610591614842415,0.07622399250268935,0.02204699663519859
1772537127886432500,0.4684326171875,-0.004230769437551498,0.06041793608367443,-0.01022051137164235
1772537127896500500,0.47850048828125,-0.024418109680712223,0.03696750239133834,-0.029998540161550045
1772537127906567700,0.488567626953125,-0.04390285461246967,0.024885434931516646,-0.08059709302037954
1772537127916635400,0.498635498046875,-0.05774491748213768,0.007866495591402053,-0.08346037349700927
1772537127926703400,0.508703369140625,-0.03863280525505543,-0.005593874484300613,-0.06769435682743788
1772537127936770600,0.5187705078125,-0.0058019642770290375,0.02438508419394493,-0.01147664891257882
1772537127946838300,0.52883837890625,0.01480827755331993,0.04786299041509628,0.017807459369301795
1772537127956906500,0.538906494140625,-0.03147182758450508,0.03694236795008182,-0.00804199828878045
1772537127966973400,0.548973388671875,-0.08583850080519914,0.02443476855456829,0.008543956461548805
1772537127977041400,0.55904150390625,-0.06133680449426174,0.05796762032210827,0.029626199717819688
1772537127987109400,0.569109375,-0.05864829606264829,0.05480243428945541,0.020805472141504286
1772537127997176300,0.57917626953125,-0.052120063337683674,0.05062485634386539,-0.011767156291753053
1772537128007244500,0.58924462890625,0.019779928486049175,0.05016600666046142,0.01224631811082363
1772537128017312500,0.5993125,0.09067132778912781,0.04136719865500927,0.08265607137680053
1772537128027379500,0.60937939453125,0.09979133057296276,0.04489654182493687,0.07691328994110226
1772537128037447400,0.619447509765625,0.04576134196072817,0.007384849554300308,0.030284371365606782
1772537128047515400,0.629515380859375,0.0026379472881555557,-0.02473404376208782,0.022548078025132416
1772537128057582300,0.639582275390625,-0.018287644101679323,-0.02762450450658798,-0.03307970117256045
1772537128067650600,0.649650634765625,-0.03393734091520309,-0.052559623798727986,-0.11526757051572203
1772537128077718500,0.659718505859375,0.00623012656122446,-0.03302139511406421,-0.11233560871705413
1772537128087785500,0.669785400390625,0.0786877522677183,-0.004879588735103607,-0.06513985003903508
1772537128097853400,0.679853515625,0.05955488951355219,0.01220189444720745,-0.04490267930477857
1772537128107921700,0.689921630859375,0.017220014870166778,0.0587502951323986,-0.01026581181809306
1772537128117988600,0.699988525390625,0.014412556234002113,0.11870587440133094,0.08037424404993652
1772537128128056600,0.710056640625,0.0326627909347415,0.17533026342093944,0.16434373611286282
1772537128138124500,0.72012451171875,0.019301205058395863,0.19260054717361927,0.1964981391340494
1772537128148191500,0.73019140625,-0.02397884148061275,0.1801467237919569,0.17355331687629222
1772537128158259500,0.740259521484375,-0.07536474532485007,0.16654080776572228,0.12399258263260125
1772537128168327700,0.75032763671875,-0.13152443944215775,0.11387246289551257,0.06087532446235418
1772537128178394600,0.76039453125,-0.17549597537666559,0.05100304200649261,-0.014844225649535655
1772537128188462600,0.770462646484375,-0.16687164715528488,0.015729484051465986,-0.019311872582882642
1772537128198530600,0.780530517578125,-0.13748364010751246,-0.008631634745001792,-0.0009016250148415565
1772537128208597500,0.790597412109375,-0.13545038071423768,-0.029386253482103344,-0.004885726214945316
1772537128218665500,0.80066552734375,-0.16708879703730345,-0.024554011020064354,-0.042461423632502555
1772537128228733400,0.8107333984375,-0.18109511055797337,-0.025541268491744994,-0.07740268089324236
1772537128238800600,0.820800537109375,-0.13909019852131604,-0.02744680985212326,-0.06949278455153107
1772537128248868400,0.830868408203125,-0.05521861387491226,-0.000661094257235527,-0.05744914940595627
1772537128258936300,0.840936279296875,0.03522942655235529,0.018799977537989614,-0.007327420278638601
1772537128269003300,0.851003173828125,0.11867664830684661,0.03919511531293392,0.07869564331322908
1772537128279071500,0.861071533203125,0.14942717587947846,0.07025894661843776,0.12600173049792646
1772537128289139500,0.871139404296875,0.12203735691159963,0.08722878611981869,0.1212546821013093
1772537128299206400,0.881206298828125,0.06749211225360631,0.08856675672531128,0.08487593938335776
1772537128309274400,0.8912744140625,0.060602060478925704,0.06624152767062187,0.06635200230777263
1772537128319342300,0.90134228515625,0.03454436689764261,0.007317045015096664,-0.012062632106989622
1772537128329409500,0.911409423828125,0.03331657866835594,-0.04100771769285202,-0.059222004297375674
1772537128339477500,0.9214775390625,0.07554477806687354,-0.06237608441412448,-0.036862872973084444
1772537128349544400,0.93154443359375,0.05572948600649833,-0.07093114679157733,-0.03583352992534637
1772537128359612400,0.9416123046875,-0.018932956267893312,-0.05826748005151748,-0.04651654424220323
1772537128369680400,0.951680419921875,-0.0486813210606575,-0.013383213186264037,0.002423427754640579
1772537128379747300,0.961747314453125,-0.09424772497117519,0.007526303851604461,0.048396658900380134
1772537128389815600,0.971815673828125,-0.1238558045104146,0.03658931672871112,0.0644135815910995
1772537128399883500,0.981883544921875,-0.13517419412136078,0.05006546889543533,0.04743497426137328
1772537128409950500,0.991950439453125,-0.10185323153883218,0.03961538655161857,0.025725831278413533
1772537128420018400,1.002018310546875,-0.0870695039048791,0.01543137788772583,-0.02235679323673248
1772537128430086400,1.01208642578125,-0.06846592572182417,0.006786299139261246,-0.027170038737356662
1772537128440153600,1.022153564453125,0.0021425649866461754,0.03311258052885532,-0.0011224281586706638
1772537128450221600,1.0322216796875,0.045941374702751635,0.05762333692908287,0.06651362261027097
1772537128460289500,1.04228955078125,0.04484364259392023,0.0652162762761116,0.05077960851415991
1772537128470356500,1.0523564453125,0.0023097382470965385,0.05571662652492523,0.02119564050287008
1772537128480424400,1.062424560546875,-0.01955225721001625,0.05074176072180271,0.00866685218885541
1772537128490492700,1.07249267578125,-0.020083295346796513,0.07024141096174717,-0.009393412897735834
1772537128500559600,1.0825595703125,-0.004844225160777569,0.06403320397138595,-0.035104192737489937
1772537128510627600,1.092627685546875,0.013551263229548931,0.043972412717342375,-0.04044043919891119
1772537128520695600,1.102695556640625,0.03987432974874973,0.022702245673537253,-0.03146729753986001
1772537128530762500,1.112762451171875,0.04241057022809982,0.024801848301291465,-0.02616524560898542
1772537128540830500,1.12283056640625,0.016477964331209658,0.002118307328224182,-0.030194501125067472
1772537128550898400,1.1328984375,-0.010550912369787693,-0.0235889653801918,-0.06657368223443627
1772537128560965600,1.142965576171875,-0.0479427776530385,-0.03770283092856407,-0.08600508954375982
1772537128571033600,1.15303369140625,-0.06565525221526622,-0.04906359837651252,-0.06944938380122184
1772537128581101300,1.163101318359375,-0.10750029751509427,-0.05525017805695533,-0.06350508844405413
1772537128591168500,1.17316845703125,-0.1317395434975624,-0.05440612844824791,-0.05819777581617236
1772537128601236500,1.183236572265625,-0.13235767539590595,-0.06935936743021011,-0.045540100425481796
1772537128611304400,1.193304443359375,-0.0970575216948986,-0.04837912324368954,-0.006037380468100309
1772537128621371400,1.203371337890625,-0.04894786304235458,-0.033033670073747634,0.02421893384680152
1772537128631439400,1.213439453125,-0.05578501558601856,-0.024469839867949483,0.014940233369916676
1772537128641507300,1.22350732421875,-0.04849602762162685,-0.02528700146973133,-0.0393820161871612
1772537128651574300,1.23357421875,-0.03618015140593052,-0.02547171038687229,-0.03783113348335027
1772537128661642500,1.243642578125,0.016864041039347646,-0.014160627299547195,-0.028582974275201557
1772537128671710500,1.25371044921875,0.034358488936722276,0.000029810616374015806,-0.045038434513658285
1772537128681777400,1.26377734375,0.03807692493796348,-0.012241057413816451,-0.03738528941199183
1772537128691845400,1.273845458984375,0.06961012732088566,0.01800678133368492,-0.011337094311416149
1772537128701913600,1.28391357421875,0.0753419489711523,0.04754734859466552,0.006423603306710719
1772537128711980500,1.29398046875,0.033327976845204825,0.07430734522640704,0.023709084628522396
1772537128722048500,1.304048583984375,-0.0007905658558011055,0.09145780199170112,0.005868892033398151
1772537128732116500,1.314116455078125,-0.03682224870175123,0.09634148238003254,0.006975684231519699
1772537128742183400,1.324183349609375,-0.06941051309555768,0.08871054911017417,-0.022918372642248868
1772537128752251400,1.33425146484375,-0.08244330540895461,0.07191898878514766,-0.061210109374672174
1772537128762319600,1.344319580078125,-0.03400105380117893,0.057389528173208235,-0.040661534603685136
1772537128772386600,1.354386474609375,0.012790800251066685,0.06190554429292679,0.016443039148300885
1772537128782454500,1.36445458984375,0.03747954356670379,0.07151274607181549,0.07067541846483945
1772537128792522500,1.3745224609375,-0.02158902373462915,0.08297054415345191,0.0714703682348132
1772537128802589400,1.38458935546875,-0.09569295534342527,0.07689794624149798,0.03457841529771685
1772537128812657700,1.39465771484375,-0.144019471617043,0.07850713500380516,0.010674831010401249
1772537128822725600,1.4047255859375,-0.1505710852175951,0.08281623037457465,-0.011432955901324749
1772537128832792600,1.41479248046875,-0.1062555581510067,0.06851239521205425,-0.017329612724483013
1772537128842860500,1.424860595703125,-0.09445523024201392,0.057144028979539865,-0.030665479637682437
1772537128852928500,1.434928466796875,-0.06010697043836116,0.04867781392931938,-0.01872588938847184
1772537128862995500,1.444995361328125,-0.019757716654241083,0.042643794462084765,0.0229212952516973
1772537128873063400,1.4550634765625,0.017125322324037552,0.0540010547786951,0.0822534819252789
1772537128883131400,1.46513134765625,0.039461657294631004,0.08406009295582771,0.14778890715315937
1772537128893198600,1.475198486328125,0.0394487978130579,0.10182020605206489,0.16537483272626996
1772537128903266300,1.485266357421875,0.020279694701731205,0.09941139134466648,0.1483952024832368
1772537128913334300,1.495334228515625,0.01308247667402029,0.0890367123246193,0.11442322864606976
1772537128923401500,1.5054013671875,0.023875088845193383,0.06823474731445311,0.06821765004917979
1772537128933469400,1.515469482421875,0.0020981413230299947,0.021146832925081252,-0.031190672555565832
1772537128943536600,1.52553662109375,-0.08346154254078865,-0.05345861846506595,-0.15820815596729515
1772537128953604400,1.535604248046875,-0.09187252027243376,-0.10437456670999526,-0.1245585459522903
1772537128963672300,1.54567236328125,-0.07168664133399724,-0.09827624983489512,-0.04923939333483576
1772537128973739300,1.5557392578125,-0.08774111955612897,-0.08968202449083328,-0.01077887590676546
1772537128983807500,1.565807373046875,-0.11753829192668198,-0.06147825879156589,0.012078706458956003
1772537128993875500,1.57587548828125,-0.12997136478126048,-0.013094459372758865,0.05137669762447476
1772537129003942400,1.5859423828125,-0.12106558926999568,0.007352116328477859,0.06931582054942846
1772537129014010400,1.59601025390625,-0.07653992658406496,0.026844752305746077,0.07348083127439022
1772537129024078300,1.606078369140625,-0.0422241077452898,0.02983049011826515,0.07089549095630646
1772537129034145300,1.616145263671875,0.024098668467998505,0.07257657591104508,0.08922259028553962
1772537129044213500,1.626213623046875,0.04749152675420046,0.09047171356379985,0.09925620078295469
1772537129054281500,1.636281494140625,0.04787263502627611,0.10214286213517189,0.07549100205302238
1772537129064348400,1.646348388671875,0.002975216418504715,0.08507599200010299,0.03982230730056763
1772537129074416400,1.65641650390625,-0.028364509218931196,0.07222118660211563,-0.004894201782345771
1772537129084484400,1.666484375,-0.02830722607374191,0.05814999115169048,-0.023613223038613795
1772537129094551600,1.676551513671875,-0.016029343780875206,0.031152094110846518,-0.031694968815892934
1772537129104619500,1.68661962890625,-0.03197977710664272,0.019489128845930098,-0.050205461888015265
1772537129114687500,1.6966875,-0.033062896168231964,0.025702012011408804,0.00016834230422973633
1772537129124754400,1.70675439453125,-0.019547288773953914,0.05541501322984695,0.07591741077154875
1772537129134822400,1.716822509765625,-0.07518705067038535,0.08233867599070072,0.07036240699291228
1772537129144890600,1.726890625,-0.1314312082007527,0.09186053757369518,0.07269362641945482
1772537129154957600,1.73695751953125,-0.14343582651019096,0.11750877357125282,0.0693370094679296
1772537129165025500,1.747025634765625,-0.12810410960465668,0.0840606774777174,0.020033903247117995
1772537129175093500,1.757093505859375,-0.09373159214258193,0.03717968383729458,-0.015015490563213824
1772537129185160400,1.767160400390625,-0.038271570727229115,0.014533552265167235,-0.044050446389615534
1772537129195228400,1.777228515625,0.0030801380977034565,-0.0194411980509758,-0.07881094025596976
1772537129205296600,1.787296630859375,0.01959229695945978,-0.050776832035183905,-0.10188464959040283
1772537129215363600,1.797363525390625,0.0508686019718647,-0.033761984348297115,-0.07890446375831961
1772537129225431600,1.807431640625,0.050260114684700964,-0.009923428121209143,-0.05948270106017589
1772537129235499300,1.817499267578125,0.07332710201740264,0.03331716319024563,0.007946282829344273
1772537129245566500,1.82756640625,0.10523469067066907,0.06351590209901332,0.0460221848540008
1772537129255634400,1.837634521484375,0.07673048072010279,0.054554012486338614,-0.006698913116753101
1772537129265702400,1.847702392578125,0.06915449250787496,-0.012269114464521407,-0.0580718113489449
1772537129275769600,1.85776953125,0.11762860055863857,-0.031161446461081502,-0.06922258930802346
1772537129285837300,1.86783740234375,0.15516601179242134,-0.02909282349348068,-0.08312325049713254
1772537129295905300,1.8779052734375,0.11370119798183441,-0.056302317458391184,-0.09675327805131673
1772537129305972200,1.88797216796875,0.08240414244234562,-0.054772039151191707,-0.09984481432586907
1772537129316040400,1.89804052734375,0.031635493713617326,-0.040301030728220937,-0.06524521010965109
1772537129326108400,1.9081083984375,-0.010910101071000098,-0.004845101943612098,-0.04039090096876025
1772537129336175400,1.91817529296875,-0.03690700437575579,0.009829320096969603,0.005761778397113084
1772537129346243300,1.928243408203125,-0.0414443555444479,0.029124972197413442,0.055809127113968134
1772537129356311600,1.9383115234375,-0.05548427907377481,0.03713233756422996,0.05967340132668614
1772537129366378500,1.94837841796875,-0.053395782361924646,0.02940262009501457,0.03999927130267024
1772537129376446500,1.958446533203125,-0.06620002661645412,0.016976269242167472,0.04287073508575558
1772537129386514400,1.968514404296875,-0.07249532736837863,0.024224925196170807,0.016948504452407358
1772537129396581400,1.978581298828125,-0.0881692818403244,0.04917524205744266,0.02200608010292053
1772537129406649300,1.9886494140625,-0.09670154786407947,0.06996668567359447,0.03467749175801873
1772537129416717600,1.998717529296875,-0.12803688958734274,0.07472410933375358,0.040341801130026576
1772537129426784500,2.008784423828125,-0.14737521178573368,0.05589899735450744,0.05356120205670595
1772537129436852500,2.0188525390625,-0.12207681213915347,0.0228963069409132,0.06230827987492084
1772537129446919400,2.02891943359375,-0.0655909548074007,0.009367547804117202,0.06792115132063627
1772537129456987400,2.0389873046875,-0.012133797647058964,0.0057721536606550215,0.06972498587220907
1772537129467055600,2.0490556640625,-0.002639700853824615,0.0094242464274168,0.05493833562880754
1772537129477122600,2.05912255859375,0.017210662519931794,0.029408465313911437,0.05257540588974952
1772537129487190500,2.0691904296875,0.024957038863003253,0.03075169661641121,0.0485058183632791
1772537129497258500,2.079258544921875,0.01019026236385107,0.033279753789305686,0.001758241844177246
1772537129507325400,2.089325439453125,0.003351648515462875,0.04440671248137951,-0.008584142341464757
1772537129517393400,2.099393310546875,0.0778647454470396,0.058847325766086575,0.031268852358311415
1772537129527461600,2.109461669921875,0.13790274230241775,0.05524141022861004,0.07708937716037034
1772537129537528600,2.119528564453125,0.0899886062219739,0.015869184783101082,0.017838292898982762
1772537129547596500,2.129596435546875,0.01753448764681816,0.0005319149196147918,-0.01497866568416357
1772537129557664500,2.13966455078125,-0.0024286884516477583,0.010484569135308265,-0.0004923135615885258
1772537129567731500,2.1497314453125,-0.047671851757168766,0.006233341431617736,-0.01965162593126297
1772537129577799700,2.159799560546875,-0.12140490422695875,-0.02064414409995079,-0.06485065783411265
1772537129587867400,2.169867431640625,-0.13060089485645293,-0.0028308395117521284,-0.07718260840177535
1772537129597934600,2.1799345703125,-0.08904606467485428,0.030651743373274802,-0.045685500245541334
1772537129608002300,2.190002197265625,-0.04857552259862423,0.039276363855600356,-0.01115253152474761
1772537129618070300,2.2000703125,-0.016187456952035426,0.05162380425333976,0.017825141156464813
1772537129628137500,2.210137451171875,0.02286094336658716,0.0702139384329319,0.06901596082001923
1772537129638205400,2.220205322265625,0.06242489199191331,0.09361059611141681,0.11728870107978581
1772537129648273400,2.2302734375,0.0602624532610178,0.10622691657841205,0.09635185764357447
1772537129658340400,2.24034033203125,0.04845949500352144,0.0890010564893484,0.06395721612572669
1772537129668408300,2.250408203125,0.02357376781105995,0.05824176108837127,0.023284721736609934
1772537129678476300,2.260476318359375,-0.012600830636918544,0.01575987918972969,-0.04211085662916302
1772537129688543500,2.27054345703125,-0.03126052292138338,-0.02258475677371025,-0.0776170542962849
1772537129698611500,2.280611572265625,-0.04486322407722473,-0.05113046777844429,-0.10168342792987822
1772537129708679400,2.290679443359375,-0.05578560010790824,-0.09430325455069541,-0.11467954149469732
1772537129718746400,2.300746337890625,-0.040759880411624906,-0.0949795463770628,-0.11022285434678196
1772537129728814300,2.310814453125,-0.029391514179110526,-0.06588906097114086,-0.05782455858960747
1772537129738882600,2.320882568359375,0.003796469673514366,-0.004465747237205505,0.011257891595363617
1772537129748949500,2.330949462890625,0.01932254010736942,0.04590834921598434,0.06696326607391238
1772537129759017500,2.341017578125,0.046727264383435246,0.10299334148466587,0.11695844621211289
1772537129769085400,2.35108544921875,0.03322773134112358,0.12841186037957666,0.12879092282503843
1772537129779152400,2.36115234375,0.00838379746377468,0.13785656507313251,0.0877992794841528
1772537129789220400,2.371220458984375,0.021949381479620934,0.1301712712675333,0.06128916596025228
1772537129799288600,2.38128857421875,0.01736117690652609,0.09090659784972667,0.01814180589020252
1772537129809355500,2.39135546875,0.011389116759598255,0.05452537091374397,-0.03673267072215676
1772537129819423500,2.401423583984375,-0.0018342296898365019,0.04873743516206741,-0.036284634693711994
1772537129829491500,2.411491455078125,0.022764789515733717,0.03807517137229442,0.00020355974808335304
1772537129839558400,2.421558349609375,-0.027929332672059534,0.0475526092916727,-0.010097323383390902
1772537129849626400,2.43162646484375,-0.09014788843691349,0.06062134970128536,-0.020328356149047613
1772537129859694300,2.4416943359375,-0.10446107594966887,0.06403086588382721,0.02501724461764097
1772537129869761500,2.451761474609375,-0.11365151362121105,0.04996960730552673,0.014558102184534072
1772537129879829500,2.46182958984375,-0.10689297927170992,0.07161620644629,0.007052841120958328
1772537129889897500,2.4718974609375,0.02110065569579601,0.06466214952468871,0.0688023180693388
1772537129899964400,2.48196435546875,0.12090426122844218,0.0508159950017929,0.1028024950876832
1772537129910032400,2.492032470703125,0.09235475083142518,0.027001988694071766,0.053207566313445566
1772537129920100400,2.502100341796875,0.038618776729702944,0.024373393756151197,0.00045183542072772977
1772537129930167600,2.51216748046875,0.006031096857786179,0.02335164949297905,-0.006307721842080355
1772537129940235300,2.5222353515625,-0.02968406738489866,-0.0033744448691606518,-0.0017794307626783847
1772537129950303200,2.53230322265625,-0.05719429786205291,-0.019223171386122704,-0.0007338672325015068
1772537129960370200,2.5423701171875,-0.060225628381967544,-0.023751462465524672,0.03097834497913718
1772537129970438400,2.5524384765625,-0.07660451625287533,-0.04694938270151615,0.0043427053794264795
1772537129980506400,2.56250634765625,-0.11315554679781198,-0.06602817718088627,-0.05131912221834063
1772537129990573300,2.5725732421875,-0.10591010571420192,-0.06906476839780808,-0.054723962225764984
1772537130000641300,2.582641357421875,-0.0902189078465104,-0.0837643248796463,-0.02025456026047468
1772537130010708200,2.592708251953125,-0.06651859104633331,-0.049963762086629865,0.00438099156320095
1772537130020776200,2.602776123046875,-0.03187660899311304,-0.006029927814006805,0.03688172380402684
1772537130030844400,2.612844482421875,-0.026858780831098553,0.008956628915667533,0.049656741964071986
1772537130040911400,2.622911376953125,-0.01607669005393982,0.009638765960931777,0.07873392949700356
1772537130050979300,2.632979248046875,-0.0005336684852838516,0.022581834164261818,0.057183630337566134
1772537130061047300,2.64304736328125,-0.007433364871144294,0.012227028888463973,0.016009908428043125
1772537130071114200,2.6531142578125,0.0017830840244889257,0.008612345522642135,0.0010772738426923752
1772537130081182500,2.663182373046875,0.03991173914968967,0.017630933758616445,-0.0005031272165477276
1772537130091250400,2.67325048828125,0.03880290112495422,0.02651215935051441,0.0015020751260221004
1772537130101317400,2.6833173828125,0.020799919183552264,0.05699146876633167,-0.03244622557461262
1772537130111385300,2.69338525390625,0.014879881484806536,0.055986675637960434,-0.026195056225359437
1772537130121453300,2.703453369140625,0.011686053879559039,0.05061842660307884,0.019029840771108864
1772537130131520300,2.713520263671875,0.013401333364844321,0.06719137574136257,0.046400516647100445
1772537130141588500,2.72358837890625,-0.022910335466265676,0.06523673454225062,0.0007787292875349522
1772537130151656400,2.733656494140625,-0.05796352866888046,0.004345335727930068,-0.052044660013914106
1772537130161723400,2.743723388671875,-0.05759907927066087,-0.026061492973566053,-0.029529753606021402
1772537130171791400,2.753791259765625,-0.002148117944598198,0.004072948527336121,0.022483342225849627
1772537130181859300,2.763859375,-0.0037853637576103208,0.03774783911406994,0.013420622587203978
1772537130191926500,2.773926513671875,-0.05284516274183988,0.03248363497555256,0.01041574168279767
1772537130201994500,2.783994384765625,-0.09285480930805205,0.03954758201241493,0.043994916810095305
1772537130212062500,2.7940625,-0.07496025617718696,0.10142974542975425,0.08308701013997197
1772537130222129400,2.80412939453125,-0.045509120765328405,0.16258827074766158,0.1275647420309484
1772537130232197400,2.814197265625,-0.03484101175665855,0.15203648159503935,0.06483253765553236
1772537130242265300,2.824265380859375,-0.053046822793781756,0.1011053357809782,-0.01354863288104534
1772537130252332500,2.83433251953125,0.035545360633730885,0.09543138179779052,0.011956249123066663
1772537130262400500,2.844400390625,0.13647563210874794,0.09899988793432712,0.12054010409116744
1772537130272468200,2.85446826171875,0.08007073105871677,0.0747802234351635,0.05030789934918284
1772537130282535400,2.864535400390625,-0.06281126096099615,-0.007261515435576438,-0.04473375247865915
1772537130292603100,2.87460302734375,-0.08078355550318955,-0.015617255848646164,-0.032613837226480244
1772537130302671400,2.88467138671875,-0.0798082807302475,-0.018214871126413346,-0.05554550774171948
1772537130312738300,2.89473828125,-0.1090747072249651,-0.05947101062238216,-0.09041691463664174
1772537130322806300,2.90480615234375,-0.04851210197359323,-0.056470075240731235,-0.06879194280579685
1772537130332874200,2.914874267578125,0.011549275757372378,-0.032923779958486554,-0.013186083178967236
1772537130342941200,2.924941162109375,0.011981237433850765,-0.012383680754899979,0.009702624977380036
1772537130353009400,2.935009521484375,-0.01602905151993036,0.009379238241910934,0.01569251304194331
1772537130363077400,2.945077392578125,-0.017760989879071713,0.039030280140042305,0.03114230336919427
1772537130373144300,2.955144287109375,-0.020907471211254594,0.024797172126173973,0.02103314341753721
1772537130383212300,2.96521240234375,-0.03331482510268688,-0.0034451720178127285,-0.03713979021832347
1772537130393280300,2.9752802734375,0.007519289588928222,-0.025954525467753408,-0.08459653792008758
1772537130403347200,2.98534716796875,0.09041764528900384,-0.04186638034880161,-0.082383830306679
1772537130413415400,2.99541552734375,0.12992577207386494,-0.056473582372069356,-0.07366670923531055
1772537130423483400,3.0054833984375,0.1545756446838379,-0.026650106516480445,-0.04031330568790435
1772537130433550300,3.01555029296875,0.12388561512678861,0.018971242451667786,0.009214841460436583
1772537130443618300,3.025618408203125,0.0677653762370348,0.05461655632853508,0.016742168225347995
1772537130453686500,3.0356865234375,0.011768763726949691,0.08379355097413063,0.02010536104813218
1772537130463753500,3.04575341796875,-0.04895750765353441,0.07484335179924964,0.015854863996803758
1772537130473821400,3.055821533203125,-0.09965484471172094,0.06204290693700313,-0.018233868087828158
1772537130483889400,3.065889404296875,-0.07536912923902273,0.09159984081089496,0.01611672980338335
1772537130493956400,3.075956298828125,-0.005838789156079292,0.1159364096879959,0.07964081520885229
1772537130504024300,3.0860244140625,-0.024758301420509814,0.10894552788734435,0.09472966326922178
1772537130514092500,3.096092529296875,-0.07176379822343587,0.12120002930462359,0.06900617007836699
1772537130524159500,3.106159423828125,-0.07941080584526061,0.13941548495292663,0.07380304896607995
1772537130534227500,3.1162275390625,-0.07133154428601264,0.11833353395760059,0.0675156392596662
1772537130544295400,3.12629541015625,-0.09449877712279557,0.0769628281712532,0.03291910378336906
1772537130554362400,3.1363623046875,-0.10092033460289239,0.06539864710569382,0.008298603398352861
1772537130564430600,3.1464306640625,-0.07395312496125697,0.07703940053880214,0.02678630011677742
1772537130574497500,3.15649755859375,-0.053449266114830966,0.08857201742231845,0.06277648190855979
1772537130584565500,3.1665654296875,-0.05672288095802069,0.11023965935111045,0.0718672585979104
1772537130594633200,3.17663330078125,-0.10541676923930644,0.10752163256406784,0.0673535805657506
1772537130604700400,3.186700439453125,-0.09283610460758208,0.10131284105181694,0.05695742036625743
1772537130614768400,3.196768310546875,-0.05915273845344782,0.08109422888755798,0.0807284643150866
1772537130624836400,3.20683642578125,-0.01872311290949583,0.06385901644825935,0.07321355864033102
1772537130634903600,3.216903564453125,-0.006795066967606544,0.03142097418010235,0.044996787329018115
1772537130644971300,3.22697119140625,0.0015346622213721274,0.013368600139021873,0.05567044929563999
1772537130655039200,3.237039306640625,0.003846446295082569,0.0034720600247383116,0.03413110992163419
1772537130665106200,3.247106201171875,-0.019588205306231975,-0.025275895553827286,-0.0069729077525436875
1772537130675174400,3.25717431640625,-0.04472206204086542,-0.05348901360332965,-0.03369417980909347
1772537130685242400,3.267242431640625,-0.048426761777698994,-0.0839338362276554,-0.07184212415665388
1772537130695309300,3.277309326171875,-0.040813656425476075,-0.11286533167958258,-0.06788783357292413
1772537130705377300,3.287377197265625,-0.006093932960927486,-0.10822539691925048,-0.06221855576485395
1772537130715445200,3.2974453125,-0.006238017606735229,-0.1028349360525608,-0.07748831335008144
1772537130725512200,3.30751220703125,0.007736439470946788,-0.08515256436765194,-0.041968671679496763
1772537130735580400,3.317580322265625,0.03839724293351173,-0.03539981468319893,0.0171155315823853
1772537130745648400,3.3276484375,0.049528001017868514,0.006778115832805633,0.07262421444505453
1772537130755715300,3.33771533203125,0.06994622740745544,0.0258504805713892,0.08828443265259266
1772537130765783300,3.347783203125,0.05318623126447201,0.024033202016353606,0.061333881884813306
1772537130775851300,3.357851318359375,0.046644846796989436,0.039269349592924115,0.01165858135074377
1772537130785918500,3.36791845703125,0.037248657420277595,0.01215571721792221,-0.028960137024521826
1772537130795986400,3.377986328125,0.05230214190632104,-0.008264554998278618,-0.047748716385662554
1772537130806054400,3.388054443359375,0.04700608132481575,-0.02445347325503826,-0.08122107013761996
1772537130816121300,3.398121337890625,0.03497048335522413,-0.02938566896021366,-0.08591302734613418
1772537130826189300,3.408189208984375,0.027552023792266844,-0.018402502653002736,-0.030540099692344665
1772537130836258000,3.418258056640625,0.004793371756374835,0.033416531911492346,0.02609583363458514
1772537130846325000,3.428324951171875,-0.03419014663249254,0.055554713961482045,0.06630787090510129
1772537130856393000,3.43839306640625,-0.06339315250217914,0.07477437821626663,0.08407455987259745
1772537130866461000,3.4484609375,-0.11028174492716789,0.07634148140251636,0.046454292660951614
1772537130876527900,3.45852783203125,-0.11360066021680831,0.058849663853645325,0.05081906374171376
1772537130886595800,3.468595947265625,-0.04055822035968303,0.05978899053037166,0.05427051936984062
1772537130896663800,3.478663818359375,-0.0019178163200616835,0.02498889530599117,0.04220043460875749
1772537130906731000,3.48873095703125,0.008766951562464237,0.03354161959588527,0.01042187916263938
1772537130916798700,3.498798828125,-0.0017056348741054533,0.05068447757661342,0.01717398377135396
1772537130926866700,3.50886669921875,-0.028142683161795138,0.04633680376112461,0.0484841910533607
1772537130936933600,3.51893359375,-0.05650660785883665,0.07950783647894859,0.04982713009491563
1772537130947001900,3.529001953125,-0.1130780976474285,0.08516191671788692,0.041742900099605316
1772537130957069800,3.53906982421875,-0.1085927689269185,0.07191255904436111,0.04280994480922818
1772537130967136800,3.54913671875,-0.06145517017692327,0.05439911418557167,0.0809890149474144
1772537130977204700,3.559204833984375,0.04250730860084295,0.0703746819525957,0.13489552331045268
1772537130987272700,3.569272705078125,0.09066226769983768,0.06243161399364471,0.12529767388179897
1772537130997339600,3.579339599609375,0.04262888915389776,0.005863339075446129,0.06504091970920563
1772537131007407900,3.589407958984375,-0.01921060416549444,-0.02273380985558033,0.012133359255641699
1772537131017475800,3.599475830078125,-0.08920125523656607,-0.029807109242677685,-0.03244432587847113
1772537131027542800,3.609542724609375,-0.11637597014904022,-0.018990531674027443,-0.04942980134040117
1772537131037610800,3.61961083984375,-0.0979918799355626,-0.01111702181994915,-0.03287570303305983
1772537131047678700,3.6296787109375,-0.07355944946855306,-0.021825462839007378,-0.010646920090168713
1772537131057746000,3.639745849609375,-0.04995470199733972,-0.026068507236242294,0.00005333762243390083
1772537131067814000,3.64981396484375,-0.027124153769016265,-0.026195348486304282,-0.0012166823133826256
1772537131077881900,3.6598818359375,0.009881050284206867,-0.011859364619851112,0.0009422492861747741
1772537131087948800,3.66994873046875,0.008295242397487163,-0.014621230548620223,0.007237988429516553
1772537131098016800,3.680016845703125,0.008965396744012833,-0.0024000468790531158,0.005557341866195202
1772537131108085000,3.6900849609375,0.015150807380676269,-0.008615852653980254,0.008268938912451267
1772537131118152000,3.70015185546875,0.016050678829848765,-0.0011591069072484968,-0.012788169902563094
1772537131128220000,3.710219970703125,-0.008186813586950302,0.01129997717142105,-0.019719576600939034
1772537131138287900,3.720287841796875,0.010111059647798537,0.030486323678493497,-0.01172434006333351
1772537131148354800,3.730354736328125,0.03941898719668388,0.028005028256773947,0.025761779374629257
1772537131158422800,3.7404228515625,0.04406418265402317,0.02273848603069782,0.016961510064452887
1772537131168491000,3.750490966796875,0.004610124143958091,-0.0019295067578554152,-0.04057648666873574
1772537131178558000,3.760557861328125,-0.0008525251761078834,0.008425298517942428,-0.03174143830612302
1772537131188626000,3.7706259765625,0.015693535955250262,0.030267712491750715,-0.0026670272521674633
1772537131198693600,3.780693603515625,0.026408991236984727,0.04735854802429676,0.029692689082771537
1772537131208760800,3.7907607421875,0.015787936240434647,0.08309913896918296,0.07305018477216363
1772537131218828800,3.800828857421875,0.009388006070256232,0.10416296978592872,0.11399287440478802
1772537131228896000,3.81089599609375,-0.0014133739292621612,0.12368833898901939,0.10295476303994655
1772537131238964000,3.8209638671875,-0.04615764780193567,0.10691840597391128,0.08408493513613939
1772537131249031700,3.83103173828125,-0.05475859514772892,0.08243804471194743,0.034932051040977234
1772537131259099000,3.841098876953125,-0.0814461110651493,0.04463526054024696,-0.02513502577841282
1772537131269166600,3.85116650390625,-0.07469371419548988,-0.0031722002953290937,-0.06102890758886933
1772537131279234800,3.86123486328125,-0.08823533281385898,-0.02010112326443195,-0.09018456718549132
1772537131289301800,3.8713017578125,-0.04970628019422292,-0.006989712756872176,-0.03989727223291993
1772537131299369700,3.88136962890625,-0.008994622838497161,0.03429682187736034,0.020592852304130792
1772537131309437700,3.891437744140625,-0.0013119593814015387,0.05116378552615642,0.06059007778018713
1772537131319504600,3.901504638671875,-0.062116848956048486,0.07570844419598578,0.04168430178016424
1772537131329572900,3.91157275390625,-0.10277385351508855,0.09020283349454403,0.03734685709774494
1772537131339640800,3.921640869140625,-0.08204933765530585,0.10292962859869002,0.045523295421153305
1772537131349707800,3.931707763671875,-0.05302928713709116,0.06861994723975658,0.03824482885077596
1772537131359775700,3.941775634765625,-0.0006476502537727355,0.06576864946186542,0.019582798478752373
1772537131369843700,3.95184375,0.03372925112247467,0.054065936708450314,0.01711713901758194
1772537131379910700,3.96191064453125,0.06480185025632382,0.03574117546677589,0.00137421096265316
1772537131389979000,3.971978759765625,0.03497662083506584,0.03275076147913933,-0.027029315092414616
1772537131400046800,3.982046875,0.005502689069509506,0.0410913043230772,-0.032345249418169256
1772537131410113800,3.99211376953125,-0.023792671258747577,0.027696400699019432,-0.017341741553694008
1772537131420181800,4.002181640625,-0.0440083608135581,0.024792495951056478,-0.0024207974061369896
1772537131430250000,4.01225,-0.03401625137031078,0.024880174234509465,0.004041676606237888
1772537131440317000,4.02231689453125,-0.009373100762069224,0.01945639562010765,0.006129150404781103
1772537131450385000,4.032385009765625,-0.006363982073962688,-0.012940730115771293,-0.007537555897980928
1772537131460452900,4.042452880859375,-0.007805413053929806,-0.02232289096713066,-0.03239522603973746
1772537131470519800,4.052519775390625,-0.008280044828355312,-0.006174304720759392,-0.053937341892719266
1772537131480587800,4.062587890625,0.01485094765126705,0.006831891846656799,-0.043530514168739314
1772537131490656000,4.072656005859375,0.034656302839517594,0.0010123919129371643,-0.022198826196044682
1772537131500723000,4.082722900390625,0.05521130735129118,0.013385551273822783,0.005691489639878273
1772537131510791000,4.092791015625,0.07728256164491176,0.05210194315910339,0.033952830745279786
1772537131520859000,4.10285888671875,0.09892185426205397,0.07768062105178833,0.07576952673345803
1772537131530925800,4.11292578125,0.06346826356500387,0.05561608875989914,0.10037044563516974
1772537131540994000,4.122994140625,-0.0031762919485569,0.02763327233493328,0.03695551969259977
1772537131551061800,4.133061767578125,-0.05644026462435722,0.031238018828630445,0.0057258303008973594
1772537131561129000,4.14312890625,-0.06567834082990884,0.025202245795726774,-0.019213965166360137
1772537131571196700,4.15319677734375,-0.08202741808444261,-0.006312251886725425,-0.0031045418865978717
1772537131581264600,4.1632646484375,-0.08129705798327923,0.009233692291378975,-0.0035652912661433217
1772537131591331800,4.173331787109375,-0.06431143639087676,0.023020225581526756,0.01857742082849145
1772537131601399800,4.18339990234375,-0.04835486558526754,0.015415011274814604,0.03402750341668725
1772537131611467800,4.1934677734375,-0.07278612700849771,-0.009863806888461113,0.029950755497068163
1772537131621534700,4.20353466796875,-0.10899462772607803,-0.01223638123869896,0.004976911629736423
1772537131631602700,4.213602783203125,-0.12665771018862723,0.0020715455770492553,0.008137421487271786
1772537131641670700,4.223670654296875,-0.11786182479262351,0.017620996886491776,0.01532324133813381
1772537131651737900,4.23373779296875,-0.11795710186064243,0.03433715388774872,0.026617227160185573
1772537131661805800,4.243805908203125,-0.08235562712550162,0.04793137947618961,0.04152414278239012
1772537131671873800,4.253873779296875,-0.04166092090457678,0.07934300130605697,0.03962941507697105
1772537131681940700,4.263940673828125,-0.011340309181809425,0.06645663172602653,0.02235474741011858
1772537131692008700,4.2740087890625,0.018377660472691057,0.05999941841065883,0.033544249944388864
1772537131702077000,4.284076904296875,0.07413228092044591,0.09296002324819565,0.04238061348125338
1772537131712144000,4.294143798828125,0.08004910374879837,0.07008592813909054,0.059441492266952986
1772537131722211800,4.3042119140625,0.06723258453458547,0.008453940090537071,0.040813071903586386
1772537131732279800,4.31427978515625,0.035575463511049746,0.009060673812031746,-0.008675327756255865
1772537131742346800,4.3243466796875,-0.08412234453707933,-0.006833060890436172,-0.04248056672438979
1772537131752414700,4.334414794921875,-0.14989713147878647,0.015707856741547583,-0.03911722777113318
1772537131762483000,4.34448291015625,-0.12300240255147218,0.014206804528832434,0.007744038255512714
1772537131772550000,4.3545498046875,-0.08193477136492729,0.020501520758867263,0.015170681124925613
1772537131782617900,4.364617919921875,-0.07428571791648865,0.000049099838733673096,-0.009019172757863998
1772537131792685800,4.374685791015625,-0.04093056080341339,0.02566635617613792,0.008135083399713038
1772537131802752800,4.384752685546875,-0.008956044393777847,0.03599544248878955,0.02767681921571493
1772537131812821000,4.394821044921875,0.004378653475642204,0.031710312515497205,0.04425298322439193
1772537131822889000,4.404888916015625,0.015070435620844364,0.02304536002278328,0.0699000501781702
1772537131832956000,4.414955810546875,-0.029889526829123495,0.030960370931029317,0.04397548145726323
1772537131843024000,4.42502392578125,-0.0426575307264924,0.04419862268865108,0.036775340820103884
1772537131853091800,4.435091796875,-0.013362462659180164,0.04644727839827537,0.011958879471570252
1772537131863159000,4.445158935546875,0.019970190361142157,0.014897709402441978,-0.03597250000461936
1772537131873227000,4.45522705078125,0.024278116688132286,-0.026424481067061422,-0.06794643189236521
1772537131883294700,4.465294677734375,0.045971769841015336,-0.030834114202857015,-0.05313596238195896
1772537131893362000,4.47536181640625,0.07671791349947452,0.0030249007791280746,-0.011843436398357152
1772537131903429600,4.4854296875,0.07092471705079079,0.024312018957734105,0.031016631162911652
1772537131913497900,4.495497802734375,0.019425708220899104,0.053338206955790515,0.04682561019137502
1772537131923564800,4.505564697265625,-0.052313247822225094,0.07415770762264728,0.04627718252837658
1772537131933632800,4.5156328125,-0.07847673986554145,0.09145546390414237,0.07247603814601898
1772537131943700700,4.52570068359375,-0.03974105875790119,0.09599369185566901,0.06597542408034206
1772537131953767700,4.535767578125,-0.044726153694093225,0.07797171295285224,0.028150720337778327
1772537131963836000,4.5458359375,-0.07494710443466901,0.045537762337923046,-0.0009783435128629208
1772537131973902800,4.55590283203125,-0.0644926381766796,0.028306641551852224,-0.024503449876606465
1772537131983970800,4.565970703125,-0.07407119838297367,0.002814472898840904,-0.050617842081189156
1772537131994038800,4.576038818359375,-0.08545067053139209,-0.02910977462828159,-0.06877659910619259
1772537132004105700,4.586105712890625,-0.05562602563202381,-0.01115969191789627,-0.030726562175154685
1772537132014173700,4.596173583984375,-0.03329407457560301,0.007812719577550888,-0.02096373144313693
1772537132024242000,4.606241943359375,-0.06518646565973758,-0.0019371055424213409,-0.030246231312304733
1772537132034308900,4.616308837890625,-0.06110737965255975,0.026348493221402168,-0.010311258395016194
1772537132044376800,4.626376953125,-0.030895196740329263,0.0457446830868721,0.008825549881905316
1772537132054444800,4.63644482421875,-0.026080197674036024,0.03467033136487007,-0.014044453573971986
1772537132064511700,4.64651171875,0.0057560793086886405,0.024912322938442227,0.013537819226086139
1772537132074580000,4.656580078125,0.07126461652964353,0.02691606397628784,0.0638829818457365
1772537132084648000,4.66664794921875,0.09659399583637714,0.026430910807847974,0.07116817041784525
1772537132094715000,4.67671484375,0.04428250157982111,0.021207623201608655,0.019960253489017487
1772537132104782800,4.686782958984375,0.000524023874104023,0.02350362518429756,-0.019093553657084702
1772537132114850800,4.696850830078125,-0.0012216507494449615,0.025106968727707863,-0.014755524452775715
1772537132124917800,4.706917724609375,-0.04699555993080139,0.0018459201276302337,-0.0449156849168241
1772537132134986000,4.716986083984375,-0.05948971532285213,-0.015413842231035231,-0.06066665014773607
1772537132145054000,4.727053955078125,-0.02939911296367645,-0.026533202138543127,-0.006311959625780582
1772537132155121000,4.737120849609375,0.009293898046016692,-0.017003157249093053,0.0005757540613412857
1772537132165188900,4.74718896484375,-0.004383037389814853,-0.026460136902332305,-0.012389818234741687
1772537132175257000,4.757257080078125,-0.007284311789274215,0.003134206372499466,-0.0089962302736938
1772537132185324000,4.767323974609375,0.005518471160531044,0.05124561859071254,0.02816416434124112
1772537132195392000,4.77739208984375,0.005805179147422314,0.0598918663829565,0.04502002207413316
1772537132205459700,4.787459716796875,-0.020943127046525477,0.061628480917215345,-0.002338233689218759
1772537132215527000,4.79752685546875,-0.013618775507807731,0.03048573915660381,-0.023931641338020563
1772537132225595000,4.807594970703125,0.01877367405295372,0.018327683851122854,-0.0004920213006436824
1772537132235662800,4.817662841796875,0.04476823927015066,0.030594460228085516,0.006672463501244783
1772537132245730000,4.82772998046875,0.007634440401196479,0.004379237997531891,-0.024863223099708554
1772537132255797800,4.8377978515625,-0.032985739278793336,0.011721417453885078,-0.03473974333927035
1772537132265865700,4.84786572265625,-0.04582125545442104,0.04138531883358955,-0.005471709409356117
1772537132275932700,4.8579326171875,-0.056121992455422876,0.059660395714640616,0.01110021681562066
1772537132286001000,4.8680009765625,-0.05473609105497598,0.06478723720908165,0.03212503079622984
1772537132296068900,4.87806884765625,-0.04210954145491123,0.07915361621379852,0.042188159649074075
1772537132306135800,4.8881357421875,-0.04912964935004711,0.06948503963649273,0.05162687299326062
1772537132316203800,4.898203857421875,-0.04073737631887197,0.041348493954539295,0.04611322413831949
1772537132326271700,4.908271728515625,-0.03898439517170191,0.03833586813509464,0.02967252307757735
1772537132336338700,4.918338623046875,-0.045592415134608745,0.038817514172196387,0.011243863070011139
1772537132346407000,4.928406982421875,-0.05600888746976852,0.022097850039601324,-0.007438479437679052
1772537132356475000,4.938474853515625,-0.10544336498528718,0.0044482115805149075,-0.055771571582555766
1772537132366541800,4.948541748046875,-0.10246581047922372,0.006911386823654175,-0.058347413419932125
1772537132376609800,4.95860986328125,-0.03578355330377817,0.025886136406660078,-0.010145254178345203
1772537132386678000,4.968677978515625,0.026346447394788263,0.03507248242497444,0.06752455321848393
1772537132396745000,4.978744873046875,0.05689443813264369,0.06819324626028538,0.07414221779257059
1772537132406813000,4.98881298828125,0.04690349773317575,0.0680395170032978,0.0494090508133173
1772537132416881000,4.998880859375,0.0220031574934721,0.03788753984570503,0.01267769526541233
1772537132426947800,5.00894775390625,0.038889410364627834,0.031765257573127745,0.0012818565040826797
1772537132437015800,5.019015869140625,0.05157645798027515,0.030944004318118095,0.004795125322043896
1772537132447084000,5.029083984375,0.036109716518223284,0.04129296437501907,-0.02794949867725372
1772537132457151000,5.03915087890625,-0.007777356003224849,-0.0034510172367095944,-0.057741994872689245
1772537132467219000,5.049218994140625,0.009362287107110023,0.003291442760825157,-0.020786036788672208
1772537132477287000,5.059286865234375,0.057220309086143964,0.020514964762330053,0.0645594198025763
1772537132487353900,5.069353759765625,0.0753729286313057,0.05040799872279167,0.10880246615484357
1772537132497422000,5.079422119140625,0.007898352034389973,0.0476356114000082,0.0745243489779532
1772537132507489800,5.08948974609375,-0.058712301209568975,0.032792262533307075,0.04725464925840497
1772537132517557000,5.099556884765625,-0.09416559964567423,0.032250995263457295,0.03193564570397139
1772537132527625000,5.109625,-0.10266805505305528,0.020199322941899297,-0.002477057638019323
1772537132537692700,5.119692626953125,-0.1506967574238777,-0.024916414591670034,-0.10175254764333366
1772537132547759900,5.129759765625,-0.16758944003582,-0.06339139893651008,-0.10995134392902255
1772537132557827800,5.139827880859375,-0.07807458880543708,-0.020275310787558554,-0.04021408309713006
1772537132567895800,5.149895751953125,-0.004759761747717857,-0.008463292440772057,0.052342181655764576
1772537132577962800,5.159962646484375,-0.0041340310648083686,-0.013673136043548584,0.05513707307130098
1772537132588030700,5.17003076171875,-0.038815760606527326,0.0190881468296051,0.03895341551154852
1772537132598098700,5.1800986328125,-0.02577010881155729,0.05446224254965782,0.07051277524903417
1772537132608166000,5.190165771484375,0.000027472528815269467,0.08747720792293548,0.07259265026301145
1772537132618233900,5.20023388671875,-0.010647943003475666,0.0685626640945673,0.038716538015753026
1772537132628301800,5.2103017578125,-0.01101765309870243,0.0754296272546053,0.007225713469833135
1772537132638368800,5.22036865234375,0.008213701593875885,0.06894377236664295,-0.03035086073055863
1772537132648436700,5.230436767578125,-0.005175941333174706,0.010895488023757933,-0.05938230942562222
1772537132658505000,5.2405048828125,0.0052069209933280946,0.0025000001221895216,-0.06869944221675396
1772537132668572000,5.250572021484375,0.005797288101911545,0.007771803045272827,-0.05102335414215922
1772537132678639900,5.260639892578125,-0.005424655397236347,0.012245733588933943,-0.020607903742790222
1772537132688707800,5.270707763671875,-0.002979600332677364,0.027570143970847127,-0.019290829794853925
1772537132698774800,5.28077490234375,-0.009274901084601878,0.030423779836297033,-0.002958995936065912
1772537132708842800,5.2908427734375,0.01196224047243595,0.049773792472481725,0.021201485721766947
1772537132718911000,5.300910888671875,0.012058394323289394,0.06843406927883625,0.051104602684825653
1772537132728978000,5.31097802734375,-0.003457446977496147,0.08699497736394404,0.05441095075383782
1772537132739046000,5.3210458984375,-0.023581366595625874,0.07243979778885841,0.03866699978560209
1772537132749112800,5.33111279296875,-0.03413140218257904,0.05146656786501407,0.0067018357262015335
1772537132759180800,5.341180908203125,-0.027509353694319724,0.01389934601485729,-0.025820231563597917
1772537132769247700,5.351247802734375,-0.016290917326509953,-0.019391513690352438,-0.07914820938631892
1772537132779316000,5.36131591796875,-0.003026362083852291,-0.04190729688107967,-0.0807480457983911
1772537132789384000,5.371384033203125,-0.006649521017074584,-0.04616436980366707,-0.058982642583549016
1772537132799451000,5.381450927734375,-0.000502981086075306,-0.030517887860536573,-0.03851633926853537
1772537132809518800,5.391518798828125,-0.022688217148184774,0.0053249944150447846,0.016722879002988338
1772537132819586800,5.4015869140625,-0.035167759492993354,0.05073065480589866,0.06457374058887362
1772537132829654000,5.411654052734375,-0.052235214149951935,0.07092413252890109,0.09819266320466995
1772537132839721700,5.4217216796875,-0.057093175575137135,0.08506196347475051,0.08876900129914284
1772537132849789700,5.431789794921875,-0.06350888783633708,0.06779869398474693,0.04402282773032784
1772537132859856600,5.441856689453125,-0.05123626624047756,0.05469663582742214,-0.006711626467853784
1772537132869924600,5.451924560546875,-0.013292612293362616,0.03309855200350285,0.0008947568826377392
1772537132879992600,5.46199267578125,0.0244625333443284,0.04816927988529205,0.016761457447707653
1772537132890059500,5.4720595703125,-0.02021101337969303,0.04611117831170559,0.01310118137449026
1772537132900127700,5.482127685546875,-0.07686141362339258,0.05144669412076473,-0.0069340370468795294
1772537132910195700,5.49219580078125,-0.06608662936985492,0.06717910078167914,0.031373481776565314
1772537132920262700,5.5022626953125,-0.023467092566192147,0.08132979120910168,0.05263926490619778
1772537132930330600,5.51233056640625,-0.0312964710175991,0.07077507944703101,0.010783405951410531
1772537132940398300,5.5223984375,-0.02026595843732357,0.019375147077441215,-0.03434942884743213
1772537132950465800,5.5324658203125,0.012763619983196257,-0.028567922836542126,-0.07011559262499213
1772537132960533500,5.542533447265625,0.017677110987901687,-0.03264788562655449,-0.07371653972640634
1772537132970601500,5.5526015625,0.030582185268402097,-0.021916063731908797,-0.04430500567257404
1772537132980668700,5.562668701171875,0.036848259925842286,0.010416180074214935,0.00940904885828495
1772537132990736400,5.572736328125,0.012666004827618598,0.023631635478138922,0.021499591885507107
1772537133000804600,5.5828046875,-0.012542670708894728,0.05034837749004364,0.026978753948956727
1772537133010871600,5.59287158203125,-0.034850071845948696,0.055037996610999104,0.053394321057200426
1772537133020939500,5.602939453125,-0.050449792037904256,0.069864978864789,0.06417538892105222
1772537133031007500,5.613007568359375,-0.022669804708659647,0.07193827800750732,0.056848845425248144
1772537133041074400,5.623074462890625,0.012930793243646621,0.02393967851400375,0.06575768967643379
1772537133051142400,5.633142333984375,0.003267477363348007,-0.0014408464580774306,0.03449818966835737
1772537133061210600,5.643210693359375,-0.035444822868704796,-0.017826748591661452,-0.01998100401610136
1772537133071277600,5.653277587890625,-0.058740650521218775,-0.032814474365115164,-0.0373641004934907
1772537133081345500,5.663345458984375,-0.0401198289424181,-0.029354104778170582,-0.01215747078359127
1772537133091413500,5.67341357421875,-0.028566753792762755,-0.0058019642770290375,0.008902414510399102
1772537133101480400,5.68348046875,-0.03154080116748809,0.01707446891963482,0.0083447806276381
1772537133111548700,5.693548583984375,-0.05906944408416748,0.012213000363111496,-0.0007474573664367198
1772537133121616600,5.70361669921875,-0.06445230616629123,0.01153787758052349,-0.02690978036597371
1772537133131683600,5.71368359375,-0.04219517391175032,0.046510406762361525,0.006947334919869899
1772537133141751600,5.72375146484375,0.00029810616374015806,0.056900867873430246,0.05315744356140494
1772537133151819500,5.733819580078125,0.013822189125418662,0.06387246045172214,0.05506590753123164
1772537133161887700,5.7438876953125,0.028462124374508856,0.0795949302405119,0.050180911968648434
1772537133171954700,5.75395458984375,-0.002691431041061878,0.07180734510421752,0.06694865302667022
1772537133182022700,5.764022705078125,-0.052478667517006396,0.07395663209259509,0.07748071456551552
1772537133192090600,5.774090576171875,-0.08557078977972268,0.08833002535998821,0.07216653380542994
1772537133202157600,5.784157470703125,-0.07948065621107817,0.09124620506763458,0.091517715485394
1772537133212225800,5.794225830078125,-0.07168138063699006,0.10285188718736171,0.07848550769388675
1772537133222293500,5.80429345703125,-0.06413841791152954,0.10731880346834659,0.059143678364157674
1772537133232360700,5.814360595703125,0.004559855261445045,0.10366086548268795,0.09675050157234072
1772537133242428400,5.824428466796875,0.06191431212127208,0.11172025329768658,0.14908113892078398
1772537133252496400,5.834496337890625,0.061334466406702995,0.10210662177801132,0.15333280501589178
1772537133262563600,5.8445634765625,-0.015953648196160793,0.04301555038392543,0.0789604317292571
1772537133272631600,5.854631591796875,-0.10756050326973199,-0.01922200234234333,0.015262012670189142
1772537133282699500,5.864699462890625,-0.13562836762964725,-0.027303601989150047,-0.014206658398360014
1772537133292766500,5.874766357421875,-0.1669219160377979,-0.039976036557555196,-0.0429180813588202
1772537133302834400,5.88483447265625,-0.18146482065320013,-0.05507131435871124,-0.08627937644049524
1772537133312902700,5.894902587890625,-0.16376052939742802,-0.06110825643539428,-0.08231251863613724
1772537133322969600,5.904969482421875,-0.11333294919133186,-0.05557108057439327,-0.03030994419828057
1772537133333037600,5.91503759765625,-0.05866203232705593,-0.006558335602283478,0.0400293741799891
1772537133343105500,5.92510546875,-0.01047697035074234,0.03229191179573536,0.08707491073235869
1772537133353172500,5.93517236328125,0.020216274076700208,0.023417115944623947,0.09871595642641186
1772537133363240400,5.945240478515625,0.03177870157659054,0.031054478955268857,0.05819426868483424
1772537133373308700,5.95530859375,0.06039367842525244,0.0002776478976011276,-0.009555325461179017
1772537133383375600,5.965375732421875,0.04460983383804559,-0.025686229920387268,-0.05889496430009603
1772537133393443600,5.975443603515625,0.04906418289840221,-0.048236499902606006,-0.1378955819092691
1772537133403511600,5.985511474609375,0.038576691153645516,-0.08123217605352401,-0.17265446834042666
1772537133413578500,5.99557861328125,0.07069090829491614,-0.06212123287022114,-0.1418861128501594
1772537133423646700,6.005646728515625,0.10479542247056961,-0.03240530904233455,-0.05935235267877578
1772537133433714700,6.015714599609375,0.09168868813812732,0.026454876205325124,-0.020362989071011542
1772537133443781600,6.02578173828125,0.054363458350300785,0.052473699080944056,-0.02456701663210988
1772537133453849600,6.035849609375,0.008118716786801814,0.06597323212325573,-0.03483750462532043
1772537133463917600,6.04591748046875,0.016015315255522727,0.08653437411487103,-0.04651347550228238
1772537133473984500,6.055984619140625,0.025286416947841645,0.07024199548363685,-0.06317191096693277
1772537133484052700,6.066052734375,0.0035638299614191055,0.046454877182841296,-0.07029109532237053
1772537133494120700,6.07612060546875,0.018368308122456073,0.04447451702058315,-0.08709770708605646
1772537133504187600,6.086187744140625,0.020750234822928905,0.029431261667609215,-0.07266703067347408
1772537133514255600,6.096255615234375,0.024479776740074156,0.023817513439059256,-0.057109980579465626
1772537133524323600,6.106323486328125,0.01447276198863983,0.01984802528619766,-0.05850786467865109
1772537133534390800,6.116390869140625,-0.002435702714323997,0.014401450318098067,-0.03113119745329022
1772537133544458800,6.126458740234375,0.015294892026484012,0.029450550889968872,-0.010889350543916225
1772537133554526500,6.1365263671875,0.0118991121083498,0.02346387769579887,-0.011800474039465188
1772537133564593700,6.14659375,-0.005738543651998043,0.021067337948083877,-0.0035145839922130105
1772537133574661400,6.156661376953125,0.012963818730413914,0.04120645513534546,0.05482333094701171
1772537133584729600,6.1667294921875,0.017476035457849502,0.05761281553506851,0.08890271068140863
1772537133594796500,6.176796630859375,-0.019798048664629458,0.05377776741683483,0.08684650880396366
1772537133604864500,6.186864501953125,-0.05781184523850679,0.04910568395256996,0.08978738456144929
1772537133614932500,6.196932373046875,-0.03601706979870796,0.04608312126100063,0.0926850056990981
1772537133624999400,6.20699951171875,-0.04498480463027954,0.02934942860305309,0.09327800315618515
1772537133635067400,6.2170673828125,-0.07020283251702784,0.000609071809053421,0.05809855322539806
1772537133645135600,6.227135498046875,-0.0809817084237933,-0.021733692902326584,0.023291297607868907
1772537133655202600,6.23720263671875,-0.07873948245495557,-0.01933481506705284,0.03257087486758828
1772537133665270500,6.2472705078125,-0.05073854585140943,-0.010793196693062782,0.08980024404302239
1772537133675338500,6.25733837890625,-0.07241232526004314,-0.001640168422460556,0.1073883615732193
1772537133685405400,6.267405517578125,-0.1099544126689434,0.01435118143558502,0.11215294562652707
1772537133695473700,6.2774736328125,-0.1341524498581886,0.04357727591991424,0.11681026991307734
1772537133705541600,6.287541748046875,-0.11589549315571784,0.06618658261299133,0.13333382695168255
1772537133715608600,6.297608642578125,-0.08293138118684291,0.06528466533720494,0.13640826596096156
1772537133725676500,6.307676513671875,-0.07213584640622138,0.05054360780119896,0.1007090299397707
1772537133735744500,6.31774462890625,-0.07603285384476184,0.03945464303195476,0.09069806966558099
1772537133745811500,6.3278115234375,-0.04279109397828579,0.042671851512789724,0.06592252484932541
1772537133755879700,6.337879638671875,-0.0620399843275547,0.01355564714372158,0.0514829344779253
1772537133765947600,6.34794775390625,-0.0392611662864685,0.02111293065547943,0.030974253325909373
1772537133776014600,6.3580146484375,-0.02066547914892435,0.030644729110598564,0.03753872640803456
1772537133786082600,6.36808251953125,-0.027133213858306405,0.026848843958973884,0.03323065395057201
1772537133796150800,6.37815087890625,-0.059711249119043346,0.03136719816625118,-0.011848989356309176
1772537133806217700,6.3882177734375,-0.07120324173122644,0.007412322083115578,-0.03797127260640264
1772537133816285700,6.39828564453125,-0.04385404703468084,0.0023421792119741438,-0.059028381421416996
1772537133826353700,6.408353759765625,-0.005333762243390083,-0.01518120251893997,-0.056256724750995635
1772537133836420400,6.41842041015625,0.03867255274355411,-0.012001987960934638,-0.04664470066651702
1772537133846488300,6.42848828125,0.061033437633514404,-0.007898059773445128,-0.04144114067405462
1772537133856556300,6.438556396484375,0.05940466738790273,0.0029313772767782208,-0.04945815065205097
1772537133866623500,6.44862353515625,0.04520604616552591,0.018504209461808203,-0.03677110303640366
1772537133876691500,6.45869140625,0.03320698081403971,0.06251812323331833,-0.016741437572985886
1772537133886759200,6.46875927734375,0.03502572067379951,0.09168342744112014,0.023444442342966793
1772537133896826400,6.478826416015625,0.04529723158031702,0.09974924499690532,0.04341390205174684
1772537133906894000,6.48889404296875,0.044674715767800806,0.07804010201394558,0.03880027077645063
1772537133916962300,6.49896240234375,0.048993163488805294,0.05421674335598945,0.027460838377475736
1772537133927029200,6.509029296875,0.0076566522330045695,0.029562779092788694,-0.03143441818356514
1772537133937097200,6.51909716796875,-0.023815759873390196,-0.0008072247296571731,-0.08201660442948341
1772537133947165200,6.529165283203125,-0.040709903790056706,-0.010533668974041939,-0.11052315246760845
1772537133957232000,6.539232177734375,-0.06845218945741653,-0.028911037185788153,-0.12976239820569752
1772537133967300400,6.54930029296875,-0.046515667459368706,-0.01715805554986,-0.11492591747120022
1772537133977368300,6.559368408203125,-0.013494272345304488,0.011385317367315292,-0.04411138279661536
1772537133987435300,6.569435302734375,0.03799246152490377,0.05410860680639743,0.04113572798669338
1772537133997503200,6.579503173828125,0.04570902725160122,0.07053542547225952,0.07382584531977772
1772537134007571200,6.5895712890625,0.033552140989899636,0.07694295442700386,0.11747238708361983
1772537134017638100,6.59963818359375,0.022825579792261123,0.08749766618907451,0.11304141889885068
1772537134027706400,6.609706298828125,-0.0107575408577919,0.05729015945196152,0.052554363101720805
1772537134037774300,6.6197744140625,-0.0671489979043603,0.011795651733875274,-0.045106092922389505
1772537134047841300,6.62984130859375,-0.07736059531718492,-0.03900982187390327,-0.12907310076728462
1772537134057909200,6.6399091796875,-0.05013824187070131,-0.055607320931553836,-0.117851595659554
1772537134067977500,6.6499775390625,-0.04071721031367779,-0.06693360158801079,-0.11467267336249351
1772537134078044400,6.66004443359375,-0.06439502302110195,-0.0746492905318737,-0.08805822268128395
1772537134088112400,6.6701123046875,-0.03280950592905283,-0.02719838804900646,-0.009240852684527635
1772537134098180400,6.680180419921875,-0.03989566479772329,0.003307224851846695,0.02961743188947439
1772537134108247300,6.690247314453125,-0.05788461821377277,0.011553659671545029,0.024429800118505953
1772537134118315300,6.700315185546875,-0.03231412362754345,0.02407528759241104,0.02551525726765394
1772537134128383500,6.710383544921875,-0.02099135010242462,-0.001727262184023857,0.00506005986854434
1772537134138450400,6.720450439453125,-0.021517127542197704,-0.010378770673274994,-0.04457563930749893
1772537134148518400,6.730518310546875,-0.0065229720279574395,-0.014534721308946608,-0.07291662152037023
1772537134158586400,6.74058642578125,0.007746668604016304,-0.012870002967119216,-0.07401274619400501
1772537134168653300,6.7506533203125,0.0193561501160264,0.006804419317841529,-0.03427417165413499
1772537134178721500,6.760721435546875,0.028321546860039234,0.037027708145976064,-0.02586304779201746
1772537134188789200,6.770789306640625,0.009258534471690654,0.03588613689541816,-0.033170155934989454
1772537134198856400,6.7808564453125,0.00329436537027359,0.045403322303295135,-0.008512100018560885
1772537134208924400,6.79092431640625,0.046347325155138966,0.08626432500183581,0.047929187519103286
1772537134218992000,6.8009921875,0.0731830173715949,0.11163023692667484,0.07925809950158
1772537134229059300,6.811059326171875,0.05495119511038064,0.11031038649976253,0.0765213680140674
1772537134239127300,6.821127197265625,0.021098902130126954,0.10277473029792308,0.06337649362832308
1772537134249195300,6.8311953125,-0.011693944925069808,0.10668459721803665,0.051503685005009174
1772537134259262200,6.84126220703125,-0.058657063890993594,0.07956687318980693,0.05430880555361509
1772537134269330200,6.851330078125,-0.0763654467999935,0.06432371135056018,0.051510114745795726
1772537134279398100,6.861398193359375,-0.08567191206663846,0.06269172623455524,0.043315702374279494
1772537134289465300,6.87146533203125,-0.10054068763554096,0.03709960433840751,0.013602555025368928
1772537134299533300,6.881533203125,-0.1286538524419069,0.00466506920158863,-0.02847498385608196
1772537134309601300,6.891601318359375,-0.13355389944314955,-0.016739537876844405,-0.029853870993852612
1772537134319668200,6.901668212890625,-0.08774550347030162,0.015142624074220656,0.00621770547106862
1772537134329736200,6.911736083984375,-0.06339928998202085,0.041840076863765716,0.04378375827744603
1772537134339804400,6.921804443359375,-0.026119068379700183,0.05967442423999309,0.058820730020105835
1772537134349871400,6.931871337890625,0.015626315937936307,0.06609715076386928,0.0915251681394875
1772537134359939300,6.941939208984375,0.0066810851991176605,0.08004618113934993,0.08181041433289647
1772537134370007300,6.95200732421875,-0.008386720073223114,0.08021744605302811,0.04659121691361069
1772537134380074200,6.96207421875,0.01013882443755865,0.07454933728873729,0.045661827109009026
1772537134390142200,6.97214208984375,0.039460488250851626,0.06690203740596772,0.028121201982349155
1772537134400210400,6.98221044921875,0.031221067693829534,0.02747194429337978,-0.020885259379446505
1772537134410277400,6.99227734375,-0.022096096473932264,-0.010225041416287422,-0.07773600450083613
1772537134420345300,7.002345458984375,-0.011528525230288505,-0.0000713116705417633,-0.06520385518595576
1772537134430413300,7.012413330078125,-0.0040928222715854645,-0.01346504625082016,-0.04996420047804713
1772537134440480300,7.022480224609375,-0.011430910074710846,-0.0003951367974281311,-0.04153510256782174
1772537134450548500,7.032548583984375,-0.01575549527555704,0.015748773273825643,-0.008905921641737221
1772537134460616400,7.042616455078125,-0.024672961224615573,0.035437808606028555,0.007679156325757503
1772537134470683400,7.052683349609375,-0.047911797992885106,0.0486509259223938,-0.003907528832554817
1772537134480751400,7.06275146484375,-0.02646510533839464,0.07430208452939986,-0.0006583177782595157
1772537134490819300,7.0728193359375,-0.01635813734382391,0.06106967799067497,-0.008548340375721454
1772537134500886300,7.08288623046875,-0.012991291259229182,0.0693383246421814,-0.022395371681451795
1772537134510954500,7.09295458984375,0.021615034958720206,0.07398468914330006,-0.022676818971335888
1772537134521022200,7.103022216796875,0.03244797914028168,0.03809329155087471,-0.01463438229113817
1772537134531089400,7.11308935546875,0.042320261596143244,0.02995557780265808,-0.0011712357364594935
1772537134541157000,7.1231572265625,0.03286298968195915,0.029275778844952582,0.0018745617002248762
1772537134551225300,7.133225341796875,0.00042319384813308713,0.026926585370302198,-0.016595599361509082
1772537134561292300,7.143292236328125,-0.04025631480365991,0.033029578420519824,-0.01997998110279441
1772537134571360300,7.1533603515625,-0.029750702880322933,0.01954524294734001,-0.014319324992597103
1772537134581428200,7.16342822265625,-0.0338651524618268,0.01778933919072151,-0.0034011867456138134
1772537134591495200,7.1734951171875,-0.013213409577310084,0.0047369653940200806,0.013134499122202395
1772537134601563100,7.183563232421875,-0.01569675082564354,-0.01993745713531971,0.012160685653984546
1772537134611631400,7.19363134765625,-0.020612579917907714,-0.02123918738365173,-0.004948416187614203
1772537134621698300,7.2036982421875,-0.01000204631537199,-0.012446224597096442,-0.010962854171544313
1772537134631766300,7.213766357421875,-0.0016106500670313834,-0.0311310513228178,0.00948985900953412
1772537134641834200,7.223834228515625,0.007118307572603225,-0.01638473308980465,0.002779401585459709
1772537134651901200,7.233901123046875,-0.009733458507061005,-0.002495323947072029,-0.012161562436819076
1772537134661969400,7.243969482421875,-0.006378887382149696,-0.001166121169924736,0.014271101936697958
1772537134672037400,7.254037353515625,0.006303484058380127,0.01429156020283699,0.02705649536028504
1772537134682104300,7.264104248046875,-0.011954933948814868,0.00876373669207096,0.0077731182195246214
1772537134692172300,7.27417236328125,-0.026959903118014335,0.021613281393051145,-0.007271160046756267
1772537134702240300,7.284240234375,-0.005458265405893325,0.04687514842152595,0.006358429116010665
1772537134712307200,7.29430712890625,0.07073328613191843,0.09101239631175995,0.05927285770177841
1772537134722375400,7.30437548828125,0.13186492344290018,0.11286591620147228,0.13223799453899263
1772537134732443400,7.314443359375,0.1255105859801173,0.10965163033008575,0.13607231200486422
1772537134742510300,7.32451025390625,0.07137889055907726,0.07730301991105079,0.1013902902022004
1772537134752578300,7.334578369140625,0.004631459192931652,0.06239420459270477,0.07107727726399898
1772537134762646500,7.344646484375,-0.059335401543974875,0.02389525485038757,0.004772036707401275
1772537134772713500,7.35471337890625,-0.12660101156532763,-0.01492635097503662,-0.05717807737961411
1772537134782781400,7.364781494140625,-0.1304582715153694,-0.023266893818974493,-0.0927133550107479
1772537134792849400,7.374849365234375,-0.09219605313837528,-0.02384264788031578,-0.06334770592525601
1772537134802916400,7.384916259765625,-0.052284313988685605,-0.000412087932229042,0.0014417232409119605
1772537134812984300,7.394984375,-0.05626140092611313,0.028361586609482764,0.03448503792583942
1772537134823052300,7.40505224609375,-0.05761223101317882,0.04915887544453144,0.06325637437999249
1772537134833119700,7.41511962890625,-0.060360068416595455,0.06871580882966517,0.09412292954772711
1772537134843187500,7.4251875,-0.030042379303276537,0.09460720593333244,0.11356091272830962
1772537134853255400,7.43525537109375,-0.02613777308017015,0.06299743118286133,0.10256649437472223
1772537134863322600,7.445322509765625,-0.05806991165280342,0.03746843765079975,0.04001023108810186
1772537134873390600,7.455390625,-0.06352350088357925,0.009942717343568802,0.015220803876966237
1772537134883458600,7.46545849609375,-0.06342910059839486,0.001339139649271965,0.01340557114854455
1772537134893525500,7.475525390625,-0.06117693775743246,0.002007248169183731,0.00894917626157403
1772537134903593500,7.485593505859375,-0.07828092503249645,-0.024139585000276565,0.006777677441388368
1772537134913661400,7.495661376953125,-0.08018354378342628,-0.022179683104157445,0.004835311201959848
1772537134923728400,7.505728271484375,-0.06765022542476654,-0.016861118429899215,0.010868746147304773
1772537134933796600,7.515796630859375,-0.04878945761024952,-0.00868833336830139,0.010496113442629575
1772537134943864600,7.525864501953125,0.008332067276537418,0.011641922476887702,0.05196896442919969
1772537134953931500,7.535931640625,0.06142331373393535,0.02662321850955486,0.10343202516287564
1772537134963999500,7.54599951171875,0.08337006486505269,0.03931435777842998,0.11733940835371613
1772537134974067700,7.556067626953125,0.07141746900379657,0.04476502439975738,0.09230565099269152
1772537134984134700,7.566134765625,0.034122926615178586,0.03424363038539886,0.07983969878181815
1772537134994202600,7.57620263671875,0.008724573725461959,0.02986263882219791,0.04283391020670533
1772537135004270600,7.5862705078125,-0.025686229920387268,-0.003338204512000084,-0.044569794088602066
1772537135014337500,7.596337646484375,-0.058012043985724446,-0.04968143801391124,-0.08312471180185675
1772537135024405500,7.606405517578125,-0.0264668589040637,-0.0473830979436636,-0.07221680268794298
1772537135034473700,7.6164736328125,0.0006362520769238472,-0.036166707402467725,-0.04101955426111817
1772537135044540700,7.626540771484375,-0.011176350791752337,-0.030259529185295102,-0.0386785440929234
1772537135054608600,7.636608642578125,0.003452186280488968,-0.01170914249420166,-0.034542905592918394
1772537135064676600,7.646676513671875,-0.0033922727867960927,0.019001053068041802,0.010030249496549367
1772537135074743600,7.65674365234375,-0.021029928547143934,0.046616205224394795,0.00676452569887042
1772537135084811800,7.666811767578125,0.0008194996893405913,0.08842530242800713,0.04993307468742132
1772537135094879700,7.676879638671875,0.0089624741345644,0.09848317058384418,0.08057517344951629
1772537135104946700,7.68694677734375,-0.017205401822924613,0.08067220408320426,0.022241350163519382
1772537135115014700,7.6970146484375,-0.04291238227039575,0.05772153660655022,-0.02120718481019139
1772537135125082400,7.707082275390625,-0.03136602912247181,0.07701134348809718,0.00202668352201581
1772537135135149600,7.717149658203125,-0.007099895133078098,0.08018763543665408,0.015453005197644233
1772537135145217500,7.727217529296875,-0.022781448389589787,0.0620703794658184,0.004622545234113931
1772537135155285500,7.737285400390625,-0.05829027640521526,0.0664233139783144,-0.008578589383512735
1772537135165352700,7.747352783203125,-0.05313303977251053,0.07149404137134552,-0.0038144437216222284
1772537135175420400,7.75742041015625,-0.04262888915389776,0.07162848140597343,0.03468070662841201
1772537135185488400,7.76748828125,-0.012421674677729606,0.0809276401489973,0.04322977765649557
1772537135195555600,7.7775556640625,-0.031115561492741105,0.06844225258529185,0.03747779000103473
1772537135205623600,7.78762353515625,-0.017762158922851084,0.07596271121799945,0.03363821183815598
1772537135215691500,7.79769140625,-0.0021788053438067433,0.072505848762393,0.034683483107388016
1772537135225758500,7.807758544921875,-0.03053688482195139,0.03547346444129944,-0.0018216624692082403
1772537135235826400,7.817826416015625,-0.039163843391835686,0.01357435184419155,-0.03719005910083651
1772537135245894700,7.827894775390625,-0.019962883837521074,-0.015683306822180748,-0.015622370415180921
1772537135255961600,7.837961669921875,0.036732816852629184,-0.016624971586465833,0.012084990069270133
1772537135266029600,7.848029541015625,0.048403965424001216,-0.035440146693587304,-0.00019406126737594602
1772537135276097500,7.85809765625,0.02292319494783878,-0.06546645164489746,-0.03401362102180719
1772537135286164500,7.86816455078125,0.025070728370547295,-0.07109598196446895,-0.04605813295021653
1772537135296232400,7.878232421875,0.036328619965910906,-0.053824529168009755,-0.012959288685768842
1772537135306300700,7.88830078125,-0.0022439795345067974,-0.028356325912475583,-0.02242123677507043
1772537135316367600,7.89836767578125,-0.03218786689937114,-0.033089784175157545,-0.04105053392127156
1772537135326435600,7.908435546875,-0.02905190696120262,-0.028138299247622487,-0.036893852633237835
1772537135336503600,7.918503662109375,-0.01069090536236763,-0.015875614523887634,0.015432693061977623
1772537135346570500,7.928570556640625,0.0370239087536931,0.00009703063368797301,0.07508885099291801
1772537135356638700,7.938638671875,0.05518938778042793,0.014950900894403457,0.062208472762256856
1772537135366706700,7.948706787109375,0.0034513094976544377,0.0033569092124700545,0.01782996346205473
1772537135376773600,7.958773681640625,-0.01672755517810583,0.011063245806097983,0.0058266603268682955
1772537135386841600,7.968841552734375,-0.015507657994329929,0.03912555720806122,0.018108195881545542
1772537135396909600,7.97890966796875,-0.030976737543940543,0.0616390023112297,0.017132921108603476
1772537135406976500,7.9889765625,-0.06548661765009164,0.07461071208715439,-0.010944587862491606
1772537135417044700,7.999044677734375,-0.10895692606419324,0.08273089017868042,-0.03197875419333577
1772537135427112700,8.00911279296875,-0.09512100067436695,0.0975280618160963,-0.012588409546762705
1772537135437179600,8.0191796875,-0.06407879667878151,0.10345569829940796,0.023079700683802364
1772537135447247600,8.02924755859375,-0.007321721190214157,0.10473054054081439,0.06002630641758441
1772537135457315600,8.039315673828124,0.014654256035387515,0.08670680807232856,0.08233093107566238
1772537135467382800,8.0493828125,-0.009345335972309111,0.060142626273632045,0.0803679604396224
1772537135477450500,8.059450439453125,-0.022779987084865568,0.08116086438298224,0.06234188988357782
1772537135487518500,8.0695185546875,-0.05823942300081253,0.08180851463675498,0.033881665205210444
1772537135497585400,8.07958544921875,-0.09617021746635436,0.07826631198525429,-0.00263034850358963
1772537135507653400,8.0896533203125,-0.08800912284255027,0.06956102748215198,-0.035274434737861154
1772537135517721600,8.0997216796875,-0.06612053163945675,0.030543022301793097,-0.05521174574270844
1772537135527788500,8.10978857421875,-0.05537263539284468,-0.003127192109823227,-0.05361527033150196
1772537135537856500,8.1198564453125,0.005251344656944275,-0.005225041171908378,-0.0009581775076687335
1772537135547924500,8.129924560546876,0.05898001223504543,-0.000028057050704956055,0.04666267471462488
1772537135557991400,8.139991455078125,0.049534138497710226,0.002599368843436241,0.0696320468917489
1772537135568059600,8.1500595703125,0.026480887429416178,0.017440964144468305,0.03463613683432341
1772537135578127600,8.160127685546875,-0.018696809424459934,0.021450784307718275,0.024453765515983102
1772537135588194600,8.170194580078125,-0.010613163951039313,0.02993161240518093,0.04523541839048266
1772537135598262500,8.180262451171876,0.02453063014447689,0.03118073568344116,0.04979162039011716
1772537135608330500,8.19033056640625,0.021815525966882705,0.014468670335412024,0.015169512081146239
1772537135618397400,8.2003974609375,0.03560322830080986,-0.006038695642352104,-0.02377425881922245
1772537135628465700,8.210465576171876,0.037142274436354636,-0.024819383957982062,-0.06046133683398366
1772537135638533600,8.22053369140625,-0.0007815057665109634,-0.03880231660306453,-0.11385565789118408
1772537135648600600,8.2306005859375,-0.03764145613014698,-0.057763622182607645,-0.12402706942409276
1772537135658668500,8.24066845703125,-0.022703414717316628,-0.049482700571417806,-0.07628200630024075
1772537135668736500,8.250736572265625,-0.02261310608536005,-0.015118658676743507,-0.029020196648687123
1772537135678803700,8.2608037109375,-0.01699555846452713,0.011672317615151405,0.01633227225020528
1772537135688871700,8.27087158203125,0.0030596798315644263,0.04405716839134693,0.07102160155400633
1772537135698939600,8.280939697265625,-0.013317162212729453,0.06212240191400051,0.09447408107295632
1772537135709006600,8.291006591796876,-0.03445727313607931,0.06221183376312255,0.06945771323814988
1772537135719074600,8.301074462890625,-0.012176467745006084,0.0783048904299736,0.03965381886586547
1772537135729142800,8.311142822265625,0.005815992802381515,0.057632104757428165,0.008055442292243241
1772537135739209700,8.321209716796876,0.028357787217199802,0.045215106254816055,0.009297551307827234
1772537135749277700,8.331277587890625,0.0021858196064829826,0.0490951625585556,-0.023511370099335908
1772537135759345400,8.341345458984375,-0.02462736851722002,0.030876784300804136,-0.021100217304378745
1772537135769412600,8.35141259765625,-0.042238136270642275,0.036032851889729496,0.021793168004602192
1772537135779480600,8.36148046875,-0.04500175576508045,0.038680736050009726,0.058552726733684536
1772537135789548500,8.371548583984374,-0.04141337588429451,0.04832359366416931,0.0870553292490542
1772537135799615700,8.38161572265625,-0.06561345890015363,0.0453437010705471,0.09697934189215301
1772537135809683500,8.391683349609375,-0.06899491803199052,0.049507250490784645,0.0802424343638122
1772537135819751400,8.40175146484375,-0.09662059158235788,0.03804477623403072,0.04876403090804815
1772537135829818400,8.411818359375,-0.10221008215248584,0.032438042268157004,0.05123232071772217
1772537135839886000,8.421885986328125,-0.06829816793948411,0.02420505145192146,0.06278378843218088
1772537135849954000,8.4319541015625,-0.05464665920585394,0.00775251382291317,0.045620764446258545
1772537135860021000,8.44202099609375,-0.059528001506626606,-0.017609890970587728,0.008337035712599753
1772537135870089200,8.452089111328124,-0.05324439119249582,-0.011724924585223197,-0.0021706220373511314
1772537135880157200,8.4621572265625,-0.023403087419271468,0.0030810148805379867,-0.001641775857657194
1772537135890224000,8.47222412109375,-0.01671440343558788,-0.0020996026277542114,0.018115648535639045
1772537135900292000,8.4822919921875,0.020229718080163002,0.028244682231545446,0.040208237878233195
1772537135910360000,8.492360107421876,0.0363204366594553,0.03589373567998409,0.04782032031714916
1772537135920427000,8.502427001953125,0.014921090278029441,0.010177110621333122,0.0023449556909501553
1772537135930495200,8.5124951171875,0.007832301060855388,-0.0034019173979759213,-0.016167144816368818
1772537135940563200,8.522563232421875,0.03210866418331861,-0.007741992428898811,-0.012895721930265426
1772537135950630100,8.532630126953125,0.03752484401315451,-0.009577975684404372,-0.017881693649291992
1772537135960698000,8.542697998046876,0.05044277777522802,-0.012100187638401984,-0.022615590303391216
1772537135970766300,8.552766357421875,0.07663987982720136,-0.00014379238486289978,0.008846592669934034
1772537135980833300,8.562833251953125,0.051210839538276196,0.017726795348525046,-0.0048559155985713
1772537135990901200,8.5729013671875,0.005040916776657104,0.02886193734705448,-0.01189209784567356
1772537136000969200,8.58296923828125,-0.007062777993083,0.0493827473282814,0.03862593712285161
1772537136011036200,8.5930361328125,0.003169569946825504,0.0558007976770401,0.06642009910792111
1772537136021104000,8.603104248046876,-0.034625323179364204,0.032356793725490565,0.026761457936465737
1772537136031172400,8.61317236328125,-0.05073416193723678,0.003167524120211601,-0.014035101223737
1772537136041239300,8.6232392578125,-0.03618278175443411,0.0018710545688867567,-0.0297781754091382
1772537136051307300,8.633307373046875,-0.04988075997829437,-0.0007587094128131866,-0.04751768410876393
1772537136061375200,8.643375244140625,-0.05019055657982826,-0.0013069909453392028,-0.04319412182122469
1772537136071442200,8.653442138671876,-0.07583586996793747,0.023352234014868734,-0.013843962565809487
1772537136081510400,8.663510498046875,-0.05616787742376327,0.03776888190209866,0.06344663625508547
1772537136091578400,8.673578369140625,-0.035058746160566805,0.07895078711807728,0.0754411715619266
1772537136101645300,8.683645263671876,-0.04965162739753723,0.08671089972555637,0.058835196936875576
1772537136111713300,8.69371337890625,-0.06893646584302186,0.06370411814749241,0.050810003652423615
1772537136121781000,8.703781005859375,-0.034460488006472584,0.08279168045520782,0.03815744282826781
1772537136131848200,8.71384814453125,-0.011706219884753226,0.09850655145943164,0.022372283066809176
1772537136141916200,8.723916259765625,-0.025725977408885953,0.09047171356379985,0.004687427163869142
1772537136151984000,8.733984130859374,-0.004048690868914127,0.09793313548564911,0.00044993572458624836
1772537136162051300,8.74405126953125,0.029171149426698684,0.0891670607060194,0.009180793060362338
1772537136172119000,8.754119140625,0.05231763173639774,0.07145721649229526,0.0618820172868669
1772537136182187000,8.76418701171875,0.06602116291821003,0.06543956363797188,0.09718684716299175
1772537136192254200,8.774254150390625,0.022282266695797442,0.05767243676781654,0.09015124943777918
1772537136202322200,8.784322265625,-0.04814151509553194,0.027346856608986853,0.05168941683545708
1772537136212390100,8.79439013671875,-0.10355798963010311,0.004466331759095192,-0.007928454911708831
1772537136222457000,8.80445703125,-0.10516250221729279,-0.00409866749048233,-0.02436827918961644
1772537136232525000,8.814525146484375,-0.07748802108913659,0.00004676175117492675,-0.027629911334067583
1772537136242593300,8.82459326171875,-0.03882335939109325,0.004345335727930068,-0.006963701532781124
1772537136252660200,8.83466015625,-0.018017594988644123,-0.002778232541680336,0.027208032660186288
1772537136262728200,8.844728271484374,0.014350596913695335,-0.00580488688647747,0.043003859946131706
1772537136272796200,8.854796142578126,0.04959697460085153,-0.0018178630769252776,0.05696311945468187
1772537136282863000,8.864863037109375,0.08035802356749773,0.008586626559495925,0.06353504519090056
1772537136292931000,8.87493115234375,0.09549860181510447,-0.0012578911066055297,0.04346767806559801
1772537136302999300,8.884999267578126,0.09691869774609804,-0.022495909446477887,0.013860475309193133
1772537136313066200,8.895066162109375,0.08734393693208695,-0.042046997612714763,-0.0006542261250317096
1772537136323134200,8.90513427734375,0.06123480542451143,-0.05929097788035869,-0.03688917645812034
1772537136333202200,8.9152021484375,0.01115793835222721,-0.06817921773493289,-0.07434387784451246
1772537136343269000,8.92526904296875,-0.00881166748702526,-0.05578852271735668,-0.05624678787887096
1772537136353337300,8.93533740234375,-0.012722703450918197,-0.0525941105902195,-0.006658142714947462
1772537136363405300,8.9454052734375,-0.02670738966166973,-0.04237257630527019,0.03004179478138685
1772537136373472300,8.95547216796875,-0.05713993732631206,-0.026503976044058797,0.023181115231662986
1772537136383540200,8.965540283203126,-0.09824994634985923,-0.007075637474656104,0.01583455186113715
1772537136393608200,8.975608154296875,-0.0889206847295165,0.03267009745836258,0.020156360583007335
1772537136403675100,8.985675048828124,-0.034086686258018015,0.0574257685303688,0.0506526211336255
1772537136413743400,8.995743408203126,-0.002269113975763321,0.09215455208420753,0.07002791434153914
1772537136423811000,9.00581103515625,0.001724339574575424,0.09893734409213066,0.04734890341311693
1772537136433878300,9.015878173828124,-0.024869652840495107,0.06724398271143436,0.0046603930264711374
1772537136443946200,9.0259462890625,-0.0260550632327795,0.0738216075360775,-0.004801555062830448
1772537136454014200,9.03601416015625,-0.018906945043802262,0.06856792479157447,0.03118789607658982
1772537136464081400,9.046081298828126,-0.009987141007184982,0.07457330268621444,0.030827099940180777
1772537136474149000,9.056149169921875,-0.005351882421970367,0.07608546081483364,0.011479863782972097
1772537136484217000,9.066217041015625,-0.020613748961687085,0.04322773182988167,0.006782207486033439
1772537136494284000,9.076283935546876,-0.018002397419512272,0.05697159502208233,0.01318725222274661
1772537136504352000,9.08635205078125,-0.03578559913039207,0.08368775251209735,0.02267784188464284
1772537136514420200,9.096420166015625,-0.04876023151576519,0.06464812099933624,0.01829465836435556
1772537136524487200,9.106487060546876,-0.03729249656200409,0.05753098247051239,0.026097002678364515
1772537136534555100,9.11655517578125,-0.02523731710910797,0.025696166792511937,0.028422961407899856
1772537136544623000,9.126623046875,-0.029098668712377547,0.009816460615396498,0.01835647155418992
1772537136554690000,9.13668994140625,-0.016420096664130687,0.012599369332194327,-0.0014070903189480305
1772537136564758300,9.14675830078125,-0.006453998444974422,-0.006108838269114494,0.023825404484570024
1772537136574826200,9.156826171875,0.007639993359148502,-0.009938041168451308,0.014430530282109975
1772537136584893200,9.16689306640625,0.015392507182061671,-0.011243863070011139,0.01396583537980914
1772537136594961200,9.176961181640625,0.023599779035151005,-0.005094108268618583,0.0037855098880827426
1772537136605029000,9.187029052734376,0.04244008858352899,-0.01608136622905731,0.008677811974287032
1772537136615097300,9.197097412109375,0.032519875332713125,-0.020337270107865332,0.011003916834294795
1772537136625164300,9.207164306640625,0.0010837035834789276,-0.013561492362618445,-0.014992401948571205
1772537136635232300,9.217232177734376,0.020091478653252122,-0.0023714053064584732,-0.013588672630488872
1772537136645300200,9.22730029296875,0.017805705803632735,0.0003752630531787872,0.004849193596839905
1772537136655367200,9.2373671875,-0.005575754305720329,-0.008992284750938415,-0.014125117594748734
1772537136665435100,9.24743505859375,-0.017111586059629917,-0.03343640565574169,-0.026312691255658865
1772537136675503400,9.25750341796875,-0.007087327912449836,-0.03833528361320496,-0.031810411889106036
1772537136685570300,9.2675703125,0.006167582719027996,-0.02048106249272823,-0.012844868525862693
1772537136695638300,9.27763818359375,0.004065642003715038,0.007854805153608322,0.0015177110865712165
1772537136705706200,9.287706298828125,-0.0038622283861041067,0.03301554989516735,-0.005009937116503715
1772537136715773200,9.297773193359374,-0.02451192544400692,0.03288461699187755,-0.011466565909981727
1772537136725841400,9.30784130859375,-0.04131429942399263,0.06464753647744655,0.02915054503008723
1772537136735909000,9.3179091796875,-0.028977672681212423,0.08508768243789672,0.05376446954384446
1772537136745976300,9.327976318359376,-0.07214169162511826,0.07725801172554493,0.018013211074471472
1772537136756043300,9.338043212890625,-0.08068097191154956,0.05642448253333568,-0.021746260122954844
1772537136766111200,9.348111328125,-0.04141337588429451,0.07809621611535549,-0.0011009469792246818
1772537136776179200,9.35817919921875,0.021973346877098083,0.09399170438349247,0.04188727700635791
1772537136786246400,9.368246337890625,0.03327127822190523,0.09225742793679237,0.04836348728314042
1772537136796314000,9.378314208984374,0.0016270166799426079,0.10214695378839969,0.00856134598776698
1772537136806382000,9.388382080078125,-0.021728724466264247,0.09818214181065558,0.008183452586084604
1772537136816449300,9.39844921875,-0.028197335958480833,0.09479308389425277,0.019567016387730837
1772537136826517000,9.40851708984375,-0.019811784929037093,0.07204466099143028,0.02826017206162214
1772537136836584700,9.418584716796875,-0.002127367417514324,0.04246960693895817,0.014325024081021546
1772537136846652000,9.42865185546875,-0.01455342600941658,0.02629530172944069,0.0010479016177356243
1772537136856720000,9.438719970703126,-0.020372341421246526,0.029491467422246932,0.0014408464580774306
1772537136866787800,9.448787841796875,-0.020230887123942373,0.041542555221915245,0.017515782946348188
1772537136876854800,9.458854736328124,-0.044696050816774364,0.0590770428687334,0.0195458274692297
1772537136886922800,9.4689228515625,-0.06802315039038657,0.06155600020289421,-0.008950491435825825
1772537136896990700,9.47899072265625,-0.06302256562411784,0.058144730454683304,-0.012182605224847792
1772537136907057700,9.4890576171875,0.035332302404940126,0.07395721661448479,0.027705899179726837
1772537136917126000,9.4991259765625,0.10303221219033003,0.03394493969976902,0.0764835202217102
1772537136927193900,9.50919384765625,0.11837591179460287,0.015565817922353743,0.07924538615047931
1772537136937260800,9.5192607421875,0.05911094513833522,0.002532148826122284,0.04074073731973767
1772537136947328800,9.529328857421875,-0.007910042472183704,-0.008233575338125229,0.029498773945868015
1772537136957396700,9.539396728515625,-0.07576981899440288,-0.026009470525383948,-0.009593173253536223
1772537136967464000,9.5494638671875,-0.12960253146886824,-0.021603344520926476,-0.04168956247717142
1772537136977532000,9.559531982421875,-0.10857494100928305,-0.008352817803621291,-0.06726999393552541
1772537136987600000,9.569599853515625,-0.0858382085442543,-0.03503799563348293,-0.06737403883188962
1772537136997666800,9.579666748046876,-0.04048427834063768,-0.03637538171708583,-0.03004690934792161
1772537137007734800,9.58973486328125,-0.008145312532782554,-0.023444003951549528,0.01757613483145833
1772537137017803000,9.599802978515624,0.016050386568903924,-0.00926701003909111,0.07416048410162329
1772537137027870000,9.609869873046875,0.006094517482817172,0.025299860951304435,0.09995528896301985
1772537137037938000,9.61993798828125,0.006074643738567829,0.05391571458280086,0.09636910103932023
1772537137048006000,9.630005859375,-0.010606441949307918,0.06155833829045295,0.09025456368178128
1772537137058072800,9.64007275390625,-0.012049918755888938,0.05662146641016006,0.06268573488518596
1772537137068140800,9.650140869140625,-0.002147241161763668,0.032545594295859334,0.038268063595890994
1772537137078209000,9.660208984375,0.005874444991350173,0.015115736067295073,0.015350421606004238
1772537137088276000,9.67027587890625,0.004090484184026718,-0.017415245181322096,-0.03836918588280678
1772537137098344000,9.680343994140625,-0.029933950492739676,-0.057657239198684686,-0.06118950497806072
1772537137108412000,9.690411865234376,-0.027439503328502177,-0.04143500319421291,-0.01580342607051134
1772537137118480000,9.70047998046875,-0.054665071645379065,-0.0025748189240694043,0.03481193179264665
1772537137128547000,9.710547119140625,-0.12266805603057146,0.009694295540452003,0.01342792911082506
1772537137138614800,9.72061474609375,-0.12388415382206439,0.036546062108874316,0.026946605245023965
1772537137148682000,9.730681884765625,-0.09245558085739612,0.06693593967556953,0.040594168455898756
1772537137158749700,9.740749755859374,-0.07174947743713855,0.07443594004213809,0.04571823347136378
1772537137168819000,9.75081884765625,-0.04147065902948379,0.0638303748756647,-0.0027307401381433008
1772537137178887000,9.760886962890625,-0.047970834703743456,0.00620703794658184,-0.062037061718106266
1772537137188955000,9.770954833984375,-0.030953941190242765,-0.008187398108839988,-0.08326806579530238
1772537137199021800,9.781021728515626,0.009728197810053825,-0.0042728550136089324,-0.05180661347433924
1772537137209089800,9.79108984375,0.0011938859596848487,0.01156885724067688,-0.05222659245207906
1772537137219158000,9.801157958984374,-0.007135843229293823,0.026492285606265067,-0.06264978678897022
1772537137229225000,9.811224853515625,-0.030531331863999363,0.04236380847692489,-0.04749152675420046
1772537137239293000,9.82129296875,-0.01821720921397209,0.07167699672281741,-0.012179098093509673
1772537137249361000,9.83136083984375,0.030769232273101806,0.0702092622578144,0.0337334889061749
1772537137259427800,9.841427734375,0.05076543385833501,0.06219371358454227,0.041555853094905615
1772537137269496000,9.85149609375,0.02234597958177328,0.007913841864466666,-0.008495148883759974
1772537137279563800,9.861563720703124,0.003939969797432423,-0.014124971464276314,-0.03598755144327879
1772537137289631000,9.871630859375,0.003868658126890659,-0.01251169104874134,-0.03628916473835706
1772537137299699000,9.881698974609375,-0.003554185350239277,-0.012270868030190467,-0.02282441074848175
1772537137309766700,9.8917666015625,-0.047824411970376964,-0.01719546495079994,-0.027484511514008044
1772537137319833900,9.901833740234375,-0.08394874153584242,-0.0007850128978490829,-0.01691401766091585
1772537137329901800,9.91190185546875,-0.10414309604167937,0.007608721438050269,-0.001691752479225397
1772537137339969800,9.9219697265625,-0.0989005192130804,0.009039046502113342,-0.008946253652125596
1772537137350036700,9.93203662109375,-0.08150660908073186,-0.005894903257489204,-0.0181841837272048
1772537137360104700,9.942104736328124,-0.06371171693205833,-0.009078209468722342,-0.042054888658225535
1772537137370173000,9.9521728515625,-0.028542203873395917,-0.010016951623558997,-0.07291121469289064
1772537137380240000,9.962239990234375,-0.031160861939191816,-0.02818739908635616,-0.09228168559521437
1772537137390307800,9.972307861328124,-0.007151040798425674,-0.010560556980967521,-0.08618819102570414
1772537137400375800,9.982375732421875,0.033629297879338264,0.03642272799015045,-0.014367401918023824
1772537137410442800,9.99244287109375,0.05377776741683483,0.08193535588681697,0.04909793903753161
1772537137420510700,10.0025107421875,0.061732525813579554,0.1062900449424982,0.05530030080899596
1772537137430579000,10.012578857421875,0.059068275040388106,0.10939444069862365,0.060505760497599835
1772537137440646000,10.02264599609375,0.08917962792664766,0.12004267596304416,0.06493088346347213
1772537137450713900,10.0327138671875,0.11186930637955665,0.1098281559407711,0.026723610144108532
1772537137460781800,10.04278173828125,0.05845978775322437,0.0548421817779541,-0.05157514280602336
1772537137470848800,10.052848876953124,-0.003676642686128616,0.0028290859460830685,-0.12349588515684008
1772537137480917000,10.0629169921875,-0.059300330230593674,-0.009335983622074127,-0.13051438561677933
1772537137490985000,10.07298486328125,-0.09005874884873628,-0.0184171157002449,-0.10741276536211371
1772537137501052000,10.083052001953124,-0.11592296568453311,-0.0036047464936971663,-0.0743286802753806
1772537137511120000,10.093119873046875,-0.13135726618170737,0.010438976427912711,-0.021959318351745603
1772537137521187800,10.103187744140625,-0.15924188292920588,0.018827450066804884,0.00015241408273577688
1772537137531254800,10.1132548828125,-0.15586626901626585,0.03666121292114258,-0.0038151743739843367
1772537137541323000,10.123322998046875,-0.1405067873209715,0.05249065021574497,-0.016577771443873644
1772537137551391000,10.133390869140625,-0.11645721869170665,0.053929158586263654,-0.0315320333391428
1772537137561458000,10.1434580078125,-0.04813187048435211,0.07791910598278046,0.011087503464519977
1772537137571526000,10.15352587890625,0.04387099816948175,0.0904039090245962,0.08896671582832932
1772537137581593900,10.16359375,0.10505319662392139,0.1015191772788763,0.12720394589453934
1772537137591661000,10.1736611328125,0.09903349794298409,0.11999591421186924,0.10137699232921003
1772537137601729000,10.18372900390625,0.048365971501171584,0.10354103849530219,0.056903205960988995
1772537137611796700,10.193796630859374,0.03191840230822563,0.08717851723730563,0.024315526089072226
1772537137621864000,10.203864013671875,0.013100889113545417,0.04253039721548557,-0.02339782672226429
1772537137631932000,10.213931884765625,-0.038402211369574064,-0.015989596292376517,-0.09795783153548836
1772537137642000000,10.223999755859374,-0.06298807883262635,-0.05638181243538856,-0.13687339925467967
1772537137652067000,10.234067138671875,-0.03844984990358352,-0.05931845040917396,-0.07797244360521435
1772537137662134800,10.244134765625,-0.017913842353224754,-0.018423545441031454,0.015836013165861366
1772537137672202800,10.25420263671875,-0.010823007309436798,0.01480301685631275,0.10931947576627135
1772537137682269700,10.264269775390625,-0.025618717642128468,0.04714928918778896,0.1514116276949644
1772537137692337700,10.274337646484375,-0.08882891479283571,0.038222470888495445,0.11689590236991643
1772537137702406000,10.284406005859376,-0.11568068136125802,0.01690320400595665,0.07887640670761466
1772537137712472800,10.294472900390625,-0.12365677480697632,0.012262100201845169,0.0069976038023829455
1772537137722540800,10.304540771484374,-0.14586217687427996,-0.030220950740575788,-0.06390899306982756
1772537137732608800,10.31460888671875,-0.10192395868748426,-0.03656768941879272,-0.07967764008790254
1772537137742675700,10.32467578125,-0.058463002623617644,-0.009046645286679268,0.002192103216797113
1772537137752744000,10.334743896484374,-0.14123451707363127,0.23953590134978292,0.222177208661288
1772537137762812000,10.34481201171875,0.21462679328173398,0.36711423351466654,0.251781342677772
1772537137772878800,10.35487890625,0.5019780465126037,0.052744332715868945,0.02090878638550639
1772537137782946800,10.36494677734375,0.6333399888694285,-0.09585106851458548,-0.23433672527149318
1772537137793014800,10.375014892578125,0.5205331093788147,-0.27961422923803325,-0.2843034099675715
1772537137803081700,10.385081787109375,0.24555706133544444,-0.287960617300868,-0.2161824982911348
1772537137813150000,10.39514990234375,-0.15485709197372197,-0.11030220319330691,-0.1157129761956632
1772537137823218000,10.405218017578125,-0.4926271575823426,-0.09184826261401176,-0.05656535230875015
1772537137833285000,10.41528515625,-0.3406324693024158,0.047102527436614035,-0.03987272231355309
