time,seconds_elapsed,z,y,x
1772537127493793300,0.075793212890625,-0.005216683726757765,0.011578342877328396,-0.03642960265278816
1772537127503861500,0.085861572265625,0.008512976579368114,-0.0005294526927173138,-0.010747142136096954
1772537127513929500,0.095929443359375,0.020781533792614937,-0.01545280497521162,0.013271678239107132
1772537127523996400,0.105996337890625,0.02049923874437809,-0.0186171717941761,0.034582823514938354
1772537127534064400,0.116064453125,0.019101079553365707,-0.01606559567153454,0.04081675410270691
1772537127544132400,0.12613232421875,0.026621846482157707,-0.0175311341881752,0.031106604263186455
1772537127554199300,0.13619921875,0.02159634605050087,-0.01745377480983734,0.006417565047740936
1772537127564267500,0.146267578125,0.01643114537000656,-0.013592456467449665,-0.012997678481042385
1772537127574335200,0.156335205078125,0.008758016861975193,-0.013729376718401909,-0.0259725172072649
1772537127584402400,0.16640234375,0.002872697077691555,-0.013426842167973518,-0.031778473407030106
1772537127594470100,0.17647021484375,0.0046692597679793835,-0.016405014321208,-0.03138240799307823
1772537127604538000,0.1865380859375,0.013903770595788956,-0.0221870020031929,-0.02907504327595234
1772537127614605300,0.196605224609375,0.021882036700844765,-0.024462401866912842,-0.018730659037828445
1772537127624673300,0.20667333984375,0.02070518583059311,-0.02879190258681774,-0.005516319070011377
1772537127634741200,0.2167412109375,0.01521020196378231,-0.020572995766997337,0.002090663183480501
1772537127644808200,0.22680810546875,0.021680884063243866,-0.013570747338235378,-0.003220212645828724
1772537127654876200,0.236876220703125,0.03156690672039986,-0.0056595392525196075,-0.014066831208765507
1772537127664944400,0.2469443359375,0.027027547359466553,-0.00011803419329226017,-0.02122008241713047
1772537127675011300,0.25701123046875,0.020092524588108063,0.0051964400336146355,-0.012779520824551582
1772537127685079300,0.267079345703125,0.023711493238806725,0.008212469518184662,-0.009951245039701462
1772537127695147300,0.277147216796875,0.026783248409628868,0.00386249041184783,0.002590422285720706
1772537127705214200,0.287214111328125,0.02421383187174797,-0.00214533437974751,0.012870490550994873
1772537127715282200,0.2972822265625,0.027804125100374222,-0.004516510758548975,0.018749704584479332
1772537127725349400,0.307349365234375,0.03217384219169617,0.0014215393457561731,0.0036716852337121964
1772537127735417300,0.317417236328125,0.02838924154639244,0.005063485819846392,0.003667667042464018
1772537127745485300,0.3274853515625,0.01451390702277422,0.016974473372101784,0.0043283975683152676
1772537127755552300,0.33755224609375,0.011038475669920444,0.027969641610980034,0.0032639873679727316
1772537127765620200,0.3476201171875,0.012480311095714569,0.028750747442245483,-0.002138234907761216
1772537127775688400,0.3576884765625,0.00899119395762682,0.025072744116187096,0.0023444057442247868
1772537127785755400,0.36775537109375,-0.0028367030899971724,0.018138138577342033,0.00630186265334487
1772537127795823400,0.3778232421875,-0.012424996122717857,0.008658748120069504,0.004047293681651354
1772537127805891300,0.387891357421875,-0.017659172415733337,0.0036322972737252712,-0.002592233242467046
1772537127815958300,0.397958251953125,-0.01912776380777359,0.013707472011446953,-0.00955707672983408
1772537127826026200,0.408026123046875,-0.017699243500828743,0.02463601902127266,-0.016002193093299866
1772537127836094500,0.418094482421875,-0.0088997483253479,0.02297144941985607,-0.019314512610435486
1772537127846161700,0.42816162109375,-0.0034490569960325956,0.012336647137999535,-0.020159533247351646
1772537127856229600,0.438229736328125,0.0001419493928551674,-0.00220873998478055,-0.013465411961078644
1772537127866297600,0.448297607421875,0.00575669202953577,-0.019387193024158478,-0.0016732008662074804
1772537127876364500,0.458364501953125,0.01075237151235342,-0.029536137357354164,0.006682080682367086
1772537127886432500,0.4684326171875,0.016033953055739403,-0.0299417395144701,0.009580397978425026
1772537127896500500,0.47850048828125,0.01399823185056448,-0.023771461099386215,0.008915940299630165
1772537127906567700,0.488567626953125,0.01066315546631813,-0.011324910447001457,0.009131655097007751
1772537127916635400,0.498635498046875,0.001466896035708487,-0.003524000756442547,0.0017697056755423546
1772537127926703400,0.508703369140625,-0.0036050942726433277,0.004766153171658516,-0.004900181200355291
1772537127936770600,0.5187705078125,-0.0013269202318042517,0.004718464333564043,-0.016930630430579185
1772537127946838300,0.52883837890625,-0.003461710177361965,-0.0013383629266172647,-0.017479509115219116
1772537127956906500,0.538906494140625,-0.008136573247611523,-0.003775845980271697,-0.007756412029266357
1772537127966973400,0.548973388671875,-0.006244131363928318,-0.0036642595659941435,-0.002540611196309328
1772537127977041400,0.55904150390625,0.0026055036578327417,-0.0056841084733605385,0.002367432927712798
1772537127987109400,0.569109375,0.005060938186943531,-0.007399450987577438,0.010396330617368221
1772537127997176300,0.57917626953125,0.0026623071171343327,-0.004818173125386238,0.016315285116434097
1772537128007244500,0.58924462890625,0.008928459137678146,-0.0060296449810266495,0.013767173513770103
1772537128017312500,0.5993125,0.014000206254422665,-0.006657810881733894,-0.0019681416451931
1772537128027379500,0.60937939453125,0.016181867569684982,-0.011598240584135056,-0.00630110502243042
1772537128037447400,0.619447509765625,0.015126196667551994,-0.02664274349808693,-0.0028054944705218077
1772537128047515400,0.629515380859375,0.020176615566015244,-0.034866586327552795,0.0016185487620532513
1772537128057582300,0.639582275390625,0.01391327753663063,-0.03948677331209183,0.004886843729764223
1772537128067650600,0.649650634765625,0.0033708875998854637,-0.03346243500709534,0.005484989378601313
1772537128077718500,0.659718505859375,-0.002766928169876337,-0.023617031052708626,-0.009739687666296959
1772537128087785500,0.669785400390625,-0.005532620940357447,-0.015538331121206284,-0.023124469444155693
1772537128097853400,0.679853515625,-0.01752404309809208,-0.008390899747610092,-0.032740022987127304
1772537128107921700,0.689921630859375,-0.02276354655623436,-0.003800675505772233,-0.034239914268255234
1772537128117988600,0.699988525390625,-0.015053565613925457,-0.004974274430423975,-0.037641748785972595
1772537128128056600,0.710056640625,-0.0012519997544586658,-0.01143164187669754,-0.03229838237166405
1772537128138124500,0.72012451171875,0.007532808929681778,-0.02304592914879322,-0.023569177836179733
1772537128148191500,0.73019140625,0.019050713628530502,-0.03179361671209335,-0.013690181076526642
1772537128158259500,0.740259521484375,0.022815557196736336,-0.030621852725744247,-0.007262680679559708
1772537128168327700,0.75032763671875,0.020938295871019363,-0.022983640432357788,-0.0030527557246387005
1772537128178394600,0.76039453125,0.014394273050129414,-0.010698767378926277,-0.004543492570519447
1772537128188462600,0.770462646484375,0.017333868891000748,-0.0026243289466947317,-0.0066026486456394196
1772537128198530600,0.780530517578125,0.020032688975334167,0.007961968891322613,-0.014977941289544106
1772537128208597500,0.790597412109375,0.022071072831749916,0.012286143377423286,-0.02161959931254387
1772537128218665500,0.80066552734375,0.017863817512989044,0.014516767114400864,-0.01208660751581192
1772537128228733400,0.8107333984375,0.006879344582557678,0.018808450549840927,-0.0033218779135495424
1772537128238800600,0.820800537109375,-0.0011237352155148983,0.030026031658053398,-0.003924435004591942
1772537128248868400,0.830868408203125,-0.006059371400624514,0.0390179306268692,-0.013823671266436577
1772537128258936300,0.840936279296875,-0.009034260176122189,0.044829268008470535,-0.024109775200486183
1772537128269003300,0.851003173828125,-0.0040152668952941895,0.04144518822431564,-0.04039900004863739
1772537128279071500,0.861071533203125,0.0012212208239361644,0.026687446981668472,-0.03744211420416832
1772537128289139500,0.871139404296875,0.005041791591793299,0.009521509520709515,-0.02299259975552559
1772537128299206400,0.881206298828125,0.005946836434304714,-0.0031679701060056686,-0.012002749368548393
1772537128309274400,0.8912744140625,0.011802861467003822,-0.01791362650692463,-0.0006691345479339361
1772537128319342300,0.90134228515625,-0.00032096588984131813,-0.012053183279931545,0.002915856894105673
1772537128329409500,0.911409423828125,-0.00910433754324913,-0.00004179379902780056,-0.017229359596967697
1772537128339477500,0.9214775390625,-0.012066678144037724,0.006479845382273197,-0.03617721423506737
1772537128349544400,0.93154443359375,-0.0233859121799469,0.013617649674415588,-0.04996652901172638
1772537128359612400,0.9416123046875,-0.029820354655385017,0.018130715936422348,-0.05320309102535248
1772537128369680400,0.951680419921875,-0.02479070983827114,0.012666975148022175,-0.04454941302537918
1772537128379747300,0.961747314453125,-0.01809549890458584,0.0068613579496741295,-0.027661804109811783
1772537128389815600,0.971815673828125,-0.010445302352309227,0.005159065593034029,-0.006714711897075176
1772537128399883500,0.981883544921875,-0.005397749599069357,0.005512760952115059,0.009389469400048256
1772537128409950500,0.991950439453125,-0.006481922697275877,0.003935104701668024,0.017038598656654358
1772537128420018400,1.002018310546875,-0.012526794336736202,0.007478140294551849,0.014360341243445873
1772537128430086400,1.01208642578125,-0.014415774494409561,0.01577947847545147,0.011999448761343956
1772537128440153600,1.022153564453125,-0.010693926364183426,0.022913431748747826,-0.003200469072908163
1772537128450221600,1.0322216796875,-0.008153801783919334,0.010326799005270004,-0.015527443028986454
1772537128460289500,1.04228955078125,-0.0009724720730446279,0.000612256582826376,-0.010079213418066502
1772537128470356500,1.0523564453125,-0.00010215106885880232,-0.011779963970184326,-0.004330513998866081
1772537128480424400,1.062424560546875,0.006442728918045759,-0.012041171081364155,0.0008072094060480595
1772537128490492700,1.07249267578125,0.009881669655442238,-0.0089188814163208,0.002249577548354864
1772537128500559600,1.0825595703125,0.006599409505724907,-0.00532058160752058,0.0019862104672938585
1772537128510627600,1.092627685546875,0.00018518581055104733,-0.010897773317992687,0.0029670526273548603
1772537128520695600,1.102695556640625,0.0018681526416912675,-0.018443437293171883,-0.004400379024446011
1772537128530762500,1.112762451171875,-0.0016647969605401158,-0.0238371379673481,-0.009069966152310371
1772537128540830500,1.12283056640625,-0.007339136209338903,-0.0253585334867239,-0.01608596183359623
1772537128550898400,1.1328984375,-0.012335493229329586,-0.013791892677545547,-0.024411270394921303
1772537128560965600,1.142965576171875,-0.019868914037942886,-0.009133168496191502,-0.02773001603782177
1772537128571033600,1.15303369140625,-0.021614082157611847,-0.005540298298001289,-0.020556790754199028
1772537128581101300,1.163101318359375,-0.025425361469388008,-0.004672674462199211,-0.015655428171157837
1772537128591168500,1.17316845703125,-0.0274171382188797,-0.00019323755986988544,-0.005266701802611351
1772537128601236500,1.183236572265625,-0.023989364504814148,0.0006470638327300549,0.009732997044920921
1772537128611304400,1.193304443359375,-0.018152780830860138,-0.004806024022400379,0.012321589514613152
1772537128621371400,1.203371337890625,-0.014321928843855858,-0.008546077646315098,0.018731819465756416
1772537128631439400,1.213439453125,-0.007423276547342539,-0.010226798243820667,0.024757221341133118
1772537128641507300,1.22350732421875,-0.008153941482305527,-0.010761118493974209,0.027070708572864532
1772537128651574300,1.23357421875,-0.00940775778144598,-0.004095492884516716,0.02500622533261776
1772537128661642500,1.243642578125,-0.012219277210533619,-0.006496673449873924,0.01687481813132763
1772537128671710500,1.25371044921875,-0.016209226101636887,-0.006638886407017708,0.013226288370788097
1772537128681777400,1.26377734375,-0.01803092285990715,-0.009049109183251858,0.010030802339315414
1772537128691845400,1.273845458984375,-0.020329497754573822,-0.014859061688184738,0.0035020620562136173
1772537128701913600,1.28391357421875,-0.014620726928114891,-0.015801172703504562,0.001273558707907796
1772537128711980500,1.29398046875,-0.011716283857822418,-0.01987048238515854,0.003309545572847128
1772537128722048500,1.304048583984375,-0.009074388071894646,-0.017858510836958885,0.011966755613684654
1772537128732116500,1.314116455078125,-0.005761947948485613,-0.021721959114074707,0.018455013632774353
1772537128742183400,1.324183349609375,-0.010956062003970146,-0.02127707563340664,0.03073505498468876
1772537128752251400,1.33425146484375,-0.01209136750549078,-0.021596122533082962,0.029677512124180794
1772537128762319600,1.344319580078125,-0.013752885162830353,-0.01611172780394554,0.017243560403585434
1772537128772386600,1.354386474609375,-0.013117987662553787,-0.007434084080159664,0.0009295670315623283
1772537128782454500,1.36445458984375,-0.003907076083123684,-0.0112139992415905,-0.016440629959106445
1772537128792522500,1.3745224609375,0.003354298649355769,-0.01368674449622631,-0.01742706447839737
1772537128802589400,1.38458935546875,0.003796808421611786,-0.01983702927827835,-0.00432176049798727
1772537128812657700,1.39465771484375,0.004806679207831621,-0.022581949830055237,0.007949287071824074
1772537128822725600,1.4047255859375,0.004510739352554083,-0.019934263080358505,0.01785193756222725
1772537128832792600,1.41479248046875,0.003187681082636118,-0.01815234124660492,0.019798440858721733
1772537128842860500,1.424860595703125,-0.0019047404639422894,-0.00743876351043582,0.016218554228544235
1772537128852928500,1.434928466796875,-0.002222721930593252,0.009796150028705597,0.006541958078742027
1772537128862995500,1.444995361328125,0.00011988077312707901,0.013858105055987835,-0.0021963855251669884
1772537128873063400,1.4550634765625,0.007807094603776932,0.013606968335807323,-0.00605717021971941
1772537128883131400,1.46513134765625,0.02134956419467926,0.0026084138080477715,-0.005503848195075989
1772537128893198600,1.475198486328125,0.031377162784338,-0.013114888221025467,0.0028403683099895716
1772537128903266300,1.485266357421875,0.04403584823012352,-0.029036428779363632,0.008940193802118301
1772537128913334300,1.495334228515625,0.0452348031103611,-0.03640379756689072,0.015316333621740341
1772537128923401500,1.5054013671875,0.042566265910863876,-0.03468270227313042,0.011864716187119484
1772537128933469400,1.515469482421875,0.020655905827879906,-0.03066798858344555,0.009109942242503166
1772537128943536600,1.52553662109375,-0.004278063774108887,-0.007810705341398716,0.0034023779444396496
1772537128953604400,1.535604248046875,-0.011528519913554192,0.006623627617955208,-0.008420726284384727
1772537128963672300,1.54567236328125,-0.01622219756245613,0.014464943669736385,-0.020384855568408966
1772537128973739300,1.5557392578125,-0.016903433948755264,0.023884810507297516,-0.017066556960344315
1772537128983807500,1.565807373046875,-0.014900671318173409,0.0268582571297884,-0.0105276545509696
1772537128993875500,1.57587548828125,-0.008330652490258217,0.028345899656414986,0.00217296089977026
1772537129003942400,1.5859423828125,-0.006597741041332483,0.024245735257864,0.01504221186041832
1772537129014010400,1.59601025390625,-0.011116326786577702,0.021661672741174698,0.022354986518621445
1772537129024078300,1.606078369140625,-0.010004428215324879,0.024625804275274277,0.021383648738265038
1772537129034145300,1.616145263671875,-0.0047010090202093124,0.02892441302537918,0.013265002518892288
1772537129044213500,1.626213623046875,0.0006567257223650813,0.035220276564359665,0.005861377343535423
1772537129054281500,1.636281494140625,0.0032450519502162933,0.026395626366138458,-0.0008183634490706027
1772537129064348400,1.646348388671875,-0.0007267737528309226,0.019637171179056168,0.006851044949144125
1772537129074416400,1.65641650390625,-0.008272307924926281,0.015814468264579773,0.01062234677374363
1772537129084484400,1.666484375,-0.014478775672614574,0.015563633292913437,0.0074142212979495525
1772537129094551600,1.676551513671875,-0.01772250607609749,0.024862859398126602,-0.004999837838113308
1772537129104619500,1.68661962890625,-0.018014496192336082,0.040936458855867386,-0.02242463082075119
1772537129114687500,1.6966875,-0.008877457119524479,0.0529254786670208,-0.03158031404018402
1772537129124754400,1.70675439453125,-0.0034072452690452337,0.04502428323030472,-0.03326015546917915
1772537129134822400,1.716822509765625,0.0022274707444012165,0.039885714650154114,-0.02071213908493519
1772537129144890600,1.726890625,0.012576445005834103,0.03230271488428116,0.0020052834879606962
1772537129154957600,1.73695751953125,0.020486565306782722,0.023186715319752693,0.02117365226149559
1772537129165025500,1.747025634765625,0.021444372832775116,0.013925516977906227,0.034832924604415894
1772537129175093500,1.757093505859375,0.021314410492777824,0.0159271489828825,0.03619220107793808
1772537129185160400,1.767160400390625,0.01922811195254326,0.025998499244451523,0.024495571851730347
1772537129195228400,1.777228515625,0.018056588247418404,0.04704146832227707,0.006620433181524277
1772537129205296600,1.787296630859375,0.010962343774735928,0.0531865730881691,-0.006297431420534849
1772537129215363600,1.797363525390625,0.003186179790645838,0.05205259844660759,-0.010543042793869972
1772537129225431600,1.807431640625,0.005897047463804483,0.04806024953722954,-0.00249910494312644
1772537129235499300,1.817499267578125,0.017159555107355118,0.03358810022473335,0.005219268146902323
1772537129245566500,1.82756640625,0.023260192945599556,0.010804013349115849,0.020996449515223503
1772537129255634400,1.837634521484375,0.01494873221963644,-0.01192766334861517,0.035860348492860794
1772537129265702400,1.847702392578125,0.006742982193827629,-0.026283353567123413,0.04420149326324463
1772537129275769600,1.85776953125,0.001972462050616741,-0.0228316318243742,0.03042043186724186
1772537129285837300,1.86783740234375,0.000482146511785686,-0.010697655379772186,0.0021076779812574387
1772537129295905300,1.8779052734375,-0.009052502922713757,0.004588622134178877,-0.019291086122393608
1772537129305972200,1.88797216796875,-0.013529229909181595,0.011401967145502567,-0.027791351079940796
1772537129316040400,1.89804052734375,-0.0193418450653553,0.012679219245910645,-0.027738619595766068
1772537129326108400,1.9081083984375,-0.020269375294446945,0.0043103438802063465,-0.015007482841610909
1772537129336175400,1.91817529296875,-0.013506809249520302,-0.005017112009227276,-0.005162043496966362
1772537129346243300,1.928243408203125,-0.007100875489413738,-0.017303865402936935,0.003411342855542898
1772537129356311600,1.9383115234375,-0.003931181505322456,-0.02407069131731987,0.014556670561432838
1772537129366378500,1.94837841796875,-0.0038968706503510475,-0.02953910641372204,0.014203852042555809
1772537129376446500,1.958446533203125,-0.003662246046587825,-0.019774626940488815,0.0117183243855834
1772537129386514400,1.968514404296875,-0.006746942177414894,-0.0058232443407177925,0.006244147662073374
1772537129396581400,1.978581298828125,-0.008537651039659977,0.015540367923676968,-0.004299307242035866
1772537129406649300,1.9886494140625,-0.004550598096102476,0.02446621283888817,-0.0013539893552660942
1772537129416717600,1.998717529296875,-0.002718609757721424,0.02682523988187313,0.01025286503136158
1772537129426784500,2.008784423828125,-0.0044255368411540985,0.022997569292783737,0.024807043373584747
1772537129436852500,2.0188525390625,0.0015671083237975836,0.016226481646299362,0.03260158374905586
1772537129446919400,2.02891943359375,0.004050792660564184,0.00806636456400156,0.030202051624655724
1772537129456987400,2.0389873046875,0.00391869992017746,0.009732704609632492,0.028650229796767235
1772537129467055600,2.0490556640625,0.0061156731098890305,0.015200230292975903,0.018163317814469337
1772537129477122600,2.05912255859375,0.007960444316267967,0.01792198047041893,0.010969586670398712
1772537129487190500,2.0691904296875,0.004733534064143896,0.013184897601604462,0.009853409603238106
1772537129497258500,2.079258544921875,0.0021883512381464243,0.01064557395875454,0.018291102722287178
1772537129507325400,2.089325439453125,-0.003225495805963874,0.01356632448732853,0.019184822216629982
1772537129517393400,2.099393310546875,0.004158917348831892,0.007027997635304928,0.008935380727052689
1772537129527461600,2.109461669921875,0.00218052975833416,0.001407118164934218,-0.00458151288330555
1772537129537528600,2.119528564453125,-0.006941596046090126,-0.00016228272579610348,-0.009341913275420666
1772537129547596500,2.129596435546875,-0.0073654004372656345,0.0033857845701277256,-0.015772607177495956
1772537129557664500,2.13966455078125,-0.002406594343483448,0.005234817508608103,-0.018478112295269966
1772537129567731500,2.1497314453125,0.00008590740617364645,0.000014597084373235703,-0.008481242693960667
1772537129577799700,2.159799560546875,-0.0031359847635030746,-0.0019470874685794115,0.009440766647458076
1772537129587867400,2.169867431640625,-0.005966716445982456,0.007313454523682594,0.0161233339458704
1772537129597934600,2.1799345703125,-0.001279286458157003,0.016040634363889694,0.015000013634562492
1772537129608002300,2.190002197265625,-0.002301932079717517,0.022197555750608444,0.017571235075592995
1772537129618070300,2.2000703125,-0.00216264883056283,0.02433474361896515,0.01438636239618063
1772537129628137500,2.210137451171875,0.0073061538860201836,0.017979878932237625,0.010595044121146202
1772537129638205400,2.220205322265625,0.015645312145352364,0.010686812922358513,0.006220268551260233
1772537129648273400,2.2302734375,0.0216008722782135,0.004227133467793465,0.006893634796142578
1772537129658340400,2.24034033203125,0.029033221304416656,-0.0060723754577338696,0.008867570199072361
1772537129668408300,2.250408203125,0.026157518848776817,-0.012710491195321083,0.010668792761862278
1772537129678476300,2.260476318359375,0.018437813967466354,-0.011038025841116905,0.013542876578867435
1772537129688543500,2.27054345703125,0.011813461780548096,-0.008176419883966446,0.013068359345197678
1772537129698611500,2.280611572265625,0.0012132812989875674,-0.0032442451920360327,0.00820276327431202
1772537129708679400,2.290679443359375,-0.011345920152962208,0.007668323814868927,0.0005451107863336802
1772537129718746400,2.300746337890625,-0.01807492971420288,0.01587618701159954,-0.005676832515746355
1772537129728814300,2.310814453125,-0.019213099032640457,0.02135992795228958,-0.012972252443432808
1772537129738882600,2.320882568359375,-0.01701359450817108,0.015327602624893188,-0.013862013816833496
1772537129748949500,2.330949462890625,-0.009293044917285442,0.010732733644545078,-0.01283941324800253
1772537129759017500,2.341017578125,-0.0015677468618378043,-0.0022456494625657797,-0.005900547839701176
1772537129769085400,2.35108544921875,0.007934308610856533,-0.010185280814766884,0.006316655315458775
1772537129779152400,2.36115234375,0.013563698157668114,-0.01659417897462845,0.018212996423244476
1772537129789220400,2.371220458984375,0.01708679273724556,-0.02141556516289711,0.02069293148815632
1772537129799288600,2.38128857421875,0.017001304775476456,-0.01907171681523323,0.01595410145819187
1772537129809355500,2.39135546875,0.009290464222431183,-0.012205639854073524,0.008355436846613884
1772537129819423500,2.401423583984375,0.007690170779824257,-0.00896404031664133,-0.005850397050380707
1772537129829491500,2.411491455078125,0.00963680911809206,-0.00726599246263504,-0.017852699384093285
1772537129839558400,2.421558349609375,0.0016079117776826024,-0.005034796893596649,-0.0178830586373806
1772537129849626400,2.43162646484375,0.004042803309857845,0.0016739788698032498,-0.012698275968432426
1772537129859694300,2.4416943359375,0.008919849991798401,-0.004699232056736946,-0.003593726549297571
1772537129869761500,2.451761474609375,0.00957474485039711,0.005773723125457764,0.006350223906338215
1772537129879829500,2.46182958984375,0.0185951367020607,0.007388398051261902,0.012414242140948772
1772537129889897500,2.4718974609375,0.02467157132923603,-0.0011152916122227907,0.0031636981293559074
1772537129899964400,2.48196435546875,0.0229229386895895,-0.01794913224875927,-0.007185345981270075
1772537129910032400,2.492032470703125,0.0151172811165452,-0.02100774645805359,-0.01625869609415531
1772537129920100400,2.502100341796875,0.007711031474173069,-0.01571258343756199,-0.02046489343047142
1772537129930167600,2.51216748046875,0.0025658223312348127,-0.012289813719689846,-0.02557019144296646
1772537129940235300,2.5222353515625,-0.0015261246589943767,-0.008479895070195198,-0.02014852873980999
1772537129950303200,2.53230322265625,0.0013651971239596605,-0.005957070738077164,-0.019346369430422783
1772537129960370200,2.5423701171875,0.006676604971289635,-0.009892689995467663,-0.016415294259786606
1772537129970438400,2.5524384765625,0.0007467314135283232,-0.008318105712532997,-0.010847499594092369
1772537129980506400,2.56250634765625,-0.009351177141070366,0.0011984343873336911,-0.001581829972565174
1772537129990573300,2.5725732421875,-0.01750059239566326,0.0023002801463007927,0.0016210314352065325
1772537130000641300,2.582641357421875,-0.019251886755228043,-0.0007128200959414244,0.0055739618837833405
1772537130010708200,2.592708251953125,-0.020071495324373245,0.008435806259512901,0.002974121365696192
1772537130020776200,2.602776123046875,-0.019937271252274513,0.007779603824019432,0.005362710915505886
1772537130030844400,2.612844482421875,-0.013963159173727036,0.00474617350846529,0.01150928158313036
1772537130040911400,2.622911376953125,-0.011168704368174076,-0.0010371471289545298,0.013971639797091484
1772537130050979300,2.632979248046875,-0.008259755559265614,-0.005676448345184326,0.014397505670785904
1772537130061047300,2.64304736328125,-0.012217479757964611,-0.005381636321544647,0.018031122162938118
1772537130071114200,2.6531142578125,-0.012557212263345718,-0.003785235108807683,0.012470461428165436
1772537130081182500,2.663182373046875,-0.011639486998319626,-0.005700048059225082,0.0058125583454966545
1772537130091250400,2.67325048828125,-0.016455138102173805,-0.0003819654230028391,0.005171553697437048
1772537130101317400,2.6833173828125,-0.023552462458610535,0.00007183733396232128,0.003336902242153883
1772537130111385300,2.69338525390625,-0.02364419586956501,0.0010191816836595535,0.005198673345148563
1772537130121453300,2.703453369140625,-0.018744511529803276,-0.0013640813995152712,0.006976067088544369
1772537130131520300,2.713520263671875,-0.012189306318759918,-0.00421470683068037,0.01116698794066906
1772537130141588500,2.72358837890625,-0.022097596898674965,-0.00965501181781292,0.017629414796829224
1772537130151656400,2.733656494140625,-0.025215912610292435,-0.015006443485617638,0.023091312497854233
1772537130161723400,2.743723388671875,-0.02579834684729576,-0.008839093148708344,0.014813408255577087
1772537130171791400,2.753791259765625,-0.02390475384891033,0.005555660463869572,-0.001035840716212988
1772537130181859300,2.763859375,-0.022413384169340134,0.01318854559212923,-0.008036758750677109
1772537130191926500,2.773926513671875,-0.0265450831502676,0.01318296603858471,-0.00500766234472394
1772537130201994500,2.783994384765625,-0.018341481685638428,0.006925602443516254,0.0071584563702344894
1772537130212062500,2.7940625,-0.008905686438083649,0.002882016822695732,0.017743827775120735
1772537130222129400,2.80412939453125,0.0036963913589715958,-0.0034421919845044613,0.02324005961418152
1772537130232197400,2.814197265625,0.0025563205126672983,-0.013331539928913116,0.030173253268003464
1772537130242265300,2.824265380859375,-0.010738179087638855,-0.012176260352134705,0.033793818205595016
1772537130252332500,2.83433251953125,-0.0008381803054362535,-0.002861736575141549,0.014062494970858097
1772537130262400500,2.844400390625,0.01152075082063675,0.0024771024473011494,-0.016916725784540176
1772537130272468200,2.85446826171875,0.008740648627281189,0.0022399346344172955,-0.01995813474059105
1772537130282535400,2.864535400390625,-0.0010089181596413255,0.002303584013134241,-0.008284434676170349
1772537130292603100,2.87460302734375,-0.0039285337552428246,-0.007251079194247723,-0.0025949166156351566
1772537130302671400,2.88467138671875,-0.01103091798722744,-0.007462800480425358,0.007085407618433237
1772537130312738300,2.89473828125,-0.013804081827402115,-0.0007390372920781374,0.0037917254958301783
1772537130322806300,2.90480615234375,-0.01269407570362091,0.011169820092618465,-0.014968113973736763
1772537130332874200,2.914874267578125,-0.009448359720408916,0.021800456568598747,-0.027270440012216568
1772537130342941200,2.924941162109375,-0.008520781062543392,0.022016972303390503,-0.02624884992837906
1772537130353009400,2.935009521484375,-0.007016810588538647,0.01278560422360897,-0.008379386737942696
1772537130363077400,2.945077392578125,-0.0014414829201996326,-0.0010665617883205414,0.007239253260195255
1772537130373144300,2.955144287109375,0.002233041450381279,-0.016802404075860977,0.026189347729086876
1772537130383212300,2.96521240234375,-0.007663797587156296,-0.015963774174451828,0.03903297334909439
1772537130393280300,2.9752802734375,-0.013240313157439232,-0.01112943422049284,0.03439360484480858
1772537130403347200,2.98534716796875,-0.02015627548098564,-0.0074076661840081215,0.011484559625387192
1772537130413415400,2.99541552734375,-0.029515119269490242,-0.006114175543189049,-0.00903497263789177
1772537130423483400,3.0054833984375,-0.031461093574762344,-0.0060294875875115395,-0.02894849330186844
1772537130433550300,3.01555029296875,-0.027729975059628487,-0.009059864096343517,-0.03606907278299332
1772537130443618300,3.025618408203125,-0.025571215897798538,-0.01388844195753336,-0.032740116119384766
1772537130453686500,3.0356865234375,-0.024394163861870766,-0.02307024970650673,-0.018829138949513435
1772537130463753500,3.04575341796875,-0.023964064195752144,-0.02669561095535755,-0.0024725357070565224
1772537130473821400,3.055821533203125,-0.025882720947265625,-0.01594935916364193,0.0006556755397468805
1772537130483889400,3.065889404296875,-0.019065827131271362,-0.00815854873508215,0.0006426260806620121
1772537130493956400,3.075956298828125,-0.009760395623743534,-0.007374637760221958,-0.009329770691692829
1772537130504024300,3.0860244140625,-0.00976785272359848,-0.011169642210006714,-0.00936945155262947
1772537130514092500,3.096092529296875,-0.009120021015405655,-0.010413440875709057,-0.004866248462349176
1772537130524159500,3.106159423828125,-0.002741483971476555,-0.009237121790647507,-0.004026287235319614
1772537130534227500,3.1162275390625,0.00042448879685252905,-0.017945433035492897,-0.004169889725744724
1772537130544295400,3.12629541015625,-0.0002831130987033248,-0.012477963231503963,-0.004422890022397041
1772537130554362400,3.1363623046875,-0.004118597600609064,-0.0053119296208024025,-0.007857834920287132
1772537130564430600,3.1464306640625,0.0022881689947098494,0.002621095161885023,-0.0149735352024436
1772537130574497500,3.15649755859375,0.013684002682566643,0.008474168367683887,-0.019488297402858734
1772537130584565500,3.1665654296875,0.014823302626609802,0.005424582399427891,-0.019573519006371498
1772537130594633200,3.17663330078125,0.014842181466519833,0.0004923746455460787,-0.006568421144038439
1772537130604700400,3.186700439453125,0.019450249150395393,-0.004325283691287041,0.002286322880536318
1772537130614768400,3.196768310546875,0.022643471136689186,-0.004672498442232609,0.0029861642979085445
1772537130624836400,3.20683642578125,0.025522081181406975,-0.0018716517370194197,-0.0060850949957966805
1772537130634903600,3.216903564453125,0.02988026663661003,0.004206604789942503,-0.008566174656152725
1772537130644971300,3.22697119140625,0.028762537986040115,0.005541115067899227,-0.01430954784154892
1772537130655039200,3.237039306640625,0.028399275615811348,0.0029783952049911022,-0.015800857916474342
1772537130665106200,3.247106201171875,0.026445847004652023,-0.0015388585161417723,-0.007323217112571001
1772537130675174400,3.25717431640625,0.0181268323212862,0.0008539694827049971,-0.0043073613196611404
1772537130685242400,3.267242431640625,0.01038395892828703,-0.0008174304384738207,0.005148724652826786
1772537130695309300,3.277309326171875,0.002748658414930105,0.0004407989326864481,0.0008394336327910423
1772537130705377300,3.287377197265625,-0.0027547639328986406,0.005688823759555817,0.00014781078789383173
1772537130715445200,3.2974453125,-0.008423405699431896,0.012054862454533577,-0.005777309183031321
1772537130725512200,3.30751220703125,-0.0077903722412884235,0.019100787118077278,-0.005132824182510376
1772537130735580400,3.317580322265625,-0.004606954753398895,0.020230475813150406,-0.004811936989426613
1772537130745648400,3.3276484375,0.0062393005937337875,0.013639685697853565,-0.0022334642708301544
1772537130755715300,3.33771533203125,0.013375133275985718,-0.0040103960782289505,0.007871256209909916
1772537130765783300,3.347783203125,0.015512053854763508,-0.018833816051483154,0.018379557877779007
1772537130775851300,3.357851318359375,0.012958345003426075,-0.024534007534384727,0.026506511494517326
1772537130785918500,3.36791845703125,0.007986223325133324,-0.023905234411358833,0.02147393673658371
1772537130795986400,3.377986328125,0.0021859128028154373,-0.018631238490343094,0.009929089806973934
1772537130806054400,3.388054443359375,-0.010502452030777931,-0.0032352362759411335,-0.0059103271923959255
1772537130816121300,3.398121337890625,-0.015227592550218105,0.0032798307947814465,-0.01937340758740902
1772537130826189300,3.408189208984375,-0.015607359819114208,0.007193612400442362,-0.028432682156562805
1772537130836258000,3.418258056640625,-0.012009608559310436,0.005429370328783989,-0.02558307908475399
1772537130846325000,3.428324951171875,-0.0009055585833266377,-0.004503954201936722,-0.013524819165468216
1772537130856393000,3.43839306640625,0.0015113451518118382,-0.017150025814771652,0.00040023447945713997
1772537130866461000,3.4484609375,0.005863749422132969,-0.02177007868885994,0.016781337559223175
1772537130876527900,3.45852783203125,0.009282040409743786,-0.01874234713613987,0.02006552927196026
1772537130886595800,3.468595947265625,0.008721178397536278,-0.01681048981845379,0.01357300952076912
1772537130896663800,3.478663818359375,0.0021749846637248993,-0.009045414626598358,-0.0028353799134492874
1772537130906731000,3.48873095703125,-0.004625929519534111,0.0024288147687911987,-0.020869508385658264
1772537130916798700,3.498798828125,-0.006489645689725876,0.01586127281188965,-0.03302456811070442
1772537130926866700,3.50886669921875,0.0005490888142958283,0.02020302414894104,-0.03253135085105896
1772537130936933600,3.51893359375,0.0030051209032535553,0.0130167780444026,-0.022870423272252083
1772537130947001900,3.529001953125,0.006052043288946152,0.0033329916186630726,0.003865051083266735
1772537130957069800,3.53906982421875,0.005726547911763191,-0.00590611482039094,0.020540865138173103
1772537130967136800,3.54913671875,0.013217487372457981,-0.011948294937610626,0.025435755029320717
1772537130977204700,3.559204833984375,0.020435215905308723,-0.010368472896516323,0.009346451610326767
1772537130987272700,3.569272705078125,0.02480333112180233,-0.006112474948167801,-0.009157724678516388
1772537130997339600,3.579339599609375,0.02273743227124214,-0.005887274630367756,-0.017067333683371544
1772537131007407900,3.589407958984375,0.018835103139281273,-0.0031245111022144556,-0.014552775770425797
1772537131017475800,3.599475830078125,0.012914476916193962,0.002305277856066823,-0.0039886110462248325
1772537131027542800,3.609542724609375,0.013630867004394531,0.00805477611720562,0.001754762139171362
1772537131037610800,3.61961083984375,0.012775273062288761,0.010266407392919064,0.013198708184063435
1772537131047678700,3.6296787109375,0.01400352269411087,0.00696648471057415,0.017379606142640114
1772537131057746000,3.639745849609375,0.007698287256062031,0.0045928373001515865,0.018925348296761513
1772537131067814000,3.64981396484375,0.009432537481188774,0.008540174923837185,0.020389288663864136
1772537131077881900,3.6598818359375,0.0037288167513906956,0.006771002896130085,0.0155557319521904
1772537131087948800,3.66994873046875,0.002852370496839285,0.008342001587152481,0.013871284201741219
1772537131098016800,3.680016845703125,0.00376441003754735,0.009290823712944984,0.007283726241439581
1772537131108085000,3.6900849609375,0.006250737234950066,0.005227372981607914,0.007388388272374868
1772537131118152000,3.70015185546875,0.0028502396307885647,0.003352036699652672,0.012458477169275284
1772537131128220000,3.710219970703125,0.0004427422536537051,0.0038210193160921335,0.013611892238259315
1772537131138287900,3.720287841796875,0.004761648364365101,0.004049053881317377,0.01296218205243349
1772537131148354800,3.730354736328125,0.010728727094829082,-0.0009094856213778257,0.0088324174284935
1772537131158422800,3.7404228515625,0.00552609097212553,-0.00661836750805378,0.006964146625250578
1772537131168491000,3.750490966796875,-0.0030090739019215107,-0.005666820332407951,0.006413138937205076
1772537131178558000,3.760557861328125,-0.0051347361877560616,0.004291791934520006,-0.00032627186737954617
1772537131188626000,3.7706259765625,-0.00526283448562026,0.006747492589056492,-0.005430220160633326
1772537131198693600,3.780693603515625,-0.002371526323258877,0.006806779652833939,-0.005590030923485756
1772537131208760800,3.7907607421875,0.0005259930621832609,0.00002237665466964245,-0.004507722333073616
1772537131218828800,3.800828857421875,0.013826487585902214,-0.008660538122057915,-0.00044845615047961473
1772537131228896000,3.81089599609375,0.018389014527201653,-0.019087079912424088,0.010567443445324898
1772537131238964000,3.8209638671875,0.02343905158340931,-0.020594410598278046,0.018502501770853996
1772537131249031700,3.83103173828125,0.023671014234423637,-0.015614832751452923,0.01720820553600788
1772537131259099000,3.841098876953125,0.01600891910493374,-0.008134176954627037,0.01501937210559845
1772537131269166600,3.85116650390625,0.004593278747051954,-0.003777511650696397,0.009085049852728844
1772537131279234800,3.86123486328125,-0.006612625904381275,0.0036147944629192352,-0.00041885196696966887
1772537131289301800,3.8713017578125,-0.007955391891300678,0.014245068654417992,-0.012077106162905693
1772537131299369700,3.88136962890625,-0.0027167457155883312,0.016935059800744057,-0.029240747913718224
1772537131309437700,3.891437744140625,0.000017255544662475586,0.01117517426609993,-0.028837811201810837
1772537131319504600,3.901504638671875,-0.0003591417334973812,0.007506608031690121,-0.013064669445157051
1772537131329572900,3.91157275390625,0.00638558017089963,-0.0015188446268439293,0.0031398660503327847
1772537131339640800,3.921640869140625,0.006077041383832693,-0.01100759208202362,0.015065381303429604
1772537131349707800,3.931707763671875,0.008729283697903156,-0.012854759581387043,0.019511528313159943
1772537131359775700,3.941775634765625,0.007749408949166536,-0.010176635347306728,0.014633356593549252
1772537131369843700,3.95184375,0.011534293182194233,-0.0012667637784034014,-0.005251933354884386
1772537131379910700,3.96191064453125,0.00916910171508789,0.005274498835206032,-0.018093286082148552
1772537131389979000,3.971978759765625,0.0038403826765716076,0.008426083251833916,-0.026971731334924698
1772537131400046800,3.982046875,0.000784700270742178,0.001782595762051642,-0.02574063464999199
1772537131410113800,3.99211376953125,-0.002981009427458048,-0.008722242899239063,-0.01160537451505661
1772537131420181800,4.002181640625,-0.001991653349250555,-0.010898271575570107,-0.005548220127820969
1772537131430250000,4.01225,0.0015239855274558067,-0.012365140952169895,0.00008329993579536676
1772537131440317000,4.02231689453125,0.009586951695382595,-0.01603345200419426,0.00016454863362014294
1772537131450385000,4.032385009765625,0.007614880800247192,-0.017313102260231972,0.006178232841193676
1772537131460452900,4.042452880859375,0.004447279963642359,-0.013122346252202988,0.005803934298455715
1772537131470519800,4.052519775390625,-0.0026409896090626717,-0.002289405558258295,0.0012970664538443089
1772537131480587800,4.062587890625,-0.005259200930595398,0.0023960918188095093,-0.005666136275976896
1772537131490656000,4.072656005859375,-0.0090616624802351,-0.001945393392816186,-0.009516534395515919
1772537131500723000,4.082722900390625,-0.012765147723257542,-0.0037034081760793924,-0.009954052977263927
1772537131510791000,4.092791015625,-0.008590109646320343,-0.007405734620988369,-0.01642553322017193
1772537131520859000,4.10285888671875,0.0016792998649179935,-0.017010651528835297,-0.01998079940676689
1772537131530925800,4.11292578125,0.007574207149446011,-0.02696315199136734,-0.02146817557513714
1772537131540994000,4.122994140625,0.005688543897122145,-0.025838134810328484,-0.012458553537726402
1772537131551061800,4.133061767578125,0.003909019753336906,-0.025587530806660652,-0.005139654036611319
1772537131561129000,4.14312890625,0.0018430688651278615,-0.02628549002110958,0.0014016891364008188
1772537131571196700,4.15319677734375,-0.0011982610449194908,-0.019747164100408554,-0.000498476205393672
1772537131581264600,4.1632646484375,-0.0009390855557285249,-0.005154796876013279,-0.002475712914019823
1772537131591331800,4.173331787109375,-0.007984478026628494,-0.00011076964437961578,-0.014939306303858757
1772537131601399800,4.18339990234375,-0.007536374963819981,-0.005232737399637699,-0.01633613184094429
1772537131611467800,4.1934677734375,-0.01047890167683363,-0.010587022639811039,-0.012385863810777664
1772537131621534700,4.20353466796875,-0.015796435996890068,-0.00208674487657845,-0.009841213934123516
1772537131631602700,4.213602783203125,-0.009738276712596416,0.007354160770773888,-0.008996458724141121
1772537131641670700,4.223670654296875,-0.0038623439613729715,0.009186120703816414,-0.005231323651969433
1772537131651737900,4.23373779296875,-0.0035326445940881968,0.017144978046417236,0.0014121977146714926
1772537131661805800,4.243805908203125,0.0002451005857437849,0.015286199748516083,0.007508864626288414
1772537131671873800,4.253873779296875,-0.002843900118023157,0.00742002110928297,0.013696985319256783
1772537131681940700,4.263940673828125,-0.004078124649822712,-0.001814626157283783,0.017533332109451294
1772537131692008700,4.2740087890625,-0.002262913854792714,-0.0007243277505040169,0.010274620726704597
1772537131702077000,4.284076904296875,0.0011789624113589525,-0.000435148598626256,-0.0076351952739059925
1772537131712144000,4.294143798828125,0.003865559119731188,-0.004162508994340897,-0.016905926167964935
1772537131722211800,4.3042119140625,0.005352525506168604,-0.0017237563151866198,-0.03686084598302841
1772537131732279800,4.31427978515625,0.004051837604492903,0.003397236345335841,-0.0389530286192894
1772537131742346800,4.3243466796875,0.0014308615354821086,0.012900636531412601,-0.02885885164141655
1772537131752414700,4.334414794921875,-0.000522833492141217,0.015404273755848408,-0.016305241733789444
1772537131762483000,4.34448291015625,0.0037869769148528576,0.01483054831624031,-0.002910726936534047
1772537131772550000,4.3545498046875,0.004391780588775873,0.005337711423635483,0.006308337673544884
1772537131782617900,4.364617919921875,-0.0008583921589888632,0.003621230134740472,0.012174764648079872
1772537131792685800,4.374685791015625,0.0009019573917612433,0.015443534590303898,0.006423668470233679
1772537131802752800,4.384752685546875,0.0032346853986382484,0.030412545427680016,-0.001714271493256092
1772537131812821000,4.394821044921875,0.012877725064754486,0.03641557693481445,-0.0077585820108652115
1772537131822889000,4.404888916015625,0.01303283590823412,0.031410567462444305,-0.004675502888858318
1772537131832956000,4.414955810546875,0.018154626712203026,0.02536172978579998,0.0018612262792885303
1772537131843024000,4.42502392578125,0.018614966422319412,0.01815379038453102,0.0129169262945652
1772537131853091800,4.435091796875,0.02028157189488411,0.01327035203576088,0.019550595432519913
1772537131863159000,4.445158935546875,0.01056515984237194,0.008724657818675041,0.020793844014406204
1772537131873227000,4.45522705078125,0.00008748460095375776,0.004135764669626951,0.013114885427057743
1772537131883294700,4.465294677734375,-0.00794017594307661,0.00922740064561367,-0.004333039745688438
1772537131893362000,4.47536181640625,-0.0064786337316036224,0.01421630010008812,-0.022472094744443893
1772537131903429600,4.4854296875,-0.0022329562343657017,0.020164499059319496,-0.032373953610658646
1772537131913497900,4.495497802734375,0.0010291498620063066,0.01837964728474617,-0.029046334326267242
1772537131923564800,4.505564697265625,0.009272064082324505,0.015839502215385437,-0.014808977022767067
1772537131933632800,4.5156328125,0.017907895147800446,0.01146019995212555,-0.004339291248470545
1772537131943700700,4.52570068359375,0.02052352763712406,0.004245180636644363,-0.003008220111951232
1772537131953767700,4.535767578125,0.02231530286371708,0.0014134414959698915,0.000865614041686058
1772537131963836000,4.5458359375,0.018679026514291763,-0.0016045647207647562,0.007093246094882488
1772537131973902800,4.55590283203125,0.012195561081171036,-0.0021052390802651644,0.008253319188952446
1772537131983970800,4.565970703125,0.006906500086188316,-0.002662978833541274,0.006299384403973818
1772537131994038800,4.576038818359375,0.004647607449442148,0.010500493459403515,0.004182437434792519
1772537132004105700,4.586105712890625,0.006834214087575674,0.01548392977565527,-0.005629384890198708
1772537132014173700,4.596173583984375,0.0044858381152153015,0.01762591116130352,-0.006179060786962509
1772537132024242000,4.606241943359375,0.006097583565860987,0.01563812792301178,0.00026099500246345997
1772537132034308900,4.616308837890625,0.008974330499768257,0.011617553420364857,0.0053569539450109005
1772537132044376800,4.626376953125,0.010544169694185257,0.009628642350435257,0.014744634740054607
1772537132054444800,4.63644482421875,0.006237572059035301,0.00516518484801054,0.01721365377306938
1772537132064511700,4.64651171875,0.00682471226900816,0.0033354908227920532,0.01240210048854351
1772537132074580000,4.656580078125,0.016558833420276642,-0.0029189428314566612,0.004617147147655487
1772537132084648000,4.66664794921875,0.021472034975886345,-0.008738243952393532,-0.00396040640771389
1772537132094715000,4.67671484375,0.01934070698916912,-0.002396192168816924,-0.0033633257262408733
1772537132104782800,4.686782958984375,0.016535814851522446,0.00170656549744308,-0.005653536878526211
1772537132114850800,4.696850830078125,0.013758670538663864,-0.0009145177900791168,-0.0016998080536723137
1772537132124917800,4.706917724609375,0.008426574990153313,-0.0004379760939627886,0.011535855941474438
1772537132134986000,4.716986083984375,0.005414806306362152,-0.0010398505255579948,0.014931918121874332
1772537132145054000,4.727053955078125,0.008515402674674988,-0.002619467442855239,0.009437672793865204
1772537132155121000,4.737120849609375,0.006277814973145723,-0.0016554032918065786,0.005252514500170946
1772537132165188900,4.74718896484375,-0.00184443814214319,0.0022789807990193367,0.004002039320766926
1772537132175257000,4.757257080078125,0.0019018306629732251,0.002092293230816722,0.003268072148784995
1772537132185324000,4.767323974609375,0.0042160023003816605,0.001690818928182125,0.005239406134933233
1772537132195392000,4.77739208984375,0.008087706752121449,0.00007534539327025414,0.009681825526058674
1772537132205459700,4.787459716796875,0.000519982073456049,-0.00843195803463459,0.01716581918299198
1772537132215527000,4.79752685546875,-0.003261706791818142,-0.016960464417934418,0.015857942402362823
1772537132225595000,4.807594970703125,-0.002761630807071924,-0.014537815004587173,0.01206049881875515
1772537132235662800,4.817662841796875,-0.0034716296941041946,-0.014026222750544548,-0.0027493403758853674
1772537132245730000,4.82772998046875,-0.003589484840631485,-0.006875539198517799,-0.012740577571094036
1772537132255797800,4.8377978515625,-0.004564467817544937,-0.004545273259282112,-0.014157911762595177
1772537132265865700,4.84786572265625,-0.006687489803880453,-0.003636227920651436,-0.011936142109334469
1772537132275932700,4.8579326171875,-0.006462718825787306,-0.005321476608514786,-0.007719293236732483
1772537132286001000,4.8680009765625,-0.005500036757439375,-0.008185015060007572,-0.001148902578279376
1772537132296068900,4.87806884765625,-0.0026413993909955025,-0.013072715140879154,0.00016590021550655365
1772537132306135800,4.8881357421875,-0.00009530945681035519,-0.017838532105088234,0.005217912141233683
1772537132316203800,4.898203857421875,0.00006607815157622099,-0.019459065049886703,-0.0009281311649829149
1772537132326271700,4.908271728515625,0.0031317071989178658,-0.010565677657723427,-0.0011587163899093866
1772537132336338700,4.918338623046875,0.005133338738232851,-0.0023663369938731194,-0.005372103303670883
1772537132346407000,4.928406982421875,0.008378875441849232,-0.00008167908526957035,-0.006011097691953182
1772537132356475000,4.938474853515625,-0.0015445949975401163,0.00441133975982666,0.004184548277407885
1772537132366541800,4.948541748046875,-0.008941668085753918,0.013949280604720116,0.010232198983430862
1772537132376609800,4.95860986328125,-0.002334631746634841,0.01409202627837658,0.004305866546928883
1772537132386678000,4.968677978515625,0.0064802225679159164,0.006050946190953255,0.004321947228163481
1772537132396745000,4.978744873046875,0.00842273235321045,-0.0010889885015785694,0.008827483281493187
1772537132406813000,4.98881298828125,0.00578782893717289,-0.008193203248083591,0.009450580924749374
1772537132416881000,4.998880859375,0.004066627938300371,-0.010691247880458832,0.010965653695166111
1772537132426947800,5.00894775390625,0.0005294550210237503,-0.0077492594718933105,0.006311901845037937
1772537132437015800,5.019015869140625,0.004489042796194553,-0.005394226871430874,-0.002853366546332836
1772537132447084000,5.029083984375,-0.0013750948710367084,-0.005946130491793156,-0.003673230530694127
1772537132457151000,5.03915087890625,-0.009619975462555885,-0.002421702491119504,-0.0051875039935112
1772537132467219000,5.049218994140625,-0.010325245559215546,-0.002665676176548004,-0.006281839217990637
1772537132477287000,5.059286865234375,-0.003219133010134101,-0.0048049939796328545,-0.019895652309060097
1772537132487353900,5.069353759765625,0.00004622037522494793,-0.007202529348433018,-0.025251643732190132
1772537132497422000,5.079422119140625,0.0004129377193748951,-0.009679002687335014,-0.017744192853569984
1772537132507489800,5.08948974609375,0.0007581543177366257,-0.017406709492206573,-0.006963996682316065
1772537132517557000,5.099556884765625,0.008033644407987595,-0.01948956772685051,0.0016923421062529087
1772537132527625000,5.109625,0.0004035297315567732,-0.02116984687745571,0.008898051455616951
1772537132537692700,5.119692626953125,-0.013006818480789661,-0.017091747373342514,0.019633786752820015
1772537132547759900,5.129759765625,-0.022344987839460373,0.004306990187615156,0.020373299717903137
1772537132557827800,5.139827880859375,-0.018695924431085587,0.02497871220111847,0.00020651286467909813
1772537132567895800,5.149895751953125,-0.013956371694803238,0.030509382486343384,-0.01904853992164135
1772537132577962800,5.159962646484375,-0.015560394152998924,0.028153017163276672,-0.016003748401999474
1772537132588030700,5.17003076171875,-0.016486115753650665,0.01813185028731823,-0.0025547260884195566
1772537132598098700,5.1800986328125,-0.01305809523910284,0.00022422196343541145,0.005921582691371441
1772537132608166000,5.190165771484375,-0.007661448325961828,-0.011480184271931648,0.016998881474137306
1772537132618233900,5.20023388671875,-0.0032651021610945463,-0.015119927003979683,0.018604766577482224
1772537132628301800,5.2103017578125,-0.0016983237583190203,-0.007751877419650555,0.012486908584833145
1772537132638368800,5.22036865234375,-0.0003438401035964489,0.004570568911731243,0.005825277883559465
1772537132648436700,5.230436767578125,-0.009313797578215599,0.00947560090571642,-0.0013341966550797224
1772537132658505000,5.2405048828125,-0.012961529195308685,0.008514732122421265,-0.003579774172976613
1772537132668572000,5.250572021484375,-0.016798753291368484,0.00601731613278389,-0.006642267107963562
1772537132678639900,5.260639892578125,-0.014083129353821278,0.0053214323706924915,-0.01038853544741869
1772537132688707800,5.270707763671875,-0.014136715792119503,0.0065866317600011826,-0.007683665491640568
1772537132698774800,5.28077490234375,-0.013136698864400387,0.004386594519019127,-0.0036010397598147392
1772537132708842800,5.2908427734375,-0.010150676593184471,0.0005437552463263273,-0.0048313988372683525
1772537132718911000,5.300910888671875,-0.0016314907697960734,-0.0020429729484021664,-0.001773557160049677
1772537132728978000,5.31097802734375,0.0034515419974923134,-0.0031183334067463875,0.004692092537879944
1772537132739046000,5.3210458984375,0.007258531171828508,-0.00972670130431652,0.01050017960369587
1772537132749112800,5.33111279296875,0.004800718277692795,-0.011627253144979477,0.015538179315626621
1772537132759180800,5.341180908203125,-0.003763208631426096,-0.01305710431188345,0.01645803451538086
1772537132769247700,5.351247802734375,-0.0145444730296731,-0.010224074125289917,0.010089021176099777
1772537132779316000,5.36131591796875,-0.020561886951327324,-0.0019232667982578278,-0.004222806543111801
1772537132789384000,5.371384033203125,-0.02715509943664074,0.0036982535384595394,-0.014917348511517048
1772537132799451000,5.381450927734375,-0.030685385689139366,0.009230172261595726,-0.019743794575333595
1772537132809518800,5.391518798828125,-0.022473884746432304,0.008226897567510605,-0.021988270804286003
1772537132819586800,5.4015869140625,-0.012869995087385178,0.0027194798458367586,-0.012568403966724873
1772537132829654000,5.411654052734375,-0.0059202262200415134,-0.008756195195019245,0.0038305120542645454
1772537132839721700,5.4217216796875,-0.0004998943768441677,-0.017754217609763145,0.008969347923994064
1772537132849789700,5.431789794921875,-0.00036916183307766914,-0.01648392342031002,0.016699787229299545
1772537132859856600,5.441856689453125,-0.005349272862076759,-0.01016930304467678,0.01372210681438446
1772537132869924600,5.451924560546875,-0.0046287355944514275,-0.00023904372937977314,-0.0018056578701362014
1772537132879992600,5.46199267578125,-0.0014300132170319557,0.004562901798635721,-0.013943812809884548
1772537132890059500,5.4720595703125,0.0016543458914384246,0.0039020352996885777,-0.011723741888999939
1772537132900127700,5.482127685546875,0.003347583580762148,0.0023845662362873554,-0.003408021293580532
1772537132910195700,5.49219580078125,0.009940791875123978,-0.00276831048540771,0.009376728907227516
1772537132920262700,5.5022626953125,0.01964455097913742,-0.009709573350846767,0.014967769384384155
1772537132930330600,5.51233056640625,0.01391934510320425,-0.012260280549526215,0.0188496932387352
1772537132940398300,5.5223984375,0.006210558582097292,-0.01595621556043625,0.017456328496336937
1772537132950465800,5.5324658203125,-0.005509595386683941,-0.012892117723822594,0.009999540634453297
1772537132960533500,5.542533447265625,-0.013942761346697807,-0.002591011580079794,-0.005843871273100376
1772537132970601500,5.5526015625,-0.013862590305507183,0.007318038027733564,-0.02025136724114418
1772537132980668700,5.562668701171875,-0.01158452220261097,0.005411215126514435,-0.02770928479731083
1772537132990736400,5.572736328125,-0.009761331602931023,0.002765138167887926,-0.026372581720352173
1772537133000804600,5.5828046875,-0.009034289047122002,-0.012056950479745865,-0.009072154760360718
1772537133010871600,5.59287158203125,-0.003105740062892437,-0.019259635359048843,0.0012044711038470268
1772537133020939500,5.602939453125,0.003642443800345063,-0.015516561456024647,0.01219959743320942
1772537133031007500,5.613007568359375,0.006556080654263496,-0.014663341455161572,0.011284446343779564
1772537133041074400,5.623074462890625,0.011773212812840939,-0.018643168732523918,0.008754443377256393
1772537133051142400,5.633142333984375,0.0062774415127933025,-0.020142443478107452,0.0033792501781135798
1772537133061210600,5.643210693359375,-0.002971450798213482,-0.01146666519343853,0.002329964889213443
1772537133071277600,5.653277587890625,-0.008254981599748135,-0.008492814376950264,-0.0009563968633301556
1772537133081345500,5.663345458984375,-0.005695950239896774,-0.00735724251717329,-0.00498176459223032
1772537133091413500,5.67341357421875,-0.004952080547809601,-0.00589905446395278,-0.0057469941675662994
1772537133101480400,5.68348046875,-0.001680920016951859,-0.006837285589426756,-0.007268724963068962
1772537133111548700,5.693548583984375,-0.005600855685770512,-0.0075963204726576805,0.00011443928815424442
1772537133121616600,5.70361669921875,-0.008341514505445957,-0.0044894772581756115,0.008187545463442802
1772537133131683600,5.71368359375,-0.005121637601405382,-0.004892277531325817,0.0007277021650224924
1772537133141751600,5.72375146484375,-0.0026057495269924402,0.0012284659314900637,-0.005501697771251202
1772537133151819500,5.733819580078125,-0.0022275345399975777,0.0031171338632702827,-0.008448955602943897
1772537133161887700,5.7438876953125,-0.0052052149549126625,-0.0018387427553534508,-0.013366215862333775
1772537133171954700,5.75395458984375,-0.0007202314445748925,-0.003074935870245099,-0.011190742254257202
1772537133182022700,5.764022705078125,0.0021557160653173923,0.00006972462870180607,-0.003962124697864056
1772537133192090600,5.774090576171875,0.008956409990787506,0.004004765301942825,0.0017301789484918118
1772537133202157600,5.784157470703125,0.0184796079993248,0.008877018466591835,-0.000271186581812799
1772537133212225800,5.794225830078125,0.0198990348726511,0.012990809045732021,0.00680098170414567
1772537133222293500,5.80429345703125,0.022087354212999344,0.02060452103614807,0.012487895786762238
1772537133232360700,5.814360595703125,0.02513362094759941,0.01626214012503624,0.003021545708179474
1772537133242428400,5.824428466796875,0.0331910140812397,0.007732301950454712,-0.010618632659316063
1772537133252496400,5.834496337890625,0.03583323955535889,0.0009599050972610712,-0.020999737083911896
1772537133262563600,5.8445634765625,0.028987053781747818,-0.005986684001982212,-0.014612944796681404
1772537133272631600,5.854631591796875,0.02485807053744793,-0.0058071063831448555,-0.008124561980366707
1772537133282699500,5.864699462890625,0.02570815198123455,0.0024553502444177866,-0.008355459198355675
1772537133292766500,5.874766357421875,0.020506637170910835,0.020645588636398315,-0.006527527701109648
1772537133302834400,5.88483447265625,0.0158397126942873,0.03915802389383316,-0.0038790141697973013
1772537133312902700,5.894902587890625,0.004807454999536276,0.05259672924876213,-0.003360970411449671
1772537133322969600,5.904969482421875,0.0041227564215660095,0.05724314600229263,-0.00043175939936190844
1772537133333037600,5.91503759765625,0.005166399292647839,0.0513666570186615,0.007369382306933403
1772537133343105500,5.92510546875,0.010724150575697422,0.0391499400138855,0.017596986144781113
1772537133353172500,5.93517236328125,0.014843794517219067,0.01973310112953186,0.02565038576722145
1772537133363240400,5.945240478515625,0.012585433200001717,0.005084116477519274,0.03153970092535019
1772537133373308700,5.95530859375,0.012979019433259964,-0.0036292478907853365,0.031460151076316833
1772537133383375600,5.965375732421875,0.008045247755944729,0.0002134272363036871,0.020989933982491493
1772537133393443600,5.975443603515625,-0.002854861319065094,0.015830667689442635,0.01037420704960823
1772537133403511600,5.985511474609375,-0.013198578730225563,0.023943189531564713,-0.0032894075848162174
1772537133413578500,5.99557861328125,-0.021521231159567833,0.025187991559505463,-0.016093559563159943
1772537133423646700,6.005646728515625,-0.019361674785614014,0.01866590976715088,-0.020751427859067917
1772537133433714700,6.015714599609375,-0.017717497423291206,0.009805504232645035,-0.021999221295118332
1772537133443781600,6.02578173828125,-0.016443973407149315,-0.007442457601428032,-0.008671963587403297
1772537133453849600,6.035849609375,-0.016169942915439606,-0.018099211156368256,0.004989740904420614
1772537133463917600,6.04591748046875,-0.013464170508086681,-0.02944001741707325,0.01334381103515625
1772537133473984500,6.055984619140625,-0.012613491155207157,-0.03191763907670975,0.016945084556937218
1772537133484052700,6.066052734375,-0.010495745576918125,-0.024571575224399567,0.013506943359971046
1772537133494120700,6.07612060546875,-0.007750074844807386,-0.019585445523262024,0.0052240826189517975
1772537133504187600,6.086187744140625,-0.010391131974756718,-0.01033016387373209,0.0005254675634205341
1772537133514255600,6.096255615234375,-0.00600468460470438,-0.014407570473849773,-0.002477681264281273
1772537133524323600,6.106323486328125,-0.00844600424170494,-0.017531726509332657,-0.00017617736011743546
1772537133534390800,6.116390869140625,-0.007544221822172403,-0.022280791774392128,0.0002773227170109749
1772537133544458800,6.126458740234375,-0.0109392199665308,-0.027556514367461205,-0.0029664074536412954
1772537133554526500,6.1365263671875,-0.016961626708507538,-0.02360755205154419,-0.001896041794680059
1772537133564593700,6.14659375,-0.015785573050379753,-0.018880173563957214,-0.0013881769264116883
1772537133574661400,6.156661376953125,-0.005654929205775261,-0.01975277066230774,-0.0067095328122377396
1772537133584729600,6.1667294921875,-0.007677067071199417,-0.021591152995824814,-0.011418800801038742
1772537133594796500,6.176796630859375,0.00006319268140941858,-0.02491939067840576,0.0006772887427359819
1772537133604864500,6.186864501953125,0.001423801644705236,-0.02766990475356579,0.010322991758584976
1772537133614932500,6.196932373046875,0.0033198490273207426,-0.029566437005996704,0.012616895139217377
1772537133624999400,6.20699951171875,0.0013168854638934135,-0.029867906123399734,0.010577713139355183
1772537133635067400,6.2170673828125,-0.00790405087172985,-0.023101041093468666,0.009089330211281776
1772537133645135600,6.227135498046875,-0.01963607408106327,-0.008996140211820602,0.007069855462759733
1772537133655202600,6.23720263671875,-0.01602954789996147,0.0019377220887690783,-0.007365293800830841
1772537133665270500,6.2472705078125,-0.014261208474636078,0.007459786720573902,-0.01763790473341942
1772537133675338500,6.25733837890625,-0.01537365559488535,0.011927551589906216,-0.014530327171087265
1772537133685405400,6.267405517578125,-0.012059086002409458,0.012696405872702599,-0.006505424156785011
1772537133695473700,6.2774736328125,-0.0084978137165308,0.015223275870084763,0.00664575956761837
1772537133705541600,6.287541748046875,-0.005647432059049606,0.022468937560915947,0.0073349857702851295
1772537133715608600,6.297608642578125,-0.002629234455525875,0.027322011068463326,0.012694988399744034
1772537133725676500,6.307676513671875,-0.005413569509983063,0.027850382030010223,0.013648400083184242
1772537133735744500,6.31774462890625,-0.0054381368681788445,0.02913932129740715,0.012366045266389847
1772537133745811500,6.3278115234375,-0.0032767150551080704,0.0281054824590683,0.009365461766719818
1772537133755879700,6.337879638671875,-0.0045247869566082954,0.03167664632201195,0.011114687658846378
1772537133765947600,6.34794775390625,-0.004292825702577829,0.036668743938207626,0.003486861940473318
1772537133776014600,6.3580146484375,0.0008786063408479095,0.04283318296074867,-0.0017386315157637
1772537133786082600,6.36808251953125,0.0031715878285467625,0.03897053748369217,0.005101431161165237
1772537133796150800,6.37815087890625,-0.00024212896823883057,0.04195808246731758,0.012909576296806335
1772537133806217700,6.3882177734375,-0.0019382962491363287,0.041133034974336624,0.018189294263720512
1772537133816285700,6.39828564453125,-0.007012366317212582,0.04021142050623894,0.022928815335035324
1772537133826353700,6.408353759765625,-0.008970055729150772,0.04262211173772812,0.011443667113780975
1772537133836420400,6.41842041015625,-0.00958425085991621,0.04424699395895004,0.0021959657315164804
1772537133846488300,6.42848828125,-0.013366206549108028,0.04457402974367142,-0.008924862369894981
1772537133856556300,6.438556396484375,-0.018016360700130463,0.03931858763098717,-0.011188752949237823
1772537133866623500,6.44862353515625,-0.016891973093152046,0.03440292552113533,-0.008468334563076496
1772537133876691500,6.45869140625,-0.015154052525758743,0.037576012313365936,-0.005186090711504221
1772537133886759200,6.46875927734375,-0.002067811554297805,0.03586732596158981,-0.0007178389932960272
1772537133896826400,6.478826416015625,0.0015005437890067697,0.027497626841068268,0.004128431435674429
1772537133906894000,6.48889404296875,0.0075413924641907215,0.01637759804725647,0.014281200245022774
1772537133916962300,6.49896240234375,0.0066330404952168465,0.005566408857703209,0.014132335782051086
1772537133927029200,6.509029296875,0.0049994573928415775,0.0064601656049489975,0.01210833340883255
1772537133937097200,6.51909716796875,-0.0013269202318042517,0.008925193920731544,0.009080463089048862
1772537133947165200,6.529165283203125,-0.009720670990645885,0.01181392464786768,0.008409346453845501
1772537133957232000,6.539232177734375,-0.017361043021082878,0.024140864610671997,0.003279648022726178
1772537133967300400,6.54930029296875,-0.021121425554156303,0.03252662718296051,0.002820519031956792
1772537133977368300,6.559368408203125,-0.019385216757655144,0.034217528998851776,-0.0032158438116312027
1772537133987435300,6.569435302734375,-0.010856975801289082,0.028292793780565262,-0.006394859403371811
1772537133997503200,6.579503173828125,-0.005879516247659922,0.01334842573851347,-0.002961577381938696
1772537134007571200,6.5895712890625,0.006281009875237942,0.0018984312191605568,0.0011745779775083065
1772537134017638100,6.59963818359375,0.015539784915745258,-0.012460233643651009,0.008306441828608513
1772537134027706400,6.609706298828125,0.014742166735231876,-0.021391676738858223,0.013308657333254814
1772537134037774300,6.6197744140625,0.004807120189070702,-0.008746551349759102,0.018972527235746384
1772537134047841300,6.62984130859375,-0.0032348274253308773,0.0024621605407446623,0.007428256329149008
1772537134057909200,6.6399091796875,-0.008278950117528439,0.014506245031952858,-0.0013436204753816128
1772537134067977500,6.6499775390625,-0.02155826985836029,0.025663824751973152,-0.011648722924292088
1772537134078044400,6.66004443359375,-0.027309022843837738,0.028141237795352936,-0.009631562978029251
1772537134088112400,6.6701123046875,-0.02460458129644394,0.015518654137849808,-0.0047968607395887375
1772537134098180400,6.680180419921875,-0.019232770428061485,0.0034520295448601246,0.009861547499895096
1772537134108247300,6.690247314453125,-0.015272915363311768,-0.006387285888195038,0.024301739409565926
1772537134118315300,6.700315185546875,-0.00949108600616455,-0.008116566576063633,0.026107095181941986
1772537134128383500,6.710383544921875,-0.009384825825691223,-0.009144013747572899,0.026646917685866356
1772537134138450400,6.720450439453125,-0.01599723845720291,0.0017873554024845362,0.022129235789179802
1772537134148518400,6.730518310546875,-0.026112722232937813,0.005210049916058779,0.013511247001588345
1772537134158586400,6.74058642578125,-0.026124780997633934,0.00957163330167532,0.005595181602984667
1772537134168653300,6.7506533203125,-0.026178844273090363,0.007065865211188793,0.004496361128985882
1772537134178721500,6.760721435546875,-0.027896566316485405,0.0019289676565676928,0.002216411754488945
1772537134188789200,6.770789306640625,-0.0287714134901762,-0.0020005267579108477,0.007546994369477034
1772537134198856400,6.7808564453125,-0.028307633474469185,-0.00429554283618927,0.010561302304267883
1772537134208924400,6.79092431640625,-0.02074611932039261,-0.006918757222592831,0.008864335715770721
1772537134218992000,6.8009921875,-0.01578720472753048,-0.01101307850331068,0.003077708650380373
1772537134229059300,6.811059326171875,-0.010341839864850044,-0.013257057406008244,0.0017945973668247461
1772537134239127300,6.821127197265625,-0.006611097604036331,-0.011388571932911873,0.0011743772774934769
1772537134249195300,6.8311953125,-0.00409121485427022,-0.010288952849805355,0.004376562312245369
1772537134259262200,6.84126220703125,0.0016260427655652165,-0.01167546771466732,0.014646259136497974
1772537134269330200,6.851330078125,0.003960037138313055,-0.007475662976503372,0.015292341820895672
1772537134279398100,6.861398193359375,0.0100918123498559,-0.006508000195026398,0.012846969068050385
1772537134289465300,6.87146533203125,0.006086417473852634,-0.0021899512503296137,0.013955110684037209
1772537134299533300,6.881533203125,-0.0070168497040867805,0.0013510616263374686,0.018116815015673637
1772537134309601300,6.891601318359375,-0.009223544970154762,0.008818298578262329,0.01578255370259285
1772537134319668200,6.901668212890625,-0.006968873552978039,0.022326378151774406,0.012683020904660225
1772537134329736200,6.911736083984375,0.0003843802260234952,0.02853900007903576,0.003778742393478751
1772537134339804400,6.921804443359375,0.006552946753799915,0.02592523768544197,0.003737789113074541
1772537134349871400,6.931871337890625,0.009421704337000847,0.015307746827602386,0.0029947669245302677
1772537134359939300,6.941939208984375,0.010828273370862007,0.0038331157993525267,0.011003749445080757
1772537134370007300,6.95200732421875,0.010379264131188393,0.001216293778270483,0.011093764565885067
1772537134380074200,6.96207421875,0.010904370807111263,0.002409095410257578,0.012462060898542404
1772537134390142200,6.97214208984375,0.014604832977056503,0.0003973436541855335,0.005166064482182264
1772537134400210400,6.98221044921875,0.009188270196318626,0.0022253314964473248,0.0031344564631581306
1772537134410277400,6.99227734375,0.0006163539364933968,0.005133236758410931,0.0010635827202349901
1772537134420345300,7.002345458984375,-0.0017607392510399222,0.009158446453511715,-0.005057256203144789
1772537134430413300,7.012413330078125,-0.0016217222437262535,0.014868264086544514,-0.009277034550905228
1772537134440480300,7.022480224609375,-0.0017112329369410872,0.014635469764471054,-0.010321712121367455
1772537134450548500,7.032548583984375,0.0013316950062289834,0.006010023877024651,-0.009024219587445259
1772537134460616400,7.042616455078125,0.004293406847864389,-0.0004432341083884239,-0.0013891618000343442
1772537134470683400,7.052683349609375,0.0031522423960268497,-0.002371629001572728,0.00733348960056901
1772537134480751400,7.06275146484375,0.005357176531106234,-0.006097635719925165,0.008778419345617294
1772537134490819300,7.0728193359375,0.00550151988863945,-0.0020301900804042816,0.01121574454009533
1772537134500886300,7.08288623046875,0.0036573377437889576,0.006279473192989826,0.005209353752434254
1772537134510954500,7.09295458984375,0.0013265390880405903,0.005226992070674896,-0.0024829208850860596
1772537134521022200,7.103022216796875,-0.0013319987338036299,0.008558934554457664,-0.01504828967154026
1772537134531089400,7.11308935546875,0.00033780327066779137,0.002541522728279233,-0.01757429912686348
1772537134541157000,7.1231572265625,-0.0035956287756562233,0.0012401037383824587,-0.021150020882487297
1772537134551225300,7.133225341796875,-0.0023263662587851286,-0.00012876116670668125,-0.016672981902956963
1772537134561292300,7.143292236328125,-0.00043946923688054085,-0.0024288250133395195,-0.01486293226480484
1772537134571360300,7.1533603515625,-0.0029838532209396362,-0.00024236971512436867,-0.00571763701736927
1772537134581428200,7.16342822265625,-0.0028598643839359283,-0.0045182108879089355,-0.00025143707171082497
1772537134591495200,7.1734951171875,-0.0026068640872836113,-0.013203312642872334,-0.001492470153607428
1772537134601563100,7.183563232421875,-0.0022027671802788973,-0.011869804933667183,-0.0011859823716804385
1772537134611631400,7.19363134765625,-0.005297626834362745,-0.007229247130453587,-0.002627817913889885
1772537134621698300,7.2036982421875,-0.010318579152226448,-0.0049347300082445145,-0.009223360568284988
1772537134631766300,7.213766357421875,-0.010355331003665924,-0.00448625348508358,-0.007825466804206371
1772537134641834200,7.223834228515625,-0.012809909880161285,0.0009370760526508093,-0.013747703284025192
1772537134651901200,7.233901123046875,-0.01277555525302887,0.008305776864290237,-0.00988025963306427
1772537134661969400,7.243969482421875,-0.011973447166383266,0.0055616614408791065,-0.010753635317087173
1772537134672037400,7.254037353515625,-0.01407548040151596,-0.004996174015104771,-0.0014940903056412935
1772537134682104300,7.264104248046875,-0.017055455595254898,-0.016673315316438675,0.010855951346457005
1772537134692172300,7.27417236328125,-0.020274151116609573,-0.021615875884890556,0.019914427772164345
1772537134702240300,7.284240234375,-0.01826184056699276,-0.010973431169986725,0.01464416366070509
1772537134712307200,7.29430712890625,-0.014008773490786552,-0.006006103008985519,0.0002415226772427559
1772537134722375400,7.30437548828125,-0.006488819140940905,-0.008218618109822273,-0.011742367409169674
1772537134732443400,7.314443359375,-0.004538320004940033,-0.021890487521886826,-0.01693473383784294
1772537134742510300,7.32451025390625,-0.0069679138250648975,-0.0386485792696476,-0.009776109829545021
1772537134752578300,7.334578369140625,-0.00278488639742136,-0.043153051286935806,-0.003572542918846011
1772537134762646500,7.344646484375,0.0004573119804263115,-0.03400027006864548,-0.00286862812936306
1772537134772713500,7.35471337890625,-0.002248193370178342,-0.014190081506967545,-0.004419120494276285
1772537134782781400,7.364781494140625,-0.010300125926733017,0.002571112010627985,-0.007056106347590685
1772537134792849400,7.374849365234375,-0.014658388681709766,0.010927579365670681,-0.016078628599643707
1772537134802916400,7.384916259765625,-0.01516917534172535,0.010526887141168118,-0.015751279890537262
1772537134812984300,7.394984375,-0.017789192497730255,0.004353147000074387,-0.008603889495134354
1772537134823052300,7.40505224609375,-0.0127122662961483,-0.0019882023334503174,0.0019500735215842724
1772537134833119700,7.41511962890625,-0.004059389233589172,-0.00879870355129242,0.007917685434222221
1772537134843187500,7.4251875,0.005520038306713104,-0.008353962562978268,0.00608369056135416
1772537134853255400,7.43525537109375,0.010757410898804665,-0.004075060598552227,0.005040530115365982
1772537134863322600,7.445322509765625,0.009023427031934261,0.004099512007087469,0.0010551097802817822
1772537134873390600,7.455390625,0.008088656701147556,0.006392760202288628,-0.00034624559339135885
1772537134883458600,7.46545849609375,0.007596362382173538,0.014607109129428864,-0.005415962543338537
1772537134893525500,7.475525390625,0.005568631459027529,0.018831681460142136,-0.004075859673321247
1772537134903593500,7.485593505859375,-0.000950774468947202,0.017135363072156906,0.0021091029047966003
1772537134913661400,7.495661376953125,-0.0022559897042810917,0.01570817455649376,0.009301235899329185
1772537134923728400,7.505728271484375,-0.0007333302637562156,0.02024838887155056,0.017522765323519707
1772537134933796600,7.515796630859375,-0.0035858419723808765,0.026540905237197876,0.019123058766126633
1772537134943864600,7.525864501953125,0.004319743253290653,0.03155168145895004,0.014458326622843742
1772537134953931500,7.535931640625,0.011107874102890491,0.027774786576628685,0.006684558931738138
1772537134963999500,7.54599951171875,0.018011998385190964,0.02173251286149025,0.00632142461836338
1772537134974067700,7.556067626953125,0.01962347701191902,0.016467709094285965,0.005435124970972538
1772537134984134700,7.566134765625,0.02457418479025364,0.011042140424251556,0.014118896797299385
1772537134994202600,7.57620263671875,0.020993031561374664,0.003072897205129266,0.01829473488032818
1772537135004270600,7.5862705078125,0.005630473606288433,-0.0028969806153327227,0.03023880533874035
1772537135014337500,7.596337646484375,0.000025851302780210972,-0.0020394425373524427,0.02844570018351078
1772537135024405500,7.606405517578125,-0.001696947612799704,0.008202009834349155,0.01772860810160637
1772537135034473700,7.6164736328125,-0.0000593698350712657,0.02335166744887829,0.003316911170259118
1772537135044540700,7.626540771484375,-0.004942531231790781,0.027700569480657578,-0.0003623098600655794
1772537135054608600,7.636608642578125,-0.009885624051094055,0.022621121257543564,-0.003646253840997815
1772537135064676600,7.646676513671875,-0.010053528472781181,0.01144107524305582,-0.002084717620164156
1772537135074743600,7.65674365234375,-0.010206127539277077,0.007484683766961098,0.0071372766979038715
1772537135084811800,7.666811767578125,0.0005164730828255415,0.0016485308296978474,0.004221626557409763
1772537135094879700,7.676879638671875,0.008468139916658401,-0.003297491930425167,0.004280216060578823
1772537135104946700,7.68694677734375,0.00464584631845355,-0.002682664431631565,0.013039743527770042
1772537135115014700,7.6970146484375,0.0019683041609823704,0.0018692106241360307,0.006602883338928223
1772537135125082400,7.707082275390625,0.007550850976258516,0.008564164862036705,-0.0023736495058983564
1772537135135149600,7.717149658203125,0.007932481355965137,0.010208667255938053,-0.007375066168606281
1772537135145217500,7.727217529296875,0.005809381604194641,0.006551047787070274,-0.007347553037106991
1772537135155285500,7.737285400390625,0.0029645925387740135,0.007128953468054533,0.0005479203537106514
1772537135165352700,7.747352783203125,0.0033600153401494026,0.004213789477944374,0.00168179115280509
1772537135175420400,7.75742041015625,0.009070099331438541,0.002044911030679941,0.0019446450751274824
1772537135185488400,7.76748828125,0.013149444013834,0.0031156663317233324,0.0019190569873899221
1772537135195555600,7.7775556640625,0.017949258908629417,0.006823851726949215,0.0016649914905428886
1772537135205623600,7.78762353515625,0.019270040094852448,0.01106682326644659,0.0013774039689451456
1772537135215691500,7.79769140625,0.024355348199605942,0.007138394750654697,0.002381415804848075
1772537135225758500,7.807758544921875,0.022113870829343796,0.00888114981353283,0.009662343189120293
1772537135235826400,7.817826416015625,0.019952982664108276,0.0061287726275622845,0.014126867055892944
1772537135245894700,7.827894775390625,0.021263087168335915,0.0021564634516835213,0.015475449152290821
1772537135255961600,7.837961669921875,0.018398592248558998,-0.0023165817838162184,0.00773363932967186
1772537135266029600,7.848029541015625,0.014017652720212936,-0.005067621357738972,0.004100434482097626
1772537135276097500,7.85809765625,0.003735986538231373,-0.0072687240317463875,0.0005797354970127344
1772537135286164500,7.86816455078125,0.0017962070414796472,-0.004069440066814423,-0.007160436362028122
1772537135296232400,7.878232421875,-0.0010315373074263334,0.002853180281817913,-0.008778839372098446
1772537135306300700,7.88830078125,-0.0004705420578829944,0.008929392322897911,-0.01083541288971901
1772537135316367600,7.89836767578125,-0.01070933137089014,0.010861249640583992,-0.004126111976802349
1772537135326435600,7.908435546875,-0.014816313982009888,0.0020639337599277496,0.004412636160850525
1772537135336503600,7.918503662109375,-0.012816546484827995,-0.003038150491192937,0.010075581260025501
1772537135346570500,7.928570556640625,-0.005445527378469706,-0.014693350531160831,0.005326554179191589
1772537135356638700,7.938638671875,-0.005822631064802408,-0.02452227845788002,0.00731620192527771
1772537135366706700,7.948706787109375,-0.009532680734992027,-0.026916194707155228,0.008912233635783195
1772537135376773600,7.958773681640625,-0.013257910497486591,-0.020718218758702278,0.0006809355691075325
1772537135386841600,7.968841552734375,-0.010346883907914162,-0.010987703688442707,-0.006158147472888231
1772537135396909600,7.97890966796875,-0.0074783931486308575,-0.006247810088098049,-0.006849504075944424
1772537135406976500,7.9889765625,-0.009559595957398415,-0.007356681860983372,-0.0011046959552913904
1772537135417044700,7.999044677734375,-0.010538041591644287,-0.0045097628608345985,0.005347077734768391
1772537135427112700,8.00911279296875,-0.015184346586465836,-0.0018459330312907696,0.011432074941694736
1772537135437179600,8.0191796875,-0.012729444541037083,-0.00028691859915852547,0.0018982244655489922
1772537135447247600,8.02924755859375,-0.007435907144099474,0.0012488921638578176,-0.006357759702950716
1772537135457315600,8.039315673828124,0.00008832185994833708,-0.007292930968105793,-0.010418280959129333
1772537135467382800,8.0493828125,0.006432646885514259,-0.011505614966154099,-0.01399957574903965
1772537135477450500,8.059450439453125,0.013371779583394527,-0.013135470449924469,-0.014046980068087578
1772537135487518500,8.0695185546875,0.019234206527471542,-0.011899270117282867,-0.005918277893215418
1772537135497585400,8.07958544921875,0.01608102396130562,-0.0026375947054475546,0.00040539796464145184
1772537135507653400,8.0896533203125,0.01168784499168396,0.00047534028999507427,0.004381312523037195
1772537135517721600,8.0997216796875,0.0021281614899635315,0.010616923682391644,0.006594932172447443
1772537135527788500,8.10978857421875,-0.004505744203925133,0.014761368744075298,0.0011098040267825127
1772537135537856500,8.1198564453125,-0.007698874454945326,0.022291190922260284,-0.008898088708519936
1772537135547924500,8.129924560546876,-0.0005826898268423975,0.015074335969984531,-0.017292432487010956
1772537135557991400,8.139991455078125,-0.0019140040967613459,0.003825942985713482,-0.017772600054740906
1772537135568059600,8.1500595703125,-0.0004764585755765438,0.0014277325244620442,-0.011048568412661552
1772537135578127600,8.160127685546875,0.0066435025073587894,-0.002953966148197651,-0.000543729867786169
1772537135588194600,8.170194580078125,0.015751603990793228,-0.004532207734882832,0.001001878408715129
1772537135598262500,8.180262451171876,0.019341545179486275,-0.011492379009723663,0.0001454058801755309
1772537135608330500,8.19033056640625,0.015923086553812027,-0.012411622330546379,0.0012390315532684326
1772537135618397400,8.2003974609375,0.007466219365596771,-0.015626057982444763,-0.0004643263528123498
1772537135628465700,8.210465576171876,-0.00587000697851181,-0.016065111383795738,-0.006604756228625774
1772537135638533600,8.22053369140625,-0.02331104874610901,-0.014128459617495537,-0.004363439977169037
1772537135648600600,8.2306005859375,-0.03102918341755867,-0.005701187066733837,-0.010059858672320843
1772537135658668500,8.24066845703125,-0.030780712142586708,0.0004736180417239666,-0.019958563148975372
1772537135668736500,8.250736572265625,-0.02468990907073021,0.007381189148873091,-0.02136145532131195
1772537135678803700,8.2608037109375,-0.019922317937016487,0.004121745936572552,-0.02099473774433136
1772537135688871700,8.27087158203125,-0.012506518512964249,-0.009424149990081787,-0.011650361120700836
1772537135698939600,8.280939697265625,-0.005353267304599285,-0.024799110367894173,-0.0002709402469918132
1772537135709006600,8.291006591796876,-0.0015030496288090944,-0.02620648965239525,0.013233436271548271
1772537135719074600,8.301074462890625,-0.001031403779052198,-0.02922704815864563,0.008751869201660156
1772537135729142800,8.311142822265625,-0.002154439687728882,-0.016466856002807617,0.0030315411277115345
1772537135739209700,8.321209716796876,-0.005070068407803774,-0.0107708889991045,-0.011316771619021893
1772537135749277700,8.331277587890625,-0.01075373962521553,0.0004768138751387596,-0.015873806551098824
1772537135759345400,8.341345458984375,-0.016923751682043076,0.002346885623410344,-0.017508987337350845
1772537135769412600,8.35141259765625,-0.015956690534949303,-0.004803674295544624,-0.014000765979290009
1772537135779480600,8.36148046875,-0.010033021681010723,-0.0073605747893452644,-0.011173287406563759
1772537135789548500,8.371548583984374,-0.0018428113544359803,-0.00541059672832489,-0.010342627763748169
1772537135799615700,8.38161572265625,0.005000181030482054,-0.007760036736726761,-0.006042954046279192
1772537135809683500,8.391683349609375,0.00672919861972332,-0.008278225548565388,-0.0012570268008857965
1772537135819751400,8.40175146484375,0.009397153742611408,-0.0066174790263175964,0.010935191065073013
1772537135829818400,8.411818359375,0.012794073671102524,-0.0036916621029376984,0.014048794284462929
1772537135839886000,8.421885986328125,0.015794657170772552,0.00029908493161201477,0.011491893790662289
1772537135849954000,8.4319541015625,0.014679202809929848,0.003563225269317627,0.012187100946903229
1772537135860021000,8.44202099609375,0.004469175357371569,0.007468217983841896,0.005151295568794012
1772537135870089200,8.452089111328124,0.0036699404008686543,0.012548389844596386,0.0032604734878987074
1772537135880157200,8.4621572265625,0.0015242313966155052,0.01311351265758276,0.0038253299426287413
1772537135890224000,8.47222412109375,-0.0027313479222357273,0.010268587619066238,0.002119902055710554
1772537135900292000,8.4822919921875,0.005314860958606005,0.013120301067829132,0.0001278576673939824
1772537135910360000,8.492360107421876,0.006100283935666084,0.006585504859685898,0.0005181138403713703
1772537135920427000,8.502427001953125,0.002646430628374219,0.0003137604799121618,0.008152332156896591
1772537135930495200,8.5124951171875,0.003721825312823057,-0.0024578312877565622,0.008487558923661709
1772537135940563200,8.522563232421875,0.0035804114304482937,-0.00196381495334208,0.006922152824699879
1772537135950630100,8.532630126953125,-0.0034613488242030144,-0.00192925613373518,0.0005700245965272188
1772537135960698000,8.542697998046876,-0.0050177001394331455,-0.002453899011015892,-0.004357356112450361
1772537135970766300,8.552766357421875,-0.005511545576155186,-0.0037655679043382406,-0.00922903511673212
1772537135980833300,8.562833251953125,-0.00821119174361229,-0.0022028249222785234,-0.011949454434216022
1772537135990901200,8.5729013671875,-0.006359913852065802,-0.0015267785638570786,-0.0065792519599199295
1772537136000969200,8.58296923828125,0.004036534111946821,-0.001087356824427843,-0.005015443544834852
1772537136011036200,8.5930361328125,0.008308462798595428,-0.008523543365299702,0.00011337385512888432
1772537136021104000,8.603104248046876,0.003652991261333227,-0.01913117989897728,0.00849913526326418
1772537136031172400,8.61317236328125,0.000710238004103303,-0.020970098674297333,0.015886064618825912
1772537136041239300,8.6232392578125,-0.0029955506324768066,-0.01600836217403412,0.004804651252925396
1772537136051307300,8.633307373046875,-0.0049421899020671844,-0.007006136700510979,0.0005504407454282045
1772537136061375200,8.643375244140625,-0.009114564396440983,0.00511417631059885,-0.004022739827632904
1772537136071442200,8.653442138671876,-0.00601171562448144,0.010829586535692215,-0.00393938273191452
1772537136081510400,8.663510498046875,0.004002302885055542,0.008075878024101257,-0.005374560132622719
1772537136091578400,8.673578369140625,0.008056104183197021,0.0007850257679820061,0.0008980962447822094
1772537136101645300,8.683645263671876,0.0032592187635600567,-0.00674239918589592,0.007592484354972839
1772537136111713300,8.69371337890625,0.00936801079660654,-0.010116210207343102,0.011154962703585625
1772537136121781000,8.703781005859375,0.012066857889294624,-0.0033661616034805775,0.005769519135355949
1772537136131848200,8.71384814453125,0.01239218283444643,0.0036109178327023983,-0.000010810908861458302
1772537136141916200,8.723916259765625,0.013586610555648804,0.011813720688223839,-0.0034239180386066437
1772537136151984000,8.733984130859374,0.011312464252114296,0.01360189076513052,-0.0066674696281552315
1772537136162051300,8.74405126953125,0.008257818408310413,0.006932004354894161,-0.007189183495938778
1772537136172119000,8.754119140625,0.009609541855752468,-0.0024168186355382204,-0.01818106882274151
1772537136182187000,8.76418701171875,0.015376616269350052,-0.008187622763216496,-0.025940455496311188
1772537136192254200,8.774254150390625,0.021092109382152557,-0.0072619193233549595,-0.0309674721211195
1772537136202322200,8.784322265625,0.019116312265396118,-0.005322339478880167,-0.022879185155034065
1772537136212390100,8.79439013671875,0.015844373032450676,-0.0028808314818888903,-0.011195860803127289
1772537136222457000,8.80445703125,0.016392184421420097,0.005721445195376873,-0.008365720510482788
1772537136232525000,8.814525146484375,0.017184892669320107,0.0186336450278759,-0.01002747192978859
1772537136242593300,8.82459326171875,0.01488898228853941,0.021663524210453033,-0.00897206086665392
1772537136252660200,8.83466015625,0.013205806724727154,0.018080171197652817,-0.00390763022005558
1772537136262728200,8.844728271484374,0.014246569015085697,0.014432706870138645,0.0010772745590656996
1772537136272796200,8.854796142578126,0.016573099419474602,0.005571877583861351,0.006516044028103352
1772537136282863000,8.864863037109375,0.019359830766916275,0.0024879369884729385,0.004451294895261526
1772537136292931000,8.87493115234375,0.01367264986038208,-0.007066152989864349,0.003447549883276224
1772537136302999300,8.884999267578126,0.015015682205557823,-0.01718243770301342,0.0012778723612427711
1772537136313066200,8.895066162109375,0.010999627411365509,-0.019130652770400047,-0.0032745804637670517
1772537136323134200,8.90513427734375,0.0015869506169110537,-0.016525814309716225,-0.00903952494263649
1772537136333202200,8.9152021484375,-0.00927483756095171,-0.009063586592674255,-0.012118587270379066
1772537136343269000,8.92526904296875,-0.012899666093289852,-0.003417418571189046,-0.014816636219620705
1772537136353337300,8.93533740234375,-0.012808233499526978,0.002147470833733678,-0.016115278005599976
1772537136363405300,8.9454052734375,-0.00999593548476696,0.0016523891827091575,-0.015912344679236412
1772537136373472300,8.95547216796875,-0.012127529829740524,-0.0024717822670936584,-0.006628032773733139
1772537136383540200,8.965540283203126,-0.011075048707425594,-0.0031594103202223778,0.005735426209867001
1772537136393608200,8.975608154296875,-0.011251694522798061,-0.006676902063190937,0.008421782404184341
1772537136403675100,8.985675048828124,-0.0012030546786263585,-0.0007423132192343473,0.007874768227338791
1772537136413743400,8.995743408203126,0.002567268442362547,-0.003181666601449251,0.003436364233493805
1772537136423811000,9.00581103515625,0.0008636440616101027,-0.007102904841303825,0.007136826403439045
1772537136433878300,9.015878173828124,-0.007943961769342422,-0.006877334788441658,0.009383469820022583
1772537136443946200,9.0259462890625,-0.006044595502316952,-0.003779013641178608,0.00828358344733715
1772537136454014200,9.03601416015625,-0.0004987523425370455,0.0035712989047169685,-0.000027631991542875767
1772537136464081400,9.046081298828126,0.0003747644368559122,0.01056449394673109,-0.006056495942175388
1772537136474149000,9.056149169921875,-0.00033237237948924303,0.004210162907838821,-0.009226761758327484
1772537136484217000,9.066217041015625,-0.004286900162696838,-0.003856285475194454,-0.009989491663873196
1772537136494284000,9.076283935546876,-0.0006487166392616928,-0.00785156525671482,-0.005899021867662668
1772537136504352000,9.08635205078125,0.00109964853618294,-0.009961055591702461,-0.0071371253579854965
1772537136514420200,9.096420166015625,0.0032139699906110764,0.002350886119529605,-0.0012949882075190544
1772537136524487200,9.106487060546876,0.0074084484949707985,0.003499773796647787,-0.002406591549515724
1772537136534555100,9.11655517578125,0.009048623032867908,0.005174187943339348,-0.006500015966594219
1772537136544623000,9.126623046875,0.009616409428417683,0.0038354163989424706,-0.002756942994892597
1772537136554690000,9.13668994140625,0.006394763011485338,0.00255771167576313,-0.0029307210352271795
1772537136564758300,9.14675830078125,0.007295710500329733,0.00022531533613801003,-0.004764573648571968
1772537136574826200,9.156826171875,0.006952771916985512,0.0021494373213499784,-0.0031416662968695164
1772537136584893200,9.16689306640625,0.006251561921089888,0.0018434399971738458,-0.004732105880975723
1772537136594961200,9.176961181640625,0.004449191503226757,-0.0006313673220574856,-0.006522446405142546
1772537136605029000,9.187029052734376,0.0009862830629572272,-0.006362756248563528,-0.001604919321835041
1772537136615097300,9.197097412109375,-0.0022555929608643055,-0.010733496397733688,0.0008947874885052443
1772537136625164300,9.207164306640625,-0.007136102300137281,-0.007011995650827885,-0.0012104413472115993
1772537136635232300,9.217232177734376,-0.001163477310910821,-0.005241367965936661,-0.00155788438860327
1772537136645300200,9.22730029296875,-0.0032290250528603792,-0.0010727213229984045,0.0030224863439798355
1772537136655367200,9.2373671875,-0.006981163285672665,-0.009489336051046848,0.005834848619997501
1772537136665435100,9.24743505859375,-0.012402026914060116,-0.019362205639481544,0.011795002967119217
1772537136675503400,9.25750341796875,-0.016667526215314865,-0.01895543932914734,0.004449758678674698
1772537136685570300,9.2675703125,-0.013766811229288578,-0.014132454991340637,-0.0030507680494338274
1772537136695638300,9.27763818359375,-0.012445244938135147,-0.006254535634070635,-0.012923745438456535
1772537136705706200,9.287706298828125,-0.01441571768373251,-0.00499139865860343,-0.0180098507553339
1772537136715773200,9.297773193359374,-0.015834128484129906,-0.007581282872706652,-0.012697044759988785
1772537136725841400,9.30784130859375,-0.010430840775370598,-0.009215131402015686,-0.011427249759435654
1772537136735909000,9.3179091796875,-0.0015395439695566893,-0.010465724393725395,-0.009203205816447735
1772537136745976300,9.327976318359376,-0.002071643713861704,-0.014343819580972195,0.002564770635217428
1772537136756043300,9.338043212890625,-0.005168681964278221,-0.012518975883722305,0.010761122219264507
1772537136766111200,9.348111328125,-0.003829910885542631,-0.01020016148686409,0.004085643216967583
1772537136776179200,9.35817919921875,0.0028400812298059464,-0.0068370988592505455,-0.005424343049526215
1772537136786246400,9.368246337890625,0.0046339863911271095,-0.0031875032000243664,-0.01427242998033762
1772537136796314000,9.378314208984374,0.004963516257703304,-0.002589827636256814,-0.01675826869904995
1772537136806382000,9.388382080078125,0.0030146148055791855,-0.000350109301507473,-0.015200052410364151
1772537136816449300,9.39844921875,0.009674075059592724,-0.002138416515663266,-0.009070374071598053
1772537136826517000,9.40851708984375,0.012997433543205261,-0.01016012392938137,-0.007672213949263096
1772537136836584700,9.418584716796875,0.016757246106863022,-0.013838210143148899,-0.012593057937920094
1772537136846652000,9.42865185546875,0.01210843212902546,-0.011603284627199173,-0.01573052816092968
1772537136856720000,9.438719970703126,0.013058971613645554,-0.007184766232967377,-0.020376844331622124
1772537136866787800,9.448787841796875,0.017263304442167282,-0.000024058856070041656,-0.024121513590216637
1772537136876854800,9.458854736328124,0.01832321286201477,-0.001541029429063201,-0.014130051247775555
1772537136886922800,9.4689228515625,0.015069364570081234,-0.002262745751067996,-0.002254216466099024
1772537136896990700,9.47899072265625,0.012799199670553207,-0.0012460530269891024,0.008097203448414803
1772537136907057700,9.4890576171875,0.012202118523418903,-0.007530581206083298,0.0010339680593460798
1772537136917126000,9.4991259765625,0.013987064361572266,-0.012480801902711391,-0.014037435874342918
1772537136927193900,9.50919384765625,0.018088599666953087,-0.016441190615296364,-0.027433400973677635
1772537136937260800,9.5192607421875,0.019837690517306328,-0.01057492010295391,-0.03768160194158554
1772537136947328800,9.529328857421875,0.01966671645641327,-0.015899112448096275,-0.03300296142697334
1772537136957396700,9.539396728515625,0.014888477511703968,-0.018101166933774948,-0.021399784833192825
1772537136967464000,9.5494638671875,0.012237300164997578,-0.014048367738723755,-0.012408684939146042
1772537136977532000,9.559531982421875,0.0033617503941059113,-0.008632177487015724,-0.0034564384259283543
1772537136987600000,9.569599853515625,-0.0049561006017029285,-0.0028757553081959486,-0.003443122608587146
1772537136997666800,9.579666748046876,-0.01236694771796465,0.004840725567191839,-0.007062926888465881
1772537137007734800,9.58973486328125,-0.007708280347287655,0.009481017477810383,-0.01908470317721367
1772537137017803000,9.599802978515624,-0.0018827846506610513,0.011077644303441048,-0.019707128405570984
1772537137027870000,9.609869873046875,0.005916815251111984,0.007790238596498966,-0.017908696085214615
1772537137037938000,9.61993798828125,0.013032130897045135,-0.0001616759691387415,-0.013006443157792091
1772537137048006000,9.630005859375,0.016399431973695755,-0.006697073113173246,-0.0011013138573616743
1772537137058072800,9.64007275390625,0.013414666056632996,-0.014315023086965084,0.007345861755311489
1772537137068140800,9.650140869140625,0.015172885730862617,-0.014545920304954052,0.011100119911134243
1772537137078209000,9.660208984375,0.012915493920445442,-0.009752824902534485,0.0009069144725799561
1772537137088276000,9.67027587890625,0.0017352773575112224,0.002892929594963789,-0.00704208854585886
1772537137098344000,9.680343994140625,-0.007292610127478838,0.013600707054138184,-0.01808713935315609
1772537137108412000,9.690411865234376,-0.0044795130379498005,0.021431464701890945,-0.02639939822256565
1772537137118480000,9.70047998046875,-0.0016655223444104195,0.015856999903917313,-0.020367644727230072
1772537137128547000,9.710547119140625,-0.0024029514752328396,0.0121424226090312,-0.0030448478646576405
1772537137138614800,9.72061474609375,0.007570008747279644,0.005991743877530098,0.01084123831242323
1772537137148682000,9.730681884765625,0.013010580092668533,0.003802092745900154,0.019506897777318954
1772537137158749700,9.740749755859374,0.01789424568414688,0.005033012013882399,0.018925145268440247
1772537137168819000,9.75081884765625,0.012071509845554829,0.004238857422024012,0.01996697299182415
1772537137178887000,9.760886962890625,0.0016801784513518214,0.004695923998951912,0.01937958225607872
1772537137188955000,9.770954833984375,-0.0019494437146931887,0.012768497690558434,0.009195654653012753
1772537137199021800,9.781021728515626,-0.002273567719385028,0.021752331405878067,-0.006914855446666479
1772537137209089800,9.79108984375,-0.003924194723367691,0.027286114171147346,-0.013362368568778038
1772537137219158000,9.801157958984374,-0.005623036529868841,0.024590767920017242,-0.009138529188930988
1772537137229225000,9.811224853515625,-0.005896276794373989,0.012634240090847015,0.005507258698344231
1772537137239293000,9.82129296875,-0.003446758259087801,0.0057565588504076,0.011677432805299759
1772537137249361000,9.83136083984375,0.005365375429391861,-0.0039565227925777435,0.010929618030786514
1772537137259427800,9.841427734375,0.005338404327630997,-0.010815901681780815,0.011218482628464699
1772537137269496000,9.85149609375,0.0015873424708843231,-0.008144218474626541,0.008844006806612015
1772537137279563800,9.861563720703124,-0.0020564068108797073,-0.0027028080075979233,-0.002636013552546501
1772537137289631000,9.871630859375,-0.0020723857451230288,0.0069815111346542835,-0.011123241856694221
1772537137299699000,9.881698974609375,-0.008156977593898773,0.012965871952474117,-0.01932368613779545
1772537137309766700,9.8917666015625,-0.0022282481659203768,0.01289396733045578,-0.012540348805487156
1772537137319833900,9.901833740234375,-0.002336372621357441,0.010232137516140938,-0.0037162306252866983
1772537137329901800,9.91190185546875,0.0011403842363506556,0.003026422346010804,0.014333875849843025
1772537137339969800,9.9219697265625,0.0013261144049465656,-0.0026772478595376015,0.02190966159105301
1772537137350036700,9.93203662109375,-0.0006520815659314394,-0.004647187888622284,0.03154177963733673
1772537137360104700,9.942104736328124,-0.006064474582672119,0.0017266011564061046,0.023717626929283142
1772537137370173000,9.9521728515625,-0.008237081579864025,0.01023460179567337,0.018017662689089775
1772537137380240000,9.962239990234375,-0.017465865239501,0.01890511065721512,0.009866336360573769
1772537137390307800,9.972307861328124,-0.015581944026052952,0.02348361909389496,0.0071142264641821384
1772537137400375800,9.982375732421875,-0.008278331719338894,0.02043187990784645,0.004500174894928932
1772537137410442800,9.99244287109375,-0.0007738102576695383,0.0037064291536808014,0.009115699678659439
1772537137420510700,10.0025107421875,0.0022608183789998293,-0.010424257256090641,0.019030846655368805
1772537137430579000,10.012578857421875,0.008659595623612404,-0.026598434895277023,0.027874406427145004
1772537137440646000,10.02264599609375,0.014378771185874939,-0.028192762285470963,0.019550181925296783
1772537137450713900,10.0327138671875,0.014472514390945435,-0.03495639190077782,0.008009372279047966
1772537137460781800,10.04278173828125,0.0029014023020863533,-0.035372842103242874,-0.003313750959932804
1772537137470848800,10.052848876953124,-0.006453217472881079,-0.0252419114112854,-0.008530884049832821
1772537137480917000,10.0629169921875,-0.017234645783901215,-0.014748122543096542,-0.0186925008893013
1772537137490985000,10.07298486328125,-0.019206183031201363,-0.006654508411884308,-0.021923180669546127
1772537137501052000,10.083052001953124,-0.01704007387161255,-0.0010613601189106703,-0.019830895587801933
1772537137511120000,10.093119873046875,-0.013615782372653484,-0.004124794155359268,-0.00760858366265893
1772537137521187800,10.103187744140625,-0.009249205701053143,-0.007560736034065485,0.0030564130283892155
1772537137531254800,10.1132548828125,-0.0064094774425029755,-0.010018035769462585,0.012258167378604412
1772537137541323000,10.123322998046875,-0.006149770691990852,0.00045959348790347576,0.02173774689435959
1772537137551391000,10.133390869140625,-0.007174555212259293,0.011465106159448624,0.022620584815740585
1772537137561458000,10.1434580078125,0.003956858068704605,0.018745895475149155,0.01478898897767067
1772537137571526000,10.15352587890625,0.013967147096991539,0.018372785300016403,0.0037874707486480474
1772537137581593900,10.16359375,0.020276319235563278,-0.0011890274472534657,-0.0011690807295963168
1772537137591661000,10.1736611328125,0.01939454674720764,-0.01871742121875286,0.007753840181976557
1772537137601729000,10.18372900390625,0.019928719848394394,-0.03161943703889847,0.013733066618442535
1772537137611796700,10.193796630859374,0.01544901542365551,-0.03706773370504379,0.013293378986418247
1772537137621864000,10.203864013671875,0.012795481830835342,-0.028540831059217453,0.009315536357462406
1772537137631932000,10.213931884765625,-0.0027211601845920086,-0.011332017369568348,-0.0031272852793335915
1772537137642000000,10.223999755859374,-0.012731392867863178,0.011294534429907799,-0.013500194996595383
1772537137652067000,10.234067138671875,-0.016728531569242477,0.020240889862179756,-0.02811242640018463
1772537137662134800,10.244134765625,-0.010767130181193352,0.02042507939040661,-0.03447766974568367
1772537137672202800,10.25420263671875,-0.002255667932331562,0.006721518002450466,-0.033549558371305466
1772537137682269700,10.264269775390625,0.0033280858770012856,-0.008069207891821861,-0.022978896275162697
1772537137692337700,10.274337646484375,0.0025421869941055775,-0.020679807290434837,-0.003668847493827343
1772537137702406000,10.284406005859376,0.007054675370454788,-0.018001966178417206,0.0033916437532752752
1772537137712472800,10.294472900390625,0.005594464484602213,-0.002924745436757803,0.004858246073126793
1772537137722540800,10.304540771484374,-0.0025508138351142406,0.02235371246933937,-0.0011684868950396776
1772537137732608800,10.31460888671875,-0.009491810575127602,0.040623798966407776,-0.010521775111556053
1772537137742675700,10.32467578125,0.003130111610516906,-0.025074198842048645,0.11638404428958893
1772537137752744000,10.334743896484374,0.02534513548016548,-0.16893017292022705,0.23704388737678528
1772537137762812000,10.34481201171875,0.0512828528881073,-0.15570321679115295,0.1906709223985672
1772537137772878800,10.35487890625,0.06207504868507385,-0.012228612788021564,0.05374397709965706
1772537137782946800,10.36494677734375,0.017093993723392487,0.0473855659365654,-0.10394679754972458
1772537137793014800,10.375014892578125,-0.03266530483961105,0.07610109448432922,-0.2013431340456009
1772537137803081700,10.385081787109375,-0.06397197395563126,0.07570251822471619,-0.23458856344223022
1772537137813150000,10.39514990234375,-0.06678134202957153,0.0634104311466217,-0.20369349420070648
1772537137823218000,10.405218017578125,-0.06720253825187683,0.09967377036809921,-0.17344748973846436
1772537137833285000,10.41528515625,-0.05078335106372833,0.0879521295428276,-0.12859614193439484
