time,seconds_elapsed,z,y,x
1772699901269519400,0.076519287109375,0.09802841255366801,0.004491589497937821,-0.0019049611196547628
1772699901279476500,0.0864765625,0.09488426930904388,-0.014890900635742582,0.012259259790787472
1772699901289433300,0.096433349609375,0.04176350449621677,-0.008093806107831187,-0.0047252215843545855
1772699901299390200,0.10639013671875,0.09368775300085544,-0.006711726932553574,0.0021488688611469116
1772699901309347300,0.116347412109375,0.07857435502111912,-0.004195035970467142,0.008194274803376174
1772699901319305500,0.126305419921875,0.06869885769486427,0.007209387956117279,-0.006631187351007247
1772699901329262300,0.136262451171875,0.09458557862341403,0.014376968897390178,-0.009935690522805088
1772699901339219500,0.146219482421875,0.07288812607824802,0.008364001351338812,0.008806524379382608
1772699901349176300,0.15617626953125,0.0807879394173622,0.01162557413028553,-0.00901012750994996
1772699901359133200,0.16613330078125,0.11677929025292395,0.013106291374447755,-0.0007608910951006692
1772699901369091300,0.17609130859375,0.03388356490135193,-0.010603606104827485,-0.016290089634381
1772699901379048400,0.18604833984375,0.08849953670799732,0.0002291097478708252,-0.006219592609122628
1772699901389005300,0.19600537109375,0.10869710608422756,-0.012512887491984292,-0.005825910266552819
1772699901398962200,0.205962158203125,0.045239071652293204,-0.0035496096398215738,0.009180314140571863
1772699901408920300,0.21592041015625,0.11450959175527095,0.005915082962415181,0.014273817908525234
1772699901418877400,0.22587744140625,0.05988485212028026,0.004622225573705509,0.013346882639202522
1772699901428834300,0.235834228515625,0.08681026844680309,0.008334852888667955,0.0020726035959189176
1772699901438791200,0.245791259765625,0.0835159030765295,-0.00887890577064827,0.0012560850252979435
1772699901448748300,0.255748291015625,0.10088438650667667,0.00436878510217648,-0.004246773578392458
1772699901458706400,0.26570654296875,0.04746434648633003,0.007473139759106561,0.009366616222355514
1772699901468663300,0.275663330078125,0.13306173201203345,0.003287127345311455,0.0036731766539858652
1772699901478620400,0.285620361328125,0.05764613328278064,-0.0003603851444553584,0.003290465513290837
1772699901488577300,0.295577392578125,0.0745534289419651,0.005928545232187025,-0.027324777207919395
1772699901498535400,0.305535400390625,0.07799275574088096,-0.005400215075723826,-0.020733598781959153
1772699901508492300,0.3154921875,0.09190613028109074,-0.009719872939703054,-0.0019512816253016351
1772699901518449400,0.325449462890625,0.06781622964143752,-0.008606075612059795,0.005307544952500029
1772699901528406300,0.33540625,0.09325228419303894,-0.00007017915938049554,0.01303041997650871
1772699901538364400,0.345364501953125,0.07095277410149574,0.004126450546551495,0.020886679584975355
1772699901548321300,0.3553212890625,0.07977963915765285,0.011328737475024536,0.012633741959254256
1772699901558278400,0.3652783203125,0.09983166258335113,0.010330766813084483,0.008650372553156921
1772699901568235500,0.375235595703125,0.04730652557611465,0.01859121189182624,-0.0033015080679353556
1772699901578192100,0.385192138671875,0.09758592948317527,-0.009023538405727595,-0.0009358540801287745
1772699901588150300,0.395150390625,0.06930792950391769,-0.024759557229257188,-0.006169928798096953
1772699901598107400,0.405107421875,0.09340075275301933,-0.021733309309836475,0.016396666697837643
1772699901608064500,0.415064453125,0.07634206592440605,-0.014293281802465207,-0.009064034812897442
1772699901618021400,0.425021484375,0.07559212433993816,0.011767891510692425,-0.004199880252710136
1772699901627979300,0.434979248046875,0.06809446206092834,0.0010630672208266332,-0.0027311143120678024
1772699901637936400,0.444936279296875,0.09112871616780757,-0.00035095059582963584,-0.0025700993664679117
1772699901647893200,0.454893310546875,0.08407996670007706,0.00963527709590271,-0.0019209170260233803
1772699901657850400,0.464850341796875,0.05970248129069805,-0.0039821923708077515,0.010285551989957457
1772699901667807200,0.47480712890625,0.09578794015049934,0.006442577435239218,0.007370243927746196
1772699901677765400,0.484765380859375,0.05674480052888393,-0.006723590900283306,0.0019953530916463932
1772699901687722200,0.49472216796875,0.07261398531198501,0.0001309329032897949,0.009207387664698762
1772699901697679400,0.504679443359375,0.06826689601838588,-0.008535521993343717,-0.0011482455886391108
1772699901707636500,0.514636474609375,0.08337912495434284,-0.002521563500026241,0.00204958490699064
1772699901717594400,0.524594482421875,0.05240180288851261,-0.013897249955893493,-0.011344614322524284
1772699901727551200,0.53455126953125,0.07753215249180793,-0.00100718144827988,-0.005092803939987789
1772699901737508400,0.54450830078125,0.06256897663772105,-0.004415957845305092,-0.007571394806323223
1772699901747465500,0.554465576171875,0.09683189624547958,0.011869004664453677,0.014617683459731051
1772699901757422300,0.56442236328125,0.08172317444086075,0.01439006584098097,-0.010260516871756407
1772699901767380200,0.574380126953125,0.08097557094395161,-0.0005079677884466946,-0.009329509357159258
1772699901777337300,0.58433740234375,0.09354922131299973,0.007232426338410004,-0.0033136132080267998
1772699901787294500,0.59429443359375,0.07783902648389339,-0.0031309321366017684,0.009132741821932723
1772699901797251300,0.604251220703125,0.0833802939981222,-0.008794506289670243,0.004388588920711482
1772699901807209200,0.614209228515625,0.07859013711214065,-0.013555966804130001,0.009818678830302087
1772699901817166300,0.624166259765625,0.06676876641511917,-0.010667533619934692,0.0031503620666233473
1772699901827123500,0.63412353515625,0.0761918437987566,-0.008702649588021449,0.008977806417725514
1772699901837080300,0.644080322265625,0.09623919104933738,0.00299135470255278,0.014966792583279312
1772699901847038200,0.6540380859375,0.06406827528476715,0.015441259960923343,0.0019917437831420103
1772699901856995300,0.663995361328125,0.10731120468378066,0.016494737369497307,-0.0029338437993224943
1772699901866952400,0.673952392578125,0.08142623732089996,0.012180125573393888,-0.006985846007574582
1772699901876909300,0.683909423828125,0.07125380287468433,0.008361151807126588,0.0064692765000305364
1772699901886866400,0.693866455078125,0.08203180199861526,-0.00024250351898372173,-0.004496114405183471
1772699901896824300,0.70382421875,0.0709592038422823,-0.00805860236370936,0.007652101638761814
1772699901906781200,0.71378125,0.05689560717642307,-0.011221760836057365,0.0037094318525225387
1772699901916738300,0.72373828125,0.07709551464021205,-0.015985180412163024,0.004805644432769623
1772699901926695400,0.7336953125,0.06392389837801456,-0.016016347301984205,-0.0027230628655306646
1772699901936653300,0.7436533203125,0.04865735566318035,-0.012458257528184913,-0.007919088290919899
1772699901946610000,0.75360986328125,0.1056669446080923,-0.004677051900327206,0.010739667274383828
1772699901956566800,0.76356689453125,0.05897825866937637,0.010090085358428768,0.006547379812606959
1772699901966524000,0.77352392578125,0.0923474443078041,0.017716424651560373,-0.014379594679316505
1772699901976481000,0.78348095703125,0.08516542384922504,0.02255751257375814,0.0025929750644456363
1772699901986439000,0.79343896484375,0.08307342000603675,0.013785177016700617,-0.008045560219045728
1772699901996395800,0.803395751953125,0.07394786426424979,-0.014266599291516467,-0.006823312389623607
1772699902006353000,0.813352783203125,0.08621990133821963,0.0005872709691990167,0.00045559264352377794
1772699902016310000,0.82331005859375,0.06527122133374214,-0.0030621777493273837,-0.008511458414455409
1772699902026268000,0.833267822265625,0.08038578835725783,-0.009056678056926466,0.014568505989183904
1772699902036224800,0.843224853515625,0.07724222963452339,-0.002433830417646095,0.006243054541456513
1772699902046182000,0.853181884765625,0.06452011070549488,0.0008785911991260945,0.007952240500206244
1772699902056139000,0.863138916015625,0.08770926311314106,-0.006446947649680078,0.011440736207336885
1772699902066097000,0.873096923828125,0.05867898346185684,0.000501455849269405,0.017190664336452027
1772699902076053800,0.8830537109375,0.08861059586703776,0.0040151265260297804,0.006432221008828492
1772699902086011000,0.893010986328125,0.07678747160434722,0.004261776497168466,0.0023762992502292034
1772699902095968000,0.902968017578125,0.07649053448438643,-0.0027574317822465673,-0.005127650349438772
1772699902105924900,0.9129248046875,0.07409925543367862,0.00391355671454221,0.011493085165793308
1772699902115882800,0.9228828125,0.06676759737133979,0.014473958431882783,0.0007334158548801497
1772699902125840000,0.93283984375,0.06796586724519729,0.003233597926632501,-0.01045320017444319
1772699902135797000,0.942796875,0.09460369880199432,-0.0006776983321644365,-0.006484899331670021
1772699902145753900,0.95275390625,0.0642272652387619,-0.01068110092098359,0.0005450560305700491
1772699902155712000,0.9627119140625,0.06976268753409386,0.014650995499221607,-0.005266972055161022
1772699902165668900,0.9726689453125,0.09535071777701377,0.0022353258705930783,0.0008058858662858255
1772699902175626000,0.9826259765625,0.0625800825536251,0.0038663794048363342,0.025777705312834586
1772699902185582800,0.992582763671875,0.07933890965282916,0.011069561382452957,0.008495460552658186
1772699902195540000,1.0025400390625,0.08472410982251166,0.0020648920739768073,-0.006920814522414002
1772699902205497900,1.012497802734375,0.0848755009919405,-0.009133547251997515,0.00457366459108889
1772699902215454700,1.022454833984375,0.08382803776562213,-0.014164275994780472,-0.002451387194756535
1772699902225411800,1.032411865234375,0.08712181861400604,0.005613798460899852,-0.004786239333511912
1772699902235369000,1.042368896484375,0.06692015758454799,-0.005067553621833212,0.0026086095979393573
1772699902245327000,1.0523271484375,0.08457681030631065,-0.02128205384442117,-0.009740234166075242
1772699902255283700,1.06228369140625,0.08083470116853714,-0.012897521161707117,-0.00833675429727591
1772699902265240800,1.07224072265625,0.08397650632560252,0.007840050542470998,0.003921481438560295
1772699902275198000,1.082197998046875,0.0794856246471405,0.004712333276262507,-0.009069809820668889
1772699902285156000,1.092156005859375,0.07948445560336112,0.012815793128428048,0.005764147879890515
1772699902295113000,1.102113037109375,0.08128186041414737,0.0004777279138099402,-0.0017938640009408117
1772699902305069800,1.11206982421875,0.07200374445915221,-0.0036461836157832294,0.009847794185287783
1772699902315027000,1.12202685546875,0.07379939570426941,0.000564917573495768,0.004335362323187292
1772699902324983800,1.13198388671875,0.05913666410148143,-0.002949903880734928,0.018523796653334285
1772699902334942000,1.14194189453125,0.08742109382152558,-0.009027219067001714,0.00397107732174918
1772699902344898800,1.15189892578125,0.05659457840323448,-0.015762614569510332,0.01673255558020901
1772699902354856000,1.16185595703125,0.08068506356477737,-0.003757261041132733,0.0034245071140525394
1772699902364812800,1.171812744140625,0.06586918722689152,0.012176056753052398,-0.011565337551251286
1772699902374771000,1.18177099609375,0.08457505674064159,-0.004602762821409851,0.012459263316827127
1772699902384728000,1.19172802734375,0.08502396955192089,-0.009213617617730051,-0.014844479094573761
1772699902394685000,1.201684814453125,0.07559621599316596,0.005925563257234171,-0.004460729995848669
1772699902404641800,1.211641845703125,0.08188216439485549,0.006669257764006033,-0.0008033706811525917
1772699902414599000,1.221598876953125,0.0682663114964962,0.012262104768422431,-0.0013336120929059688
1772699902424557000,1.23155712890625,0.08667290580272674,0.009897841588803566,0.005090901960557676
1772699902434514000,1.241513916015625,0.08397884441316127,-0.012361258860537782,0.0014802620134913012
1772699902444470800,1.251470703125,0.08831716587841511,-0.00755176251984667,0.009144218201417243
1772699902454428000,1.261427978515625,0.057791679233312604,0.004493585092201829,-0.005698682569889933
1772699902464386000,1.271385986328125,0.08547463592886924,-0.010067996824206784,0.0016149435058920062
1772699902474343000,1.281343017578125,0.06512216825187206,0.00765140523572918,0.00030220552306709576
1772699902484299800,1.2912998046875,0.09235504309237003,0.00681606408986263,-0.015100418625510065
1772699902494257000,1.3012568359375,0.08008417506217956,0.009072030889685265,-0.009076860045141074
1772699902504215000,1.311215087890625,0.08382394611239433,-0.0002968229555292055,-0.0032883354904086446
1772699902514172000,1.321171875,0.08352583994865417,0.00999155232082121,-0.009935560375353088
1772699902524129000,1.33112890625,0.09190554575920104,0.012226508298655972,-0.010524821230594533
1772699902534086000,1.3410859375,0.08741641764640808,-0.0038936236047884447,-0.015593761950271436
1772699902544042800,1.351042724609375,0.0706581750690937,0.0002822053417097777,0.015347498996555804
1772699902554001000,1.3610009765625,0.07918751848340035,-0.008998326332657597,-0.002704816249842406
1772699902563958000,1.3709580078125,0.07320026076734065,0.001993411440076306,0.00469835041668266
1772699902573915000,1.380914794921875,0.08472060269117355,0.005227712619607337,-0.0012640688294093705
1772699902583871700,1.390871826171875,0.07125380287468433,0.016329938729223795,0.001685609291162109
1772699902593830000,1.400829833984375,0.09205167623162269,0.0011574446731247008,0.004192059703735867
1772699902603787000,1.410787109375,0.0687058719575405,0.009382599242776632,0.0031220629873234427
1772699902613744000,1.420744140625,0.07783435030877589,0.010628772512124851,0.014057055043929722
1772699902623700700,1.43070068359375,0.05643441940546035,0.005183220457332208,0.0061953263883682665
1772699902633657900,1.440657958984375,0.0892062236726284,0.014270795976021326,0.008915283695948892
1772699902643616000,1.450615966796875,0.08950491435825825,-0.005510009292862377,-0.013914016144315245
1772699902653573000,1.460572998046875,0.08321896595656872,-0.015278635011427103,-0.008503418955183587
1772699902663530000,1.470530029296875,0.07109715100824833,-0.010184257314749992,-0.007250960933876922
1772699902673486800,1.48048681640625,0.09024901072382926,-0.01607600050077308,-0.0016615616952942217
1772699902683445000,1.490445068359375,0.08007190010249614,-0.0010651861126767471,0.002987270470013027
1772699902693401900,1.50040185546875,0.07976970228552818,0.005143167008156888,0.005389844378759153
1772699902703359000,1.51035888671875,0.09099310708940028,0.0025681288883788508,0.005796305716977803
1772699902713315800,1.52031591796875,0.07139058099687098,0.019266279875487086,0.00707168396039051
1772699902723273000,1.53027294921875,0.07049217085242271,0.003639726475533098,0.012165554766991408
1772699902733230800,1.54023095703125,0.07692834137976169,-0.007368208946753293,0.009761974498780909
1772699902743188000,1.55018798828125,0.08156769161820411,-0.0066249436982441685,0.0032444563911310977
1772699902753145000,1.56014501953125,0.07019874086380004,0.002210296460613608,-0.0035570323257517883
1772699902763101700,1.570101806640625,0.06885317147374152,0.0008307837017579004,0.0008762813672641641
1772699902773059800,1.580059814453125,0.08381693184971808,-0.01424555650348775,-0.004097032655822113
1772699902783017000,1.590016845703125,0.07229542088210582,0.005089806552836671,-0.015462894120707641
1772699902792974000,1.59997412109375,0.07812894934117794,0.0012105220006546004,-0.012327895447053015
1772699902802931000,1.609930908203125,0.08037351339757443,0.001967824907670729,-0.007840032846984105
1772699902812888800,1.619888916015625,0.08635960206985473,0.020139272450888528,-0.0064172660391137466
1772699902822846000,1.629845947265625,0.07319207746088505,-0.003733857332658954,-0.0043758096396515605
1772699902832803000,1.639802978515625,0.08441431322097778,0.0009704524673521518,-0.002783820034372911
1772699902842760000,1.649760009765625,0.07977613202631473,-0.007341905461717396,-0.0022023805843389707
1772699902852716800,1.659716796875,0.07274433369338512,-0.016268883591215127,0.007831166266405488
1772699902862675000,1.669675048828125,0.07738309940993786,-0.021112350700167006,0.0011137445265936548
1772699902872632000,1.679632080078125,0.06541150658726692,-0.00856262462940067,0.007714685438509332
1772699902882589000,1.6895888671875,0.07304243985712527,-0.0019082584738498553,-0.0038684052526747107
1772699902892546000,1.699546142578125,0.09833177941441536,-0.002192792769963853,-0.01707074145094375
1772699902902504000,1.70950390625,0.08127309258580208,0.006700990909407846,-0.013265050716290715
1772699902912461000,1.7194609375,0.08680909940302371,0.013155701740435323,-0.006158312567183748
1772699902922418000,1.72941796875,0.07768295913934707,0.00592392385599669,-0.002671087510176585
1772699902932375000,1.739375,0.07678630256056786,0.0039402483586454765,0.0019035283560384414
1772699902942332000,1.749331787109375,0.10117781649529933,-0.002250432108179666,-0.007271425479059689
1772699902952289800,1.759289794921875,0.072897478428483,-0.01284414700665511,0.0010129373335090348
1772699902962246700,1.76924658203125,0.07050327676832675,-0.006262051502871326,-0.008379786296471138
1772699902972203800,1.779203857421875,0.08845978921949862,-0.01134178418626543,-0.005354154294158797
1772699902982161000,1.789160888671875,0.0874111569494009,-0.0073353798228083175,0.00384424463401956
1772699902992118800,1.799118896484375,0.07454115398228169,0.0034256681663217023,-0.0024155552608499417
1772699903002075600,1.80907568359375,0.07379238144159317,0.004241788588487543,-0.0015511983684642473
1772699903012032800,1.81903271484375,0.07214519875645638,0.0036194737053709103,-0.0009645122065659961
1772699903021990000,1.828989990234375,0.08306874383091926,0.008323002620670013,0.014684823561942903
1772699903031946800,1.83894677734375,0.07214636780023574,0.012191044259630144,0.010395960411737905
1772699903041904600,1.848904541015625,0.06960135949254036,0.002916905793431215,0.007600014116853708
1772699903051861800,1.85886181640625,0.07468962254226208,0.0033128645747667177,0.005456088290183106
1772699903061819000,1.86881884765625,0.06541384467482567,0.0008027494839392601,0.006149640636960976
1772699903071775700,1.878775634765625,0.08456745795607566,-0.008635164709226227,-0.0006939801779852132
1772699903081733600,1.888733642578125,0.06316928061842918,-0.005940719727170653,0.00866138485422707
1772699903091690800,1.898690673828125,0.07603694549798964,-0.002922531816619448,-0.012779869006742956
1772699903101647600,1.908647705078125,0.07304419342279433,-0.007742298389575444,0.0011934898091072682
1772699903111604700,1.918604736328125,0.09548808042109012,0.0033074805801734325,0.02076427476472454
1772699903121562600,1.928562744140625,0.07753156796991825,0.0012048092124983668,-0.00022065130513510665
1772699903131519700,1.938519775390625,0.07094634436070918,0.0034566797925159333,-0.0036695154006651134
1772699903141476600,1.9484765625,0.07229366731643676,-0.006534653332596644,-0.002846234870761691
1772699903151433700,1.958433837890625,0.0776817900955677,-0.008351023138756863,0.008537659151502884
1772699903161390800,1.968390869140625,0.09369301369786262,-0.005612971910415217,0.006266200238314923
1772699903171348700,1.9783486328125,0.07768237461745739,0.001334687236440368,0.0021451209855636987
1772699903181305600,1.9883056640625,0.08217208725214004,0.003937449046783149,-0.0004971108937090321
1772699903191262700,1.9982626953125,0.0820212806046009,-0.0002513033133698627,-0.01486149872803362
1772699903201219800,2.0082197265625,0.0917465558052063,-0.010115091935521922,-0.0022932403450889975
1772699903211177700,2.018177734375,0.07603519193232058,-0.0018330195468617603,0.008194310765172122
1772699903221134600,2.028134521484375,0.08725742769241332,-0.009706164074758999,0.011636691462632734
1772699903231091700,2.038091796875,0.0811234549820423,0.010075271381787024,0.00226929064522119
1772699903241048800,2.048048828125,0.08516367028355598,0.0028776560618542133,0.019828174374834633
1772699903251005700,2.058005615234375,0.06571019727289676,0.017374497612402773,0.001963161576051789
1772699903260963600,2.067963623046875,0.068104398933053,0.012703290930972434,-0.01859048123946413
1772699903270920700,2.077920654296875,0.07064648463129997,-0.007421103611192665,-0.009806068227189825
1772699903280877800,2.0878779296875,0.07753039892613887,-0.0196558134826133,0.013618798340694047
1772699903290834700,2.097834716796875,0.09952712667882442,-0.016034572511841542,-0.01846579655551468
1772699903300792600,2.10779248046875,0.07842939359247685,0.00026807635165750977,0.006688859796908218
1772699903310749700,2.117749755859375,0.07618366049230098,0.006094754944834858,0.007212670754347345
1772699903320706600,2.12770654296875,0.08336626547276973,-0.004227636765548959,0.011722420959238661
1772699903330663700,2.13766357421875,0.07947510325312614,0.00813511536575388,0.007341502461273922
1772699903340621800,2.147621826171875,0.08351531855463981,0.005776916600740515,-0.008522178454580717
1772699903350578700,2.15757861328125,0.07947393420934677,0.00022094470772426574,-0.004647690235580376
1772699903360535600,2.16753564453125,0.07753098344802856,-0.0015944980832515282,0.012439711516274836
1772699903370492700,2.17749267578125,0.06241816999018192,0.000020841858629137275,-0.007761415223643416
1772699903380449800,2.18744970703125,0.06660743837356567,-0.0050330942298052826,0.0007049245512185734
1772699903390407700,2.19740771484375,0.06451192739903927,-0.008688356201187707,0.023889820623444392
1772699903400364500,2.207364501953125,0.07558511007726192,-0.007759742714720777,0.008752367627152124
1772699903410321700,2.21732177734375,0.07633271357417107,-0.002135418293229304,0.007379472409572918
1772699903420278800,2.22727880859375,0.0835159030765295,-0.004300126613024622,-0.007085250119795091
1772699903430237000,2.23723681640625,0.08276946862339973,0.010274045356898569,-0.015890207021532113
1772699903440193500,2.247193603515625,0.08920505462884902,0.008006849343585781,-0.01512595949214301
1772699903450150700,2.257150634765625,0.07693360207676887,0.015077290053316391,0.005278911942237755
1772699903460107800,2.267107666015625,0.07453940041661263,0.008019882355094887,0.002295866983248561
1772699903470064600,2.277064697265625,0.06436462788283824,-0.01271756148491986,-0.010089846754766768
1772699903480022800,2.287022705078125,0.08172258991897105,-0.01863595064927358,-0.0070825135983701324
1772699903489979600,2.296979736328125,0.07738426845371722,0.012447028314694762,0.0025081597395255812
1772699903499936800,2.306936767578125,0.06900339359939098,0.0023331602218793703,0.0031010824189099365
1772699903509893600,2.3168935546875,0.07049918511509895,-0.010179311711573973,-0.009229204487573587
1772699903519851800,2.326851806640625,0.06870294934809207,-0.01686367114658933,0.01100756096295081
1772699903529808600,2.33680859375,0.07902735948562621,-0.0008020279647316783,0.025324497635639272
1772699903539765800,2.346765869140625,0.08740589625239371,0.006087768081622198,-0.012790099281456786
1772699903549722600,2.35672265625,0.08381576280593872,0.0013189416780369355,0.007193683496909215
1772699903559679700,2.3666796875,0.06451368096470833,0.017182454772177152,-0.018323567081720102
1772699903569638000,2.376637939453125,0.09428981054723262,0.013835957355867139,-0.01765628054571571
1772699903579594500,2.386594482421875,0.08007540723383426,0.009898873635265044,-0.0028502431839544443
1772699903589551600,2.396551513671875,0.07813011838495731,-0.0028130115941166875,0.005957271286461036
1772699903599508700,2.4065087890625,0.08815583783686161,-0.0011338537349831312,-0.011928148689877707
1772699903609467000,2.416466796875,0.0776817900955677,-0.0014783608902944252,-0.015603088042687159
1772699903619423700,2.426423828125,0.07932721921503544,-0.00006996909682638943,-0.007271836471013375
1772699903629380600,2.436380615234375,0.06675882954299449,-0.013042181196250021,-0.015359075269917956
1772699903639337700,2.446337646484375,0.08232114033401013,0.0041148012079531325,-0.008113040531263686
1772699903649294600,2.456294677734375,0.06646013885736465,0.012607936231140046,0.007118712285513174
1772699903659252700,2.466252685546875,0.05987725333571434,0.012883547435281797,-0.011938480570935644
1772699903669209600,2.476209716796875,0.07558803268671035,0.012896740276995115,0.0008162343011863413
1772699903679166700,2.486166748046875,0.08830664448440075,0.011780792091460898,-0.012615585248055868
1772699903689123600,2.49612353515625,0.08157295231521129,0.008330715569667517,0.005934695270116207
1772699903699081700,2.506081787109375,0.07902852852940559,-0.006777102052653208,0.006315205320570384
1772699903709038800,2.516038818359375,0.07902911305129527,-0.013235689907777123,-0.008605886099103371
1772699903718995700,2.52599560546875,0.08291852170526981,-0.007592478122725151,-0.007499176099372561
1772699903728952600,2.53595263671875,0.06585925035476684,-0.004361990035208873,-0.013780841051589231
1772699903738910700,2.54591064453125,0.07364040575027465,-0.006888458039215765,-0.004066891533418675
1772699903748867800,2.555867919921875,0.06810381441116332,-0.006116185891930945,0.00218193601793173
1772699903758824700,2.56582470703125,0.09488894548416137,0.014658466419624164,0.010799967785499756
1772699903768781600,2.575781494140625,0.0859118583023548,0.007169101611501537,0.00933030165831442
1772699903778738700,2.58573876953125,0.07483984466791152,0.0095716601080494,0.011680794324196176
1772699903788696800,2.59569677734375,0.08471651103794574,0.008906547262822277,0.010825945901905651
1772699903798653700,2.60565380859375,0.08007774532139302,-0.001751793837081641,-0.00031536383003985974
1772699903808610600,2.615610595703125,0.07558744816482067,-0.0052190315562300384,-0.010422879243060014
1772699903818567700,2.625567626953125,0.06376666198968887,-0.005881116760731674,0.0075654154442192515
1772699903828525800,2.63552587890625,0.05957739360630512,-0.00485630375763867,-0.009547367058653616
1772699903838482700,2.645482666015625,0.07065057628452777,-0.0012895694530801847,-0.016012900677794824
1772699903848439800,2.655439697265625,0.07783259674310684,-0.0010956771490629761,-0.0033923310106561983
1772699903858396700,2.665396728515625,0.07917875065505504,-0.003834134802781045,0.0005075014267436927
1772699903868353500,2.675353515625,0.07035130107700824,0.0028888898419216274,0.0013357167142021352
1772699903878311700,2.685311767578125,0.06990355730950831,0.0034554605163866652,-0.010848855278390692
1772699903888268800,2.695268798828125,0.07753624414503574,0.01100503107914701,0.010531472450378351
1772699903898225700,2.7052255859375,0.07050444581210613,0.006371229232079349,0.0019226440484620979
1772699903908182500,2.7151826171875,0.07065408341586589,-0.009637026094994507,0.019174964313243982
1772699903918140700,2.725140625,0.09938508785963057,-0.010662574317026883,-0.008801441778888693
1772699903928097800,2.735097900390625,0.06856032600700855,-0.014461496242531574,-0.005604500909592025
1772699903938055000,2.745054931640625,0.06107903034090995,-0.004161499027046375,0.00417622053049854
1772699903948011800,2.75501171875,0.07739186723828315,0.0020679105815477666,0.0008198841380639351
1772699903957968600,2.76496875,0.07454816824495791,0.0011316298118559643,-0.0005234630413338891
1772699903967926800,2.7749267578125,0.060630117529630656,0.016436308013414964,0.0076088475897471645
1772699903977884000,2.7848837890625,0.07544365577995776,0.013404420371074229,-0.00572255378171103
1772699903987840800,2.7948408203125,0.0844219120055437,0.0058042795317014674,-0.001613403142298921
1772699903997797600,2.804797607421875,0.05958323882520199,-0.002723835473321378,0.01680577836333541
1772699904007755800,2.814755859375,0.06616670886874199,0.002734754159557633,0.011456914448936003
1772699904017713000,2.824712890625,0.06856032600700855,-0.012285111184674314,-0.00485036206979712
1772699904027670000,2.834669921875,0.0688590166926384,-0.0018947322719963266,0.018895143866509898
1772699904037626600,2.844626708984375,0.08322539569735526,-0.011525196195463648,0.007523155196581501
1772699904047583700,2.854583740234375,0.05240004932284355,-0.01631620246481616,-0.00558665757975832
1772699904057542000,2.8645419921875,0.08098083164095878,-0.010762719356408343,-0.0032015722348747657
1772699904067498800,2.874498779296875,0.08098083164095878,0.008393647570931351,-0.008450097886592265
1772699904077456000,2.884455810546875,0.07484627440869808,0.005784962909878231,-0.007622159162469324
1772699904087412700,2.894412841796875,0.07798807956576347,-0.007634193806024268,-0.01979346382105723
1772699904097371000,2.904370849609375,0.09190554575920104,0.00510546077969484,-0.0020682679162186105
1772699904107327700,2.91432763671875,0.06347557008862495,-0.002990181092196144,-0.02140737442425452
1772699904117284900,2.924284912109375,0.07903788087964057,-0.000887427526130341,0.0007002752047425019
1772699904127241700,2.93424169921875,0.08981295739412307,-0.0061283603869145735,-0.012379029695957432
1772699904137198600,2.944198486328125,0.0726058020055294,-0.01460418808227405,0.015088685946876648
1772699904147156700,2.95415673828125,0.0726058020055294,-0.006521049498929642,0.006596279863585368
1772699904157113900,2.96411376953125,0.0709592038422823,-0.0013725350287975742,0.001321993864115211
1772699904167071000,2.974071044921875,0.06272972015738487,-0.004598552437173203,0.009655872359359637
1772699904177027600,2.984027587890625,0.06841594910025596,0.012441571254865266,0.011034195524838288
1772699904186985700,2.99398583984375,0.07769406505525112,0.01882351824378129,0.00660834761482547
1772699904196942800,3.00394287109375,0.10014204370677471,0.00906781137229409,-0.0014245597602683118
1772699904206900000,3.01389990234375,0.08428045770823955,0.000601125964615494,-0.011682490807649446
1772699904216856800,3.02385693359375,0.0769493841677904,0.01108282272282522,0.0037645238968587362
1772699904226814700,3.033814697265625,0.07560206121206284,0.0037832128997193648,-0.007019620413013035
1772699904236771800,3.043771728515625,0.07141396187245845,0.0003021567177725956,0.0007569646948875743
1772699904246729000,3.05372900390625,0.08712591026723385,-0.00012943963252473622,0.006948933792734169
1772699904256685800,3.063685791015625,0.07635083375275134,-0.007975043132947758,-0.008033660860342205
1772699904266642700,3.073642578125,0.07814473143219948,0.00843129443388898,-0.0038468687034794126
1772699904276600800,3.083600830078125,0.06647358286082744,0.0077425952170975506,0.009909293422935297
1772699904286558000,3.093557861328125,0.09041501494050025,0.02104162355151493,0.00026154586076008855
1772699904296514800,3.103514892578125,0.094604283323884,0.008208641826268286,0.0002184747602470452
1772699904306472000,3.113471923828125,0.06617255408763885,-0.0015828030788805334,0.019339534624654334
1772699904316429800,3.123429931640625,0.07440203777253628,-0.0057281912213424215,0.00830197239072877
1772699904326386700,3.13338671875,0.09505144256949424,-0.003723847395298071,-0.011327861833834321
1772699904336343800,3.14334375,0.08008826671540736,-0.0031517237628810105,-0.006697472361626568
1772699904346301000,3.153301025390625,0.08367898468375205,-0.00009878419935703278,-0.004348476676853897
1772699904356257800,3.1632578125,0.06796703628897667,0.004359788944968022,-0.008819697813142556
1772699904366215700,3.173215576171875,0.08248129933178425,-0.007952292445022612,0.012584814508812268
1772699904376172800,3.1831728515625,0.07125789452791213,-0.008227994980709627,-0.010291206554253585
1772699904386130000,3.1931298828125,0.09205635240674018,0.0021446473458781837,0.007705981542245717
1772699904396086800,3.203086669921875,0.07978665342032909,0.006708416164037771,0.004702143815332965
1772699904406044700,3.213044677734375,0.07754092032015324,0.02001322121869307,0.009477972208918072
1772699904416001800,3.223001708984375,0.07499708105623722,0.005527499283780344,0.002337241885719413
1772699904425959000,3.232958984375,0.06362462317049503,0.005198559590359218,0.0016394340597544214
1772699904435915800,3.242915771484375,0.06541968989372253,0.0014088804172351956,0.005073427381837973
1772699904445873000,3.252872802734375,0.07709200750887393,0.00969380235010758,0.0039238997266322255
1772699904455830800,3.262830810546875,0.06676818189322949,-0.0010875851741526275,-0.0009196441578998929
1772699904465788000,3.272787841796875,0.07395078687369823,-0.0076467975592706345,-0.0049394251678051655
1772699904475744800,3.282744873046875,0.07918868752717971,-0.0005722103973850607,0.0012564103939279449
1772699904485702000,3.292701904296875,0.07963643129467964,0.010198336072452366,0.005407414284779225
1772699904495659800,3.30265966796875,0.060930561780929565,0.005551081088767387,0.009507309042901034
1772699904505617000,3.312616943359375,0.05329845946729183,0.0017952356865862384,-0.02858583751914557
1772699904515573800,3.32257373046875,0.07963584677278995,0.021051135731954128,0.013133432826411443
1772699904525531000,3.33253076171875,0.07439853064119815,0.019723791551752946,0.009563616082200315
1772699904535488000,3.342488037109375,0.08262859884798526,-0.0007987491622567177,-0.0010386471635007184
1772699904545446000,3.35244580078125,0.07739128271639346,-0.00782688510022126,-0.004245095075837162
1772699904555402800,3.36240283203125,0.07858838354647159,-0.004040991619648411,-0.00912836418680381
1772699904565359900,3.37235986328125,0.07439794611930847,-0.019087407044088466,-0.01260991127580637
1772699904575317000,3.38231689453125,0.0781388862133026,-0.01400105739024002,-0.0039616567582663265
1772699904585274600,3.392274658203125,0.07709200750887393,0.007450599133735522,-0.003617956745486299
1772699904595231700,3.402231689453125,0.08292904309928417,-0.002271986352861859,-0.01969239633306861
1772699904605188900,3.41218896484375,0.0866699831932783,0.0062778244607383385,0.014002961652958765
1772699904615146000,3.42214599609375,0.06482230852246285,0.004706378459511325,-0.01206828096306417
1772699904625102800,3.432102783203125,0.07005962465405463,0.0037618824173230674,-0.01980775492460234
1772699904635060700,3.442060791015625,0.08442366557121277,0.007634540865896269,-0.010425959399424027
1772699904645017900,3.452017822265625,0.08008475958406924,-0.003020576230459846,0.007189701441535726
1772699904654974700,3.461974609375,0.06392448289990425,-0.003154239946953021,-0.0028348877824959343
1772699904664931800,3.471931884765625,0.08143266706168652,-0.011991982590151018,0.002688908292535052
1772699904674889700,3.4818896484375,0.0766448482632637,-0.000011069383285939693,0.005032367002376122
1772699904684846800,3.491846923828125,0.06407528954744339,-0.004279659213731065,0.010737489017029292
1772699904694803700,3.5018037109375,0.06991232513785361,-0.020185225917887874,0.008441636589745758
1772699904704760800,3.5117607421875,0.07604629784822464,-0.006248822128539905,0.011991606989171122
1772699904714718000,3.521718017578125,0.08053601048290729,-0.010397036982327698,-0.014970180983608588
1772699904724675800,3.53167578125,0.06976268753409386,-0.010427432120591402,-0.0005502665665801032
1772699904734632700,3.5416328125,0.08038812644481659,0.00046324273073114453,0.00697402542232885
1772699904744589800,3.55158984375,0.07156067686676978,0.010212268699682317,0.007452179740290739
1772699904754547000,3.561546875,0.07425473825633526,0.011334007305186241,-0.008523267583257985
1772699904764504800,3.5715048828125,0.07844342211782931,-0.004385690571204759,-0.006696025898278457
1772699904774461700,3.581461669921875,0.0702133539110422,-0.004186122011649422,-0.0036274406702286794
1772699904784418800,3.591418701171875,0.0724579179674387,0.0073141406719572834,-0.007937669122981605
1772699904794376000,3.6013759765625,0.07919219465851783,0.008269080476346426,0.0034836773972958326
1772699904804332800,3.611332763671875,0.08472995504140854,-0.00862921445905231,0.00025984395449631846
1772699904814290700,3.621290771484375,0.0851800368964672,0.004718731051008217,0.00518701185810496
1772699904824247800,3.631247802734375,0.0851800368964672,0.012195451006689109,0.015341020165063673
1772699904834205000,3.641204833984375,0.07470598915517329,-0.008103546617133542,0.001991576817660825
1772699904844161800,3.651161865234375,0.07021744556427001,-0.012056741222320123,0.008788989293514168
1772699904854119700,3.66111962890625,0.07305997551381588,0.0007662122992565855,0.0018705448246997547
1772699904864076800,3.671076904296875,0.06617489217519759,-0.0017286686898209153,-0.0015403852843272033
1772699904874033700,3.68103369140625,0.07171206803619862,0.0020678238165797664,-0.003911907894739124
1772699904883990800,3.69099072265625,0.06423018784821033,-0.007636892653186805,-0.00626622535448987
1772699904893948700,3.70094873046875,0.07904489514231682,-0.013395794106624089,-0.0018900914878526235
1772699904903905800,3.71090576171875,0.09266074804067612,-0.001234428032627329,-0.01032809079880826
1772699904913862700,3.720862548828125,0.08533025902211666,-0.002418897709995508,-0.004025585700428928
1772699904923819800,3.73081982421875,0.0784486828148365,0.0011272915634559467,-0.002848035243847698
1772699904933777000,3.74077685546875,0.0815904879719019,0.00797555002302397,-0.0034906422838554135
1772699904943734800,3.75073486328125,0.08293547284007072,-0.0030447516904911023,0.005610102958249626
1772699904953691600,3.760691650390625,0.07724982841908931,-0.000891984970238991,0.010733436179708223
1772699904963648800,3.770648681640625,0.06722410896718502,0.004252698141569271,-0.016360490272758762
1772699904973606000,3.78060595703125,0.0603407791942358,-0.005197879170347005,-0.01941539917272748
1772699904983563800,3.790563720703125,0.06438274806141853,-0.00006251644273288548,-0.006357106521070818
1772699904993520600,3.800520751953125,0.08219020743072032,-0.004498096870537847,0.0004278112285683164
1772699905003477800,3.810477783203125,0.08114215968251227,0.011510683612921275,0.006575521344991284
1772699905013435000,3.820434814453125,0.0827881733238697,0.027480789753538556,-0.002716189310516347
1772699905023391700,3.830391845703125,0.06916998233795166,0.0017701514776796102,-0.011119515171134844
1772699905033349600,3.840349609375,0.08398352058827876,0.016288346343510784,-0.01447855469189817
1772699905043306800,3.850306640625,0.07605155854523181,0.002422555538383312,-0.0009922002207458716
1772699905053264000,3.860263916015625,0.07470715819895267,-0.0021245041735703124,-0.0027749406102957437
1772699905063220700,3.870220703125,0.0806920778274536,0.0018753243186278269,-0.000159854749563965
1772699905073179000,3.880178955078125,0.08174071009755134,-0.0018534641132690011,-0.01602874784254236
1772699905083135700,3.8901357421875,0.08682780410349368,-0.011313311577029526,-0.004508377948423731
1772699905093092900,3.9000927734375,0.07755027267038822,-0.007882875904045067,0.008813707605417585
1772699905103049700,3.9100498046875,0.07036883673369884,-0.011661837320332415,-0.00045125118424912215
1772699905113006800,3.9200068359375,0.06543021128773689,0.00414610966166947,0.009929499385680537
1772699905122964700,3.92996484375,0.07949556151926516,0.002250893332483247,-0.00153749806585256
1772699905132921600,3.939921630859375,0.07500526436269282,0.01531764728098642,0.009283859567547915
1772699905142878700,3.949878662109375,0.07889525753855704,0.004706227762461639,-0.005283014441086561
1772699905152835800,3.9598359375,0.07051613624989986,0.006339605684531852,0.0013576999317359876
1772699905162794000,3.9697939453125,0.07276128482818603,-0.007563041965686716,-0.004170683840978017
1772699905172750600,3.97975048828125,0.07276245387196541,-0.0015409823643043636,0.009919670969765865
1772699905182707700,3.989707763671875,0.060791445571184155,0.0053614174352958795,-0.005964777597837383
1772699905192664800,3.999664794921875,0.06932020446360111,-0.012212717235321179,-0.004980952479792177
1772699905202621700,4.00962158203125,0.07336041976511477,-0.027687678536446762,-0.0016822736918824374
1772699905212579800,4.019579833984375,0.0729103379100561,0.008843733992567285,0.004217095963581232
1772699905222536700,4.02953662109375,0.07949497699737548,0.021652156665292566,-0.005856379611697047
1772699905232493800,4.039493896484375,0.0814414348900318,0.022370337704895063,0.012147790781437651
1772699905242450700,4.04945068359375,0.08084171543121338,0.01639894884482492,-0.004667165545963507
1772699905252408800,4.059408935546875,0.08054302474558353,0.00929472916307859,-0.001681411179601855
1772699905262365700,4.06936572265625,0.08338672373890876,0.002303203475032933,-0.004905641058390029
1772699905272322800,4.07932275390625,0.07740180411040783,-0.009552128857094794,0.006501539368394879
1772699905282279700,4.08927978515625,0.07515724005401134,0.00048468281098175794,-0.0016718670331218163
1772699905292236800,4.09923681640625,0.056302317458391184,-0.005697759550460614,-0.010002565763535675
1772699905302195000,4.10919482421875,0.08204056982696056,-0.004900631523132324,0.008558136254773125
1772699905312151800,4.11915185546875,0.08697861075103283,-0.00488472613452468,-0.009036225499009015
1772699905322108700,4.129108642578125,0.07336100428700447,0.00577491187332198,-0.006951501921622548
1772699905332065800,4.139065673828125,0.07276303839385509,0.0054061881587840616,-0.00525530330860929
1772699905342024000,4.14902392578125,0.07605389663279057,0.005845150398206897,-0.006655687038024188
1772699905351980800,4.158980712890625,0.058846156722307204,-0.0006578748202649876,0.009385876903607277
1772699905361937700,4.168937744140625,0.0757557904690504,0.003620501185255125,0.0005516899116308195
1772699905371894800,4.178894775390625,0.0748585493683815,0.0011835883279563857,-0.022085741759988013
1772699905381852000,4.188851806640625,0.08189268578886985,0.0025021190140396355,0.0024622171181472364
1772699905391809800,4.198809814453125,0.07500994053781032,0.001842097902460955,0.009396761911336215
1772699905401766700,4.2087666015625,0.07845102090239524,-0.00722888267445378,0.0007842945181633695
1772699905411723800,4.218723876953125,0.08997370091378688,-0.008972305975412018,-0.008863582049819524
1772699905421680600,4.2286806640625,0.06917290494740008,-0.010572694943333044,-0.00987648370694369
1772699905431638800,4.238638671875,0.0721656570225954,0.0013537207304732874,-0.006132231702789431
1772699905441596000,4.248595947265625,0.08234042955636978,0.012387959637795574,-0.0022763751190228504
1772699905451552800,4.258552734375,0.08234042955636978,0.012260237038321792,-0.002498990052381123
1772699905461509600,4.268509521484375,0.07680383821725845,0.018370975003577768,0.0007692342317604925
1772699905471466800,4.278466796875,0.06468260779082775,0.006046408591349609,-0.001005906231579138
1772699905481425000,4.2884248046875,0.08638122937977313,-0.014347062382893636,-0.0032006657692880253
1772699905491381800,4.2983818359375,0.08443594053089618,0.0027283563848119227,-0.007372790936214732
1772699905501338600,4.308338623046875,0.08353869943022728,0.014527072292030789,-0.004842437916601193
1772699905511295700,4.318295654296875,0.07934884652495383,0.005049428876675665,0.008379371308762347
1772699905521254000,4.32825390625,0.0711199473619461,-0.00005761650532949716,-0.0068476596671243894
1772699905531211000,4.3382109375,0.08204349243640899,-0.003482686450029723,-0.00920866173975519
1772699905541167600,4.348167724609375,0.07127133853137493,-0.0008498263289453461,-0.0035467723682857466
1772699905551124700,4.358124755859375,0.07650923918485641,0.006426302153873257,-0.011588330267771379
1772699905561081900,4.368081787109375,0.0895288797557354,0.014677271584793924,-0.012337401919270631
1772699905571040000,4.3780400390625,0.07875497228503227,-0.003255554030113853,0.004433599104094901
1772699905580996900,4.387996826171875,0.07082417928576469,0.012159676440409384,-0.012691277407837332
1772699905590953700,4.39795361328125,0.07172200490832328,0.02020251954598352,0.0009590094809638685
1772699905600910800,4.407910888671875,0.07366729375720024,0.006417858552513644,-0.007379730421188287
1772699905610868700,4.41786865234375,0.07561258260607719,0.0025339982899138702,-0.009052644056736607
1772699905620825900,4.427825927734375,0.08399462650418281,-0.004933501746272668,0.002562711786100408
1772699905630782700,4.43778271484375,0.08204875313341617,0.006240501824766397,-0.005614093005133327
1772699905640739800,4.44773974609375,0.07576397377550602,-0.003948701093159616,0.004296517875342396
1772699905650696700,4.45769677734375,0.07890636345446109,0.0034330066559836265,-0.0084856093038572
1772699905660654800,4.46765478515625,0.07277180622220039,0.0010662318588700146,0.0014695608104972051
1772699905670612000,4.477612060546875,0.08997954613268375,0.005052607214450836,-0.011031044586526696
1772699905680568600,4.487568603515625,0.07756137858629227,0.01543196697619278,-0.010572873039846309
1772699905690525700,4.497525634765625,0.07681377508938313,0.01297800251939334,-0.01491727147779311
1772699905700483800,4.50748388671875,0.07247370005846022,-0.0015669844552408903,0.007553034311614464
1772699905710441000,4.51744091796875,0.05855798743069172,0.0005616798702161759,0.004790750541025773
1772699905720397800,4.527397705078125,0.07217676293849945,-0.003189781617792323,0.0008291537190860253
1772699905730354700,4.537354736328125,0.08833820866644382,-0.006401857265783474,0.0004906010951148345
1772699905740311800,4.547311767578125,0.07112988423407077,-0.007776492920122109,-0.005044543780648382
1772699905750270000,4.55727001953125,0.055119829675555225,-0.011174889487028121,-0.0013530919698663637
1772699905760226800,4.567226806640625,0.08115618820786476,-0.011312014669086783,0.0021423706217014115
1772699905770183700,4.57718359375,0.08265139520168303,0.002338142357673496,0.007452812782063847
1772699905780140800,4.587140869140625,0.06200023683905601,0.012199615725153126,0.007768736588640603
1772699905790099000,4.597098876953125,0.08220072882473468,0.009384823165903798,0.00007161763121839612
1772699905800055800,4.607055908203125,0.0717255120396614,0.001685720030660741,-0.006731992260803235
1772699905810013000,4.617012939453125,0.08773848920762538,0.003699539504526183,-0.01272608728467021
1772699905819969800,4.6269697265625,0.07457038007676602,-0.009893896066048182,0.009502294370243908
1772699905829926700,4.6369267578125,0.07023030504584311,0.004432050463580526,-0.005301104366092477
1772699905839884800,4.646884765625,0.07531798357367515,0.0033686042168410493,-0.012426082566432886
1772699905849842000,4.656842041015625,0.07456921103298664,0.014968130590417421,-0.010278856246045324
1772699905859798800,4.666798828125,0.07531798357367515,0.004365040508820675,0.0010830280154550565
1772699905869755600,4.676755615234375,0.06798515646755694,0.003856520164525136,0.012968490338954142
1772699905879713800,4.6867138671875,0.08324936109483241,0.0110424222137779,0.015207585919077973
1772699905889671000,4.6966708984375,0.06738835961818694,0.004705282480968162,0.020258085658121854
1772699905899627800,4.706627685546875,0.07576806542873382,0.012295262685930355,-0.005667215998435858
1772699905909584600,4.716584716796875,0.08130407224595547,-0.0001759639216819778,-0.012997721000015734
1772699905919541800,4.726541748046875,0.08085574395656585,-0.0026579306302592157,-0.002130174150064704
1772699905929500000,4.7365,0.067986910033226,0.00006357588865794241,-0.003438270207101595
1772699905939456800,4.746456787109375,0.07472118672430515,0.0011505354417255147,0.005695110935647971
1772699905949414100,4.7564140625,0.07427168939113617,-0.005457575852726586,-0.00512977380786615
1772699905959371000,4.76637109375,0.07232581602036953,0.0092351398963714,0.014289968750660773
1772699905969329200,4.7763291015625,0.07801204496324061,0.010267533417721278,-0.0029286190641112622
1772699905979286300,4.786286376953125,0.07112813066840172,0.016214354092115534,0.00865120081610803
1772699905989243400,4.796243408203125,0.07247603814601898,0.008720692134788259,0.006192976313544204
1772699905999200000,4.806199951171875,0.07786416092514992,0.0008204267045250162,0.004703414750867523
1772699906009157000,4.8161572265625,0.06723989105820656,0.0034719823929248374,0.008980592029856052
1772699906019115300,4.826115234375,0.06694003132879733,-0.0042140329318819565,-0.002104006235291308
1772699906029072400,4.836072265625,0.08968494710028171,-0.0011907441545277832,-0.0160235031285556
1772699906039029200,4.846029296875,0.08788871133327483,0.013104464743542484,-0.018047010596084875
1772699906048986000,4.855986083984375,0.07981003429591656,-0.0024317434918368235,-0.007409719134075567
1772699906058944300,4.8659443359375,0.08025777806341648,-0.0002998825622955337,-0.001636669853454805
1772699906068901000,4.875901123046875,0.0848971283018589,-0.004102599313505925,0.005980181804590393
1772699906078858200,4.885858154296875,0.06948445511460304,0.012941305504506452,-0.016959176543471403
1772699906088815000,4.895815185546875,0.08444763096868992,-0.0036158569761784746,0.002678555861879431
1772699906098772200,4.905772216796875,0.07427227391302585,0.0016309393698116764,0.008872498862748034
1772699906108730000,4.915730224609375,0.06709025345444679,-0.006243821726436726,0.007484377534929081
1772699906118687200,4.925687255859375,0.08459726857244967,-0.0011020064251497388,0.011731524431012804
1772699906128644400,4.935644287109375,0.06394611020982265,-0.008596417301148176,-0.0007831209078067331
1772699906138601000,4.94560107421875,0.08025719354152679,-0.01043841473890934,-0.005991145585777121
1772699906148559000,4.95555908203125,0.07517009953558444,-0.003272217470547184,0.0035027328679818307
1772699906158516200,4.96551611328125,0.07876140202581881,0.012093844662583432,-0.0020474146411463153
1772699906168473300,4.975473388671875,0.08280220184922218,-0.0018661546314833685,0.003982321091204358
1772699906178430200,4.98543017578125,0.09043371964097023,-0.007419669705932028,0.0029595036823753616
1772699906188387000,4.995386962890625,0.0727758978754282,0.010147843427653423,-0.0048524255918979175
1772699906198345200,5.00534521484375,0.08459843761622905,0.010348585597565397,-0.0009608617988662445
1772699906208302300,5.01530224609375,0.08953647854030132,0.01163853864313569,0.007846552777671604
1772699906218259200,5.02525927734375,0.08669394859075545,0.01949889218811877,-0.00537148217158392
1772699906228216000,5.035216064453125,0.08040800018906592,0.004144378928886726,0.015363331319927237
1772699906238174200,5.04517431640625,0.06873626709580422,-0.009814058595756068,-0.001382384279721009
1772699906248131300,5.05513134765625,0.06215279705226421,-0.002857750351564027,0.0029680134991052908
1772699906258088200,5.065088134765625,0.07172901917099953,-0.00039990430409088726,0.003739688566412951
1772699906268045300,5.07504541015625,0.057064534002542494,0.015489848343003541,0.014641555242374305
1772699906278002200,5.085002197265625,0.0645452451467514,0.016222272537089882,-0.008244295378250536
1772699906287960300,5.094960205078125,0.07142974396348,0.0035142414989182726,-0.004604855740851781
1772699906297917200,5.104917236328125,0.07771393879950046,0.016341355172381736,-0.004960082650877302
1772699906307874300,5.114874267578125,0.07427227391302585,0.008563510545389726,0.0034236899821335097
1772699906317831200,5.1248310546875,0.07172843464910984,-0.01782290353360586,-0.0022393535917392
1772699906327789000,5.1347890625,0.0792108993589878,0.007394663128838874,-0.015592004959669429
1772699906337746200,5.14474609375,0.08893675908148288,0.013924822949408553,-0.007431621580274076
1772699906347703300,5.154703369140625,0.07995733381211757,0.010037405323120765,-0.023758252965915015
1772699906357660400,5.164660400390625,0.08459668405055999,0.006047605034592561,-0.02057226617382839
1772699906367617000,5.174616943359375,0.07367196993231773,-0.010822395388083533,-0.005764423586992779
1772699906377575200,5.1845751953125,0.08669102598130703,-0.0058227604698855425,0.005797925710261916
1772699906387532300,5.1945322265625,0.07621522467434406,0.004922016804455779,0.007601517662417609
1772699906397489200,5.2044892578125,0.07786123831570148,-0.0074805147813865915,0.0023293776688500657
1772699906407446300,5.2144462890625,0.07636661584377288,0.013259646172099746,-0.0005236217298937845
1772699906417404200,5.224404052734375,0.09102993196845054,-0.0006874297083122655,-0.002103781331361097
1772699906427361300,5.234361328125,0.08339899869859219,0.011396793175977655,-0.005964299248869065
1772699906437318100,5.244318115234375,0.06903437325954437,-0.0019822096260497346,-0.004114038304139103
1772699906447275300,5.254275146484375,0.07397241418361664,0.02569537677464541,0.0076533380395558195
1772699906457232100,5.264232177734375,0.06484510487616062,0.009410551262204535,-0.005758330631279386
1772699906467190300,5.274190185546875,0.09118073861598967,0.00548550047269091,-0.01510888049317873
1772699906477147100,5.284147216796875,0.07936112148463725,0.00014588844382669775,-0.009373528307865489
1772699906487104300,5.294104248046875,0.07531973713934421,-0.005642371534835547,0.0028749320985167284
1772699906497061400,5.304061279296875,0.08265256424546241,0.009638665496231987,-0.0002455066143564181
1772699906507019300,5.314019287109375,0.08579553844630718,0.003940006330050528,0.011659990139829459
1772699906516976000,5.32397607421875,0.07816635874211787,-0.010764285692409612,0.004690434540408023
1772699906526933200,5.333933349609375,0.07218143911361694,0.0007597003600792959,-0.01187691625956213
1772699906536890400,5.343890380859375,0.07861585607528686,-0.014562006608094088,-0.007828280189575161
1772699906546847200,5.35384716796875,0.07083411615788936,0.009142744338605553,0.014851690861716633
1772699906556805000,5.36380517578125,0.07622048537135123,0.005753659022739156,-0.0004812327618594281
1772699906566762200,5.37376220703125,0.08789163394272327,0.003905099413450807,-0.00011887942260364069
1772699906576719400,5.38371923828125,0.0694862086802721,0.004210128508321941,0.007140157503163208
1772699906586676200,5.39367626953125,0.07188157938420772,-0.0004537853492191061,0.005082632459956221
1772699906596634000,5.403634033203125,0.09447568850815295,0.0054053205091040574,0.007985404125935746
1772699906606591200,5.41359130859375,0.08579670749008655,0.0030401714134961366,0.006305441407559556
1772699906616548000,5.423548095703125,0.07652034510076046,0.010315788439661263,0.0059445396690513
1772699906626505200,5.433505126953125,0.07427578104436397,0.01182149399460759,0.0154447408344422
1772699906636462300,5.44346240234375,0.08085983560979366,0.0024433106320444495,0.004577256204106379
1772699906646420200,5.453420166015625,0.07921382196843624,0.0022838640203233806,0.011116229518793989
1772699906656377000,5.463377197265625,0.07951309717595577,-0.0011963701777160168,-0.0058466665018582714
1772699906666334200,5.473334228515625,0.069786652931571,-0.005621356146270409,-0.0083097161641228
1772699906676291300,5.483291259765625,0.0649982496112585,0.004108175104344264,-0.007624396214506122
1772699906686249200,5.493249267578125,0.06559680002629757,0.0000023472207132726906,0.0035636738415589205
1772699906696206000,5.5032060546875,0.0850496885150671,-0.007277137696393765,0.005407082066283328
1772699906706163200,5.5131630859375,0.08355331247746944,-0.007182267053751274,0.00852169953479024
1772699906716120300,5.523120361328125,0.07936229052841663,-0.012572928849840535,0.004333703228585364
1772699906726077200,5.5330771484375,0.08459902213811873,0.02579254897222854,-0.0035170619312004416
1772699906736035000,5.54303515625,0.08594576057195663,0.00829729279067833,0.004574704629060579
1772699906745992200,5.5529921875,0.08175649218857288,0.005712368031125515,0.004320508103583415
1772699906755949300,5.56294921875,0.08055997588038444,0.00713096612477675,0.0065318254796264226
1772699906765906200,5.57290625,0.07367606158554553,0.010816449704486876,-0.005275683372112689
1772699906775864000,5.582864013671875,0.079363459572196,-0.010424244649661704,-0.012957830805977573
1772699906785821200,5.5928212890625,0.07577215708196162,-0.006978963033994659,-0.012055078988196327
1772699906795778300,5.6027783203125,0.061707391372323034,0.00001928465578239411,-0.011071917736320755
1772699906805735200,5.612735107421875,0.07292962713241577,0.005800233544246293,-0.005007499705889495
1772699906815692300,5.6226923828125,0.07906359984278678,0.0029448030139319595,0.010097083638084587
1772699906825650200,5.632650146484375,0.08789221846461295,0.007282964648981578,0.0035390203179704255
1772699906835607300,5.642607177734375,0.0916331585586071,0.005950802729767747,-0.005133570346038323
1772699906845564200,5.652564208984375,0.07891279319524765,0.015797599117923528,0.0010702735651590045
1772699906855521300,5.662521240234375,0.08011047854721545,0.001794244739320129,0.008144810209283605
1772699906865479200,5.672479248046875,0.07756722380518913,0.006963938994798809,-0.0018748950603650883
1772699906875436000,5.68243603515625,0.06903671134710311,0.01172144941992592,-0.012342848704301286
1772699906885393200,5.69239306640625,0.07681728222072123,-0.0008591330134076997,0.0035641387762065276
1772699906895350300,5.702350341796875,0.07681728222072123,-0.0039043824608204886,-0.011097664098930544
1772699906905307400,5.712307373046875,0.0831020615786314,-0.007301838312810286,-0.014126665664440952
1772699906915265000,5.72226513671875,0.07442308056056499,0.010458334148931317,-0.005009801831652293
1772699906925222100,5.73222216796875,0.07322656425237656,0.009488050644937901,0.0004886934074631427
1772699906935179300,5.74217919921875,0.08310381514430046,0.007566695227497257,0.007739227366365958
1772699906945136000,5.75213623046875,0.09357727836370468,-0.006684701928310096,0.0017774183291607187
1772699906955094300,5.76209423828125,0.08938684093654155,0.020523563627316617,0.004317520705820061
1772699906965051400,5.772051513671875,0.08100713512599468,0.013281985868071205,-0.012250230525893857
1772699906975008300,5.78200830078125,0.0874415520876646,0.003435586772137321,-0.007968995843006995
1772699906984965400,5.79196533203125,0.06768997291326523,-0.0060616426930995655,0.0052235536093648985
1772699906994922500,5.801922607421875,0.07457330268621444,-0.003090490528359078,-0.0048236093477229585
1772699907004880100,5.811880126953125,0.07786416092514992,0.0020358166765421628,0.004565560914324305
1772699907014837200,5.821837158203125,0.06843757641017437,-0.0021016530209453776,0.002376307812561572
1772699907024794400,5.83179443359375,0.0712812754034996,-0.005453306102985516,0.007562273639062186
1772699907034751500,5.84175146484375,0.08444880001246928,-0.012732886918215081,0.002739249669462151
1772699907044708400,5.851708251953125,0.08235445808172226,0.018491642241179943,0.012908705851068953
1772699907054666200,5.861666259765625,0.07502163097560405,0.01858551736997906,0.030826750597020145
1772699907064623400,5.871623291015625,0.06260112534165382,0.006982296635396778,0.02091590567945968
1772699907074580200,5.881580322265625,0.08325228370428085,0.0050092110307188705,-0.006052504971995949
1772699907084537300,5.891537353515625,0.08085983560979366,0.0015263282178668305,-0.016415468438074458
1772699907094495200,5.9014951171875,0.07472410933375358,-0.003945924614183604,-0.001962293926371785
1772699907104452400,5.911452392578125,0.07307809569239616,-0.008121625696518458,-0.006443029526388273
1772699907114409200,5.9214091796875,0.1007610523879528,-0.0061534308960894115,-0.007832994038955075
1772699907124366300,5.931366455078125,0.07113222232162952,0.01008788883476518,-0.019381601934402713
1772699907134324200,5.94132421875,0.08026128519475459,0.01215528795965947,0.006237460484309122
1772699907144281300,5.95128125,0.07382803727686404,0.012145268889144063,-0.0012272325339159579
1772699907154238200,5.96123828125,0.07293021165430545,0.0096665170509601,-0.0072615285644860705
1772699907164195300,5.9711953125,0.07427695008814335,0.0057587872890057035,-0.0027299478369881397
1772699907174152400,5.98115234375,0.08086217369735241,0.007132779055950231,0.0032664975471139767
1772699907184110300,5.9911103515625,0.08475275139510631,0.0054802717417245725,0.005202787099260604
1772699907194067200,6.001067138671875,0.07951601978540421,0.007758929863967932,0.006020503540179925
1772699907204024300,6.0110244140625,0.08295885371565818,0.002149917176039889,0.005914898016036022
1772699907213981400,6.0209814453125,0.07787117518782616,0.00029859935408458113,0.012114613455976359
1772699907223938300,6.030938232421875,0.07323182494938373,0.004027826177398674,0.003796856976348499
1772699907233896200,6.040896240234375,0.07532675140202046,0.010439309788052924,-0.010850544911978068
1772699907243853300,6.050853271484375,0.0760737703770399,-0.0012498356643132864,0.005191956319636665
1772699907253810400,6.060810546875,0.07846738751530646,0.014705036374554037,-0.010254622562153962
1772699907263767300,6.070767333984375,0.07382862179875374,0.0116581064267084,-0.002913150069043331
1772699907273725200,6.08072509765625,0.06380290234684943,0.007090305320825428,-0.006094753232368384
1772699907283682300,6.090682373046875,0.06933890916407108,0.004849992747860961,-0.0028666195008423528
1772699907293639400,6.100639404296875,0.07652034510076046,0.0004096950457431376,0.0013577441704532248
1772699907303596300,6.11059619140625,0.07741817072331905,0.006405190867185592,-0.003465647694027575
1772699907313553400,6.120553466796875,0.0693383246421814,0.006114646955393255,0.00005656904666975606
1772699907323511300,6.13051123046875,0.08594809865951537,-0.0034421672099735584,-0.006835849927499657
1772699907333468200,6.14046826171875,0.082356796169281,0.004368839901103638,-0.003954832864779746
1772699907343425300,6.15042529296875,0.08355448152124881,-0.004965152693283744,0.0011240878240947494
1772699907353382400,6.16038232421875,0.0783177499115467,-0.002570403043855913,0.010157322500407462
1772699907363340300,6.17034033203125,0.0766711517482996,0.0008167186437873169,-0.004677153221260232
1772699907373297200,6.180297119140625,0.07577274160385132,0.014846034014131874,-0.010200969845888903
1772699907383254300,6.190254150390625,0.06739362031519412,0.013367695956723763,-0.014011012528673745
1772699907393211400,6.20021142578125,0.085350132766366,-0.00295643408622127,-0.00498871737360605
1772699907403168300,6.210168212890625,0.06978723745346069,-0.005096925846789963,-0.004196014359645778
1772699907413126100,6.220126220703125,0.07367956871688365,0.004256597998552024,0.00012045603340375237
1772699907423083300,6.230083251953125,0.07353051563501357,0.004353194807399995,-0.01502545940137934
1772699907433040400,6.240040283203125,0.07787000614404678,0.0047808821675600485,-0.011153549871477297
1772699907442997200,6.249997314453125,0.09328267933130263,0.005683402231545187,0.0009509782986133359
1772699907452955100,6.259955078125,0.07023790383040905,-0.014386485644406638,-0.0005676158498361474
1772699907462912300,6.269912353515625,0.06799333977401256,-0.004099439242039807,0.0005370237779279705
1772699907472869400,6.279869384765625,0.08071312061548233,0.010194870040309615,-0.011226208682311698
1772699907482826200,6.289826171875,0.08310849131941794,0.004669092356157489,-0.0073635093679273265
1772699907492783400,6.299783447265625,0.08744739730656147,0.014929113754280842,0.0052150860334746535
1772699907502741200,6.3097412109375,0.09283493556380272,0.012457526875822805,-0.0037671570994731152
1772699907512698400,6.319698486328125,0.06709609867334365,0.006475191930052824,-0.004469851733931864
1772699907522655200,6.3296552734375,0.07323240947127342,0.003740309906331822,-0.0041100770837743765
1772699907532612400,6.3396123046875,0.07562661113142967,0.0006053637483157217,0.0068204811117204365
1772699907542570200,6.3495703125,0.07966682643294334,-0.005537166727846488,-0.004376245462369115
1772699907552527000,6.359527099609375,0.07802022826969623,-0.00899621657396201,0.007556398166590952
1772699907562484200,6.369484130859375,0.06664660134017467,0.009205562175437807,0.009545682562465662
1772699907572441300,6.37944140625,0.08071136704981327,0.00517037010891363,0.0020540647192858158
1772699907582398500,6.3893984375,0.08654664907455444,0.009849970159353688,0.005301695737848058
1772699907592356000,6.399356201171875,0.0799608409434557,0.01354400237170048,0.0007421644179776194
1772699907602313200,6.409313232421875,0.07591945659816264,0.0004829155455809086,-0.0031985517294262533
1772699907612270300,6.419270263671875,0.0705319183409214,0.013559547000704332,0.003289663508158992
1772699907622227200,6.429227294921875,0.07726619503200054,0.003912424203380942,-0.0025876618517999303
1772699907632185300,6.439185302734375,0.060656421014666555,0.006643187174410559,-0.004158031853259308
1772699907642142200,6.44914208984375,0.09193009567856789,-0.0009428292414871975,-0.005618885627971031
1772699907652099300,6.459099365234375,0.0805576377928257,0.012500037143565713,-0.0008086246709994156
1772699907662056200,6.46905615234375,0.05467091686427593,0.004031073013832792,-0.005333071548579028
1772699907672013300,6.479013427734375,0.0666413406431675,0.020184139072499236,0.0018479993473403736
1772699907681971200,6.48897119140625,0.07696633530259132,0.015625119494693352,-0.00754674613472307
1772699907691928300,6.49892822265625,0.0636480040460825,0.007948593517439439,-0.011167171971453354
1772699907701885200,6.50888525390625,0.08908639668524265,0.0012335329834837466,0.014203473210718947
1772699907711842300,6.51884228515625,0.06843757641017437,-0.00610604352382943,0.0061517703744320895
1772699907721799400,6.52879931640625,0.08938567189276218,-0.00010221369888167828,-0.005879480784427142
1772699907731757300,6.53875732421875,0.07531915261745452,-0.009178875097911805,0.0031625759483358703
1772699907741714200,6.548714111328125,0.07352233232855797,-0.0020131664533168075,-0.00041140009152877607
1772699907751671300,6.55867138671875,0.07546586761176585,0.011947362563712522,0.0002674824112022179
1772699907761628400,6.56862841796875,0.08040332401394844,0.0033512694895500316,0.006199501381631126
1772699907771586300,6.57858642578125,0.07666296844184398,0.015680087385210206,0.004418388976875576
1772699907781543200,6.588543212890625,0.06663666446805,0.005744101176527328,0.0033224680867511777
1772699907791500300,6.598500244140625,0.07022796695828437,0.0007810582419391721,-0.00030789262422622414
1772699907801457400,6.60845751953125,0.09072890319526195,0.0006903431846061721,-0.003492551683973579
1772699907811414300,6.618414306640625,0.0678343498200178,-0.0006211458393372594,-0.007906679188029375
1772699907821372200,6.6283720703125,0.06544073268175125,0.008921836163499392,-0.010503435949271079
1772699907831329300,6.638329345703125,0.08893383647203446,-0.016130447801481932,-0.007974857044924283
1772699907841286400,6.648286376953125,0.07681260604560375,-0.004058773871511221,0.023314203559421
1772699907851243300,6.6582431640625,0.07561550521552562,0.0007208707536105067,0.004316507781900873
1772699907861201400,6.668201416015625,0.07845803516507148,-0.0046251162171130995,0.0031135095026984345
1772699907871158300,6.678158203125,0.06708616180121899,0.0001564052712637931,0.0015728516507908352
1772699907881115100,6.688115234375,0.06454290705919265,0.01190324029419571,-0.0027151264396583427
1772699907891072300,6.698072265625,0.09042787442207335,0.013169638934242538,-0.0015712530633376445
1772699907901029400,6.708029296875,0.07755845597684383,0.01878540558994282,-0.002382430165616097
1772699907910987300,6.7179873046875,0.07067512620389461,0.007416377203725278,-0.0006551634150149767
1772699907920944000,6.727944091796875,0.07097557045519351,-0.0027394851336022836,0.0010538758424401748
1772699907930901200,6.7379013671875,0.09282324512600898,-0.005810764071415178,0.0018384101059098611
1772699907940858400,6.7478583984375,0.06349602835476398,0.0005983997179893776,0.0008263118809729348
1772699907950816500,6.75781640625,0.07875906393826007,-0.004605767629249021,-0.01196328051040764
1772699907960772900,6.76777294921875,0.07621464015245437,0.00007548552216030657,-0.0010852553635151707
1772699907970729500,6.7777294921875,0.08534311850368977,0.003927347777877003,-0.006562613343534758
1772699907980686600,6.7876865234375,0.08788695776760577,0.00541844941873569,-0.00945025365575275
1772699907990643700,6.797643798828125,0.06963117010891437,0.00348636254472658,-0.009098258455374162
1772699908000601900,6.807601806640625,0.09462123445868492,0.0035617887013824653,-0.012320692813064669
1772699908010558700,6.817558837890625,0.10090542929470539,0.004214274960476905,-0.013963568074197973
1772699908020515600,6.827515625,0.08444470835924148,0.0014285760649712755,0.009918520192295546
1772699908030472700,6.83747265625,0.09327215793728828,0.013379884151439182,-0.005255354682603502
1772699908040430800,6.847430908203125,0.07426701321601867,0.0005018257420277223,-0.011327123189962002
1772699908050387700,6.8573876953125,0.06723346131742,-0.00842455416584853,0.0003311036802217131
1772699908060344600,6.867344482421875,0.06828034002184867,-0.006080520923505537,-0.02740258940119529
1772699908070301700,6.8773017578125,0.0621446137458086,0.02317628835949581,-0.011754792283813003
1772699908080258600,6.887258544921875,0.07875497228503227,0.013231488656695,0.0026330510610961936
1772699908090216700,6.897216796875,0.08758417542874812,0.007592916514142416,0.011421507492125964
1772699908100173800,6.907173828125,0.0824964969009161,0.0019097654443467034,0.004732966213981854
1772699908110130700,6.917130615234375,0.08144903367459773,-0.0022408468625042584,-0.015767765668663194
1772699908120087600,6.927087646484375,0.08698504049181938,-0.003246105781756341,-0.003795049467985518
1772699908130045700,6.937045654296875,0.07366670923531055,0.006718179506226442,-0.010758063730888534
1772699908140002800,6.9470029296875,0.08354103751778602,0.002869879180775024,-0.01172333884126856
1772699908149959700,6.956959716796875,0.08264262737333775,-0.01036838627657853,0.016877064917702227
1772699908159916500,6.96691650390625,0.07725567363798617,0.0009687034682603552,0.0003256120856516645
1772699908169873700,6.976873779296875,0.06842588597238064,-0.009918245056015438,-0.01506243726076791
1772699908179831800,6.986831787109375,0.06199088448882103,-0.01469798101268243,-0.010879713924246607
1772699908189788700,6.99678857421875,0.06588029314279556,-0.0058721936687594276,0.0043439511987860896
1772699908199745500,7.00674560546875,0.08338730826079845,0.010570046328520401,0.0056824415378534466
1772699908209702700,7.01670263671875,0.08234042955636978,0.009387846240052022,-0.0008702614767869817
1772699908219659500,7.026659423828125,0.0778518859654665,0.007369199894019402,0.010398171776777598
1772699908229617700,7.03661767578125,0.06408464189767837,0.018126562655298037,0.013849554339668247
1772699908239574800,7.04657470703125,0.07395955470204353,-0.001641620594030246,0.0007540346647510887
1772699908249531600,7.05653173828125,0.06543079580962657,-0.01039002271965146,-0.00885608315913123
1772699908259488500,7.066488525390625,0.0691723204255104,0.014098937407298943,0.00679106150852458
1772699908269446700,7.07644677734375,0.07560732190907,-0.003946052478346973,0.013021725213399622
1772699908279403800,7.08640380859375,0.06752630678415299,0.009449339769477955,-0.015124130577949108
1772699908289360600,7.096360595703125,0.08338730826079845,0.006052870298177003,-0.011500401964213232
1772699908299317500,7.1063173828125,0.07051730529367924,0.006242218857817352,-0.013052378363278693
1772699908309274600,7.116274658203125,0.0729109224319458,0.007730219792714342,-0.006989453603612491
1772699908319232800,7.126232666015625,0.06572948649525642,0.002952004506275989,0.011434513104171491
1772699908329190000,7.13618994140625,0.07605506567656993,-0.00006039755088277161,0.00036371703339100345
1772699908339146500,7.146146484375,0.08129121276438235,0.01894037238936871,-0.009563546441897051
1772699908349103600,7.156103515625,0.07934709295928478,0.008118150531221181,-0.013892856908566318
1772699908359061800,7.166061767578125,0.08189093222320079,0.003051441726181656,-0.009359297140646958
1772699908369019000,7.176018798828125,0.07036766768991946,-0.0045619878530269485,-0.007456729763711337
1772699908378975700,7.185975830078125,0.08877367747426032,0.00863006384242326,-0.010676879120303783
1772699908388932600,7.1959326171875,0.07949556151926516,0.0009129775259178131,-0.012318106988689397
1772699908398889700,7.2058896484375,0.06752513774037361,0.009871711633703671,0.0025916125119547356
1772699908408847600,7.21584765625,0.07605506567656993,0.010952236879407428,0.0076184750762622565
1772699908418804700,7.2258046875,0.0688718761742115,-0.004226275925524533,-0.016649518080899723
1772699908428761600,7.23576171875,0.07231295653879642,-0.010143532578716986,-0.006450526704610092
1772699908438718700,7.24571875,0.07769991027414798,0.0028715962138259783,-0.00067284406053368
1772699908448675600,7.255675537109375,0.09430909976959229,0.00486766083529219,-0.006246409834100632
1772699908458633700,7.2656337890625,0.08248656002879143,-0.00889805342911277,0.00012632751011988147
1772699908468590800,7.2755908203125,0.07455518250763415,-0.009673627211758866,-0.017475900743820237
1772699908478547500,7.28554736328125,0.06542787320017815,-0.004970262693241238,-0.0028501695478960754
1772699908488504600,7.295504638671875,0.06048924775421619,-0.009402902245288714,0.014365867548063396
1772699908498462700,7.305462646484375,0.08458090195953845,-0.0012980632867896928,0.003207164864966762
1772699908508419800,7.315419921875,0.0703659141242504,-0.0015798804694321005,-0.009072416765464003
1772699908518376700,7.325376708984375,0.07964344555735588,0.008441368303331547,-0.007065286756466957
1772699908528333600,7.33533349609375,0.07979191411733627,0.011317005938035436,0.00810976058714441
1772699908538290700,7.345290771484375,0.0630330870181322,0.002436383134336211,0.0003468649362344877
1772699908548248800,7.355248779296875,0.07799743191599845,0.0074094816720578814,-0.0036291188873728967
1772699908558205700,7.365205810546875,0.08383329846262931,0.013746662504062987,-0.008658503343974007
1772699908568162600,7.37516259765625,0.07844634472727775,-0.007968914786260575,-0.0002302288447113824
1772699908578119700,7.38511962890625,0.08532967450022697,-0.006495791760087013,-0.002944757062748249
1772699908588077800,7.395077880859375,0.08428221127390861,0.002635476769856177,-0.00501358923666994
1772699908598034700,7.40503466796875,0.06812135006785393,-0.005468974029575475,-0.01278501439767424
1772699908607991800,7.41499169921875,0.06722293992340564,0.006000751951872371,-0.008317022687743883
1772699908617948700,7.42494873046875,0.06767126821279526,-0.003932197482930496,-0.0032008735485535
1772699908627905500,7.434905517578125,0.07874386636912822,0.005819445134792476,0.0012708068141611874
1772699908637863700,7.44486376953125,0.07096154192984104,0.009765438247635028,-0.0062472261097864246
1772699908647820800,7.45482080078125,0.0790413880109787,-0.002002202101307921,0.005762705412297509
1772699908657777700,7.464777587890625,0.07634732662141322,-0.018392821509204803,0.008312201523798284
1772699908667734500,7.474734619140625,0.07036240699291228,-0.006077689645602367,-0.009475216279539745
1772699908677692700,7.484692626953125,0.06961421897411346,-0.0005272889768471941,-0.0005098015546289389
1772699908687649800,7.49464990234375,0.07141045474112033,0.014526072211610152,-0.010357603446015854
1772699908697606700,7.504606689453125,0.07934066321849823,0.0070823549098102375,-0.00697106399697368
1772699908707563500,7.5145634765625,0.0747013129800558,-0.008101003033597953,-0.020776597673469222
1772699908717520600,7.524520751953125,0.08622340846955776,0.005527261821762658,-0.009387109879468334
1772699908727478800,7.534478759765625,0.09041326137483119,0.012857554477499797,0.004898711277393158
1772699908737435600,7.544435546875,0.10238543871939182,0.01167176505930256,-0.008289267031138296
1772699908747392800,7.554392822265625,0.08038812644481659,0.004413775021373294,0.01148430363771622
1772699908757349600,7.564349609375,0.08263327502310276,-0.00032611754867248235,0.008959287805279019
1772699908767306500,7.574306396484375,0.07544950099885463,-0.014680751316668465,-0.02308579021458281
1772699908777264600,7.5842646484375,0.0736556033194065,-0.0025180883347289637,-0.0033780747272627192
1772699908787221800,7.5942216796875,0.08039046453237533,-0.006999384767515584,0.015134403093502623
1772699908797178600,7.6041787109375,0.06662322046458721,0.0017652332739671692,-0.012841936783259733
1772699908807135500,7.614135498046875,0.06782032129466534,0.01567573087050114,-0.012313801847974537
1772699908817093600,7.62409375,0.08054010213613509,0.0036143728385679423,0.002621753919769253
1772699908827050800,7.63405078125,0.08263444406688213,0.018503035851451567,-0.00040824801157286853
1772699908837008000,7.6440078125,0.07634966470897198,-0.003611167101329192,-0.0002076371307572117
1772699908846964500,7.653964599609375,0.08428045770823955,0.006097138698166236,-0.0006834176847754861
1772699908856921600,7.663921630859375,0.062134676873683924,0.00785191451020073,-0.002803428060907754
1772699908866879700,7.673879638671875,0.08113865255117415,0.006458857283182442,-0.004608139680726163
1772699908876836900,7.6838369140625,0.07545359265208244,0.008864288156828843,0.017849120253673755
1772699908886793700,7.693793701171875,0.062434536603093144,-0.0029023018793435766,-0.0025334936831262894
1772699908896750600,7.70375048828125,0.06333177770376205,0.013045158604625611,-0.003895901185198454
1772699908906708700,7.713708740234375,0.07200958967804909,0.0038986057405825704,-0.011312098009121837
1772699908916665900,7.723665771484375,0.07575052977204322,-0.006519875888573006,-0.015051613331009865
1772699908926622700,7.733622802734375,0.07215864275991916,-0.006450587211758829,-0.0042005138653054015
1772699908936579600,7.74357958984375,0.08592647134959697,-0.0012462280682753772,0.009386444300832226
1772699908946536700,7.75353662109375,0.07904314157664775,0.013089472670387476,0.014531336333550278
1772699908956496400,7.763496337890625,0.08577566470205783,0.003979662487003952,-0.008578993525600527
1772699908966453500,7.77345361328125,0.06093523795604706,0.01616113976726774,0.0027320550269840167
1772699908976410600,7.78341064453125,0.06766717655956744,-0.0009526154165621847,-0.0009620157158584334
1772699908986367700,7.79336767578125,0.08218202412426472,0.010219415393099188,-0.01436105437562801
1772699908996325400,7.803325439453125,0.07739303628206252,-0.006847925099427811,-0.0005535085510258795
1772699909006282500,7.813282470703125,0.07200783611238003,-0.0026428426589816807,-0.005378939392254687
1772699909016239600,7.823239501953125,0.08876724773347378,-0.01743514632503502,0.005960607171151787
1772699909026196500,7.833196533203125,0.07065992863476275,-0.006632058425620198,0.009945929930673445
1772699909036153600,7.843153564453125,0.07215572015047073,0.0010254112247144803,-0.0039396595555896054
1772699909046111500,7.853111572265625,0.07814063977897166,-0.00036598833475727586,-0.0002928046529486892
1772699909056068600,7.863068603515625,0.08696867387890815,-0.00117841896249447,0.011646441105089615
1772699909066025500,7.873025390625,0.08412497488558292,0.0005114703532075509,0.005385020931524923
1772699909075982600,7.882982666015625,0.07395020235180855,0.005987339914450421,0.009837949786352692
1772699909085939700,7.892939697265625,0.07320259885489941,-0.004870040022046305,-0.008396893265721154
1772699909095897600,7.902897705078125,0.0800865131497383,0.010939322598907165,0.0047220363967135194
1772699909105854500,7.9128544921875,0.07933774060904979,-0.01014300742233172,-0.008525700427294941
1772699909115811600,7.9228115234375,0.07424889303743838,-0.008149308287887834,-0.006889145879916032
1772699909125768700,7.932768798828125,0.07335165193676949,0.0028069791455520316,-0.002439191293941985
1772699909135726600,7.9427265625,0.07709259203076362,0.008090052381320855,-0.005869274484243942
1772699909145683500,7.952683349609375,0.06961129636466502,0.007215648733545094,0.0002349381275140331
1772699909155640600,7.962640625,0.06841361101269722,0.012968339641904457,0.005554140695533715
1772699909165597700,7.97259765625,0.07604395976066589,-0.0019791728521697223,0.002930906063086877
1772699909175554600,7.982554443359375,0.07619359736442566,-0.008525671886187046,0.000935978804770275
1772699909185512400,7.992512451171875,0.08576981948316097,0.00007837159899063408,-0.004096167860252899
1772699909195469600,8.002469482421875,0.0787356830626726,-0.0011503208125941454,0.0016907683818251824
1772699909205426700,8.0124267578125,0.0814291599303484,-0.004573545860080048,0.005347117198596242
1772699909215383600,8.022383544921874,0.08771510833203792,-0.005332469902024604,0.0009112105459280428
1772699909225340700,8.032340576171874,0.07155424712598324,-0.005497387273306958,-0.00733225742560462
1772699909235298600,8.042298583984374,0.07888707423210144,-0.0009336960869608447,-0.013445469334092922
1772699909245255700,8.052255615234374,0.07454816824495791,-0.011344222738523967,-0.0047194043357434564
1772699909255212500,8.062212646484374,0.0769412008613348,-0.009205977733968756,-0.0035586003742195315
1772699909265169700,8.072169677734376,0.06736380969882011,0.005989006715151481,0.0036685781106818465
1772699909275127600,8.08212744140625,0.06616670886874199,0.008830477218772285,0.004252920476799773
1772699909285084400,8.09208447265625,0.07499708105623722,-0.0014506189334206282,0.0030297253680066204
1772699909295041500,8.10204150390625,0.09011106355786323,0.0041532380887772885,0.015861063125438522
1772699909304998700,8.11199853515625,0.06646832216382026,0.002834739368734881,0.004038565054655191
1772699909314955800,8.121955810546876,0.06841361101269722,-0.01052285988566,0.0038177973017998737
1772699909324913400,8.131913330078126,0.07574585359692573,0.00853069512117654,0.00183129594935599
1772699909334870500,8.14187060546875,0.08083528569042682,0.007217936588753946,-0.005735430387948872
1772699909344827600,8.15182763671875,0.0833802939981222,-0.0007041525142500177,-0.01446161154860747
1772699909354784500,8.161784423828125,0.09235796570181846,0.0037663804959272964,-0.0004255875908522284
1772699909364742400,8.171742431640626,0.07380114926993847,0.003358603412634693,-0.005797295522599597
1772699909374699500,8.181699462890625,0.07933540252149104,0.005866065322072245,-0.024973314144369214
1772699909384656600,8.19165673828125,0.07948328655958176,0.008825974573590792,0.00010519909876747988
1772699909394613500,8.201613525390625,0.08322481117546558,0.013041039551934227,-0.006807228904502699
1772699909404570600,8.211570556640625,0.07933481799960136,0.0032357944502960888,0.007570619059010641
1772699909414528500,8.221528564453125,0.07783902648389339,-0.007260177428438328,0.008854564772191225
1772699909424485600,8.231485595703125,0.065717211535573,-0.012984021268226205,0.0007972938511651591
1772699909434442500,8.2414423828125,0.0643710576236248,-0.01304334567345213,-0.015105762662552296
1772699909444399600,8.251399658203125,0.07350012049674988,-0.0065861049586208534,-0.008842084316530963
1772699909454357500,8.261357421875,0.07604454428255558,0.013203618835657835,0.0021465841454599284
1772699909464314600,8.271314697265625,0.08173135774731635,0.008064000058034435,-0.00044848926123813724
1772699909474271500,8.281271484375,0.0916068550735712,0.006031115124095231,-0.011212034026486798
1772699909484228600,8.291228515625,0.09669336455762385,0.0023208715624641624,-0.004772425722701882
1772699909494185700,8.301185791015625,0.08442308104932307,0.0016795916839735582,-0.0022411745144228917
1772699909504143400,8.311143310546875,0.08098200068473815,0.012213201292511074,-0.014699531365663277
1772699909514100500,8.3211005859375,0.07649228805005549,0.015800457795290275,-0.010855409458407666
1772699909524057600,8.3310576171875,0.08113163828849793,-0.004356532975379378,0.000579977289076487
1772699909534014700,8.3410146484375,0.07365034262239932,-0.002515257056825794,-0.012176627575210295
1772699909543971600,8.3509716796875,0.08502221598625183,0.010013786985515616,0.005437787160978769
1772699909553929500,8.360929443359375,0.07439736159741878,0.006468154834490269,0.006819157375136274
1772699909563886600,8.370886474609375,0.07080722815096378,0.013634032442444004,-0.000350001603992132
1772699909573843500,8.380843505859374,0.084274027967453,0.008982110416796057,0.016876635659439487
1772699909583800600,8.390800537109374,0.08951134409904479,-0.006903162418003194,0.013845119051501388
1772699909593758500,8.400758544921874,0.08382394611239433,0.007774451660085469,-0.00456468013573467
1772699909603715600,8.410715576171874,0.07020750869214534,0.005406667649396695,-0.009488997638897854
1772699909613672400,8.42067236328125,0.07619301284253596,-0.0030916184729430822,0.0001660518803211744
1772699909623629600,8.430629638671874,0.0790367118358612,-0.007478829714376479,-0.005446428837627172
1772699909633586700,8.440586669921874,0.0788888277977705,-0.008024672694643959,-0.005075268854119349
1772699909643544600,8.450544677734374,0.0592863017052412,-0.006220038992050103,-0.010199204863776686
1772699909653501400,8.46050146484375,0.0841261439293623,0.004813067404110916,-0.0021470211098217986
1772699909663458600,8.47045849609375,0.07215572015047073,0.001955823942623101,-0.004110271163308061
1772699909673415700,8.480415771484376,0.06976151849031448,0.018231543700001202,-0.008046629939769626
1772699909683373600,8.49037353515625,0.0862216549038887,0.0026406461353180926,0.000562910562788602
1772699909693330400,8.500330322265626,0.07619535093009472,0.0026358009968418627,0.0049250296038051596
1772699909703287600,8.51028759765625,0.07649579518139361,0.00025023016771301627,-0.00011848355743713909
1772699909713244700,8.52024462890625,0.07350362762808799,-0.003435344743542373,-0.002140281698014587
1772699909723201500,8.530201416015625,0.08143617419302462,0.00604849551715888,0.0036671995751705252
1772699909733159400,8.540159423828126,0.07185936755239963,0.001879781298036687,-0.007275451487739337
1772699909743116500,8.550116455078125,0.07874211280345916,0.009459993594232946,-0.017708853266458026
1772699909753073700,8.56007373046875,0.06886661547720432,-0.0012365697573637588,-0.009612786702881567
1772699909763030500,8.570030517578125,0.07425590730011462,-0.008171095428010448,-0.0010564987702557118
1772699909772987600,8.579987548828125,0.08712532574534415,-0.005252239706087857,0.0013960971404201699
1772699909782945500,8.589945556640625,0.07440671394765376,0.000547706143790856,0.004171878571754496
1772699909792902700,8.599902587890625,0.07485562675893306,0.001879292674269527,0.005379423449444584
1772699909802859500,8.609859619140625,0.08069090878367424,0.0017861527644097803,0.014630141082504997
1772699909812816600,8.619816650390625,0.06752221513092517,0.005042999135889113,0.005161045158142224
1772699909822774500,8.6297744140625,0.08637538416087627,0.017768195937993003,0.00009656712609576061
1772699909832731400,8.6397314453125,0.09250994139313698,0.0008951861409004777,-0.008095864492532565
1772699909842688500,8.6496884765625,0.06826806506216526,-0.015319053786783478,-0.008979661018916521
1772699909852645600,8.659645751953125,0.07560030764639378,-0.0026061730435583737,-0.0007941677436174359
1772699909862602800,8.669602783203125,0.0702139384329319,0.01165219727572985,0.0038908242929261176
1772699909872560400,8.679560302734375,0.06961480349600314,0.006205791270988993,-0.00788394448312465
1772699909882517500,8.689517578125,0.07739595889151096,0.0016652891639852895,0.0047808410683646795
1772699909892474600,8.699474609375,0.0744014532506466,0.008814777326141483,-0.002107848011119495
1772699909902431500,8.709431396484375,0.0697609339684248,-0.006418575505143962,0.017453877283324253
1772699909912388600,8.719388671875,0.06781564511954784,-0.009958120408677495,0.0019104492892918642
1772699909922346500,8.729346435546875,0.08098258520662784,-0.0027986725415103135,-0.00130432891620585
1772699909932303600,8.7393037109375,0.0669154814094305,0.011696945166331716,0.008176370395571574
1772699909942260500,8.749260498046874,0.0709545276671648,-0.008644781920942477,0.009011641330312703
1772699909952217600,8.759217529296874,0.07544307125806808,-0.0051539075978798785,-0.017028652449953368
1772699909962174000,8.769174072265624,0.07274842534661292,0.01096003202679567,0.0028389397635837665
1772699909972131000,8.779131103515626,0.07259761869907379,0.003977598394080996,-0.005006411718856543
1772699909982088000,8.789087890625,0.08142799088656902,0.00790374059556052,0.00844242318267934
1772699909992044800,8.799044921875,0.08292378240227699,-0.013822011028905398,0.010840354594815289
1772699910002002000,8.809001953125,0.07888181353509426,0.021380614281492308,0.007968387346586678
1772699910011960000,8.8189599609375,0.06960252853631974,0.008103377653774805,-0.007441638367500854
1772699910021917000,8.8289169921875,0.08172258991897105,0.00807034760043025,-0.012657376279879826
1772699910031874000,8.8388740234375,0.07214636780023574,0.003356890946161002,0.0015148351418341917
1772699910041831000,8.848830810546875,0.06765840873122216,0.003919822058547288,-0.008861839329771463
1772699910051787800,8.858787841796875,0.06960194401443004,-0.007630905870394781,-0.004963045217876788
1772699910061746000,8.868745849609375,0.07259528061151505,-0.0028271131847053764,0.003831796144400141
1772699910071703000,8.878703125,0.055984922072291374,-0.0016462648031068965,-0.0049763990314386315
1772699910081660200,8.88866015625,0.071547232863307,-0.0035897955197375267,0.007443917660377337
1772699910091616800,8.89861669921875,0.06720715783238411,0.0006266850975574926,0.001541493107430142
1772699910101575000,8.908574951171875,0.07259469608962535,-0.011522574980114586,-0.0006740369361381453
1772699910111532000,8.918531982421875,0.07543839508295058,0.010676867703860626,0.015118852756277192
1772699910121489000,8.928489013671875,0.071547232863307,-0.003343364744307473,-0.010354298385721631
1772699910131445800,8.93844580078125,0.08067454217076302,0.0032225057104602454,-0.026859584548696875
1772699910141403000,8.94840283203125,0.07229483636021614,0.005607985208043828,-0.017319014840299494
1772699910151361000,8.958361083984375,0.06930325332880019,-0.006363073325087316,0.009174004272438469
1772699910161318000,8.96831787109375,0.07588730789422989,0.005849634777079336,0.005959950154848047
1772699910171275000,8.97827490234375,0.08546294549107551,-0.007006147868442348,0.01203579547405825
1772699910181231900,8.98823193359375,0.08621113350987433,0.0029143256772775203,0.004425200597685762
1772699910191190000,8.99818994140625,0.07783142769932747,0.005142281092167832,0.0028616970159637276
1772699910201147000,9.00814697265625,0.07049860059320927,0.008786053555156104,-0.0014572595929945235
1772699910211104000,9.01810400390625,0.07109715100824833,-0.003767554106283933,0.009310222418088232
1772699910221060900,9.028060791015625,0.08935352318882941,-0.0008166136125102639,0.006693556521623395
1772699910231017700,9.038017822265624,0.07573767029047011,0.009765821840125135,0.0014828970712776935
1772699910240976000,9.047975830078125,0.08142389923334122,0.001733217000775039,-0.004357748826575698
1772699910250933000,9.05793310546875,0.07873100688755512,-0.005377656184043735,-0.001189237754853093
1772699910260890000,9.06789013671875,0.07139993334710598,-0.013178347397083416,-0.007858953889051917
1772699910270846700,9.0778466796875,0.07633797427117824,0.008790556200337595,0.011745260695420437
1772699910280803800,9.087803955078124,0.08995324264764785,0.0000773395525291562,-0.018915703738993032
1772699910290762000,9.097761962890624,0.07663491139113902,0.008819124707696028,-0.00010053191409897408
1772699910300719000,9.107718994140624,0.06331541109085083,0.010374770351592452,-0.0059220932293363145
1772699910310676000,9.117676025390624,0.08965104483067989,0.010022020524321123,0.012938677439291495
1772699910320632800,9.1276328125,0.08112228593826293,-0.0025090830443659797,-0.0036539856130373663
1772699910330591000,9.137591064453124,0.0676560706436634,-0.011951993073057382,0.01472566246240749
1772699910340548000,9.147548095703126,0.07304302437901497,-0.0010306262559490278,0.00988790585832321
1772699910350505000,9.1575048828125,0.07977554750442505,-0.005482774226064794,0.013855875624244798
1772699910360461800,9.1674619140625,0.07827800242304801,-0.005187554139154963,0.010229005205351858
1772699910370419000,9.1774189453125,0.08172025183141231,-0.0030551589200738818,0.014655860045651206
1772699910380376800,9.187376953125,0.06855097365677357,-0.006749259631079621,0.006129129284361261
1772699910390334000,9.197333984375,0.07019698729813098,0.0026318828735500573,-0.003878051861732092
1772699910400291000,9.207291015625,0.07573416315913199,0.006192406633030623,0.006298326680183527
1772699910410248000,9.217248046875,0.07139525717198848,0.0002690627323463559,0.011692933428206015
1772699910420204800,9.227204833984375,0.08351765664219855,0.0069128892275737595,-0.004290661810824531
1772699910430163000,9.237162841796875,0.07887830640375613,0.008674839132488704,0.0069830889365519394
1772699910440120000,9.2471201171875,0.06660919193923473,0.0035365537954261525,-0.0024463003130964353
1772699910450077000,9.257076904296875,0.07334288410842418,-0.01111488009521272,-0.0010283837811017292
1772699910460033800,9.26703369140625,0.06945172188878058,-0.004174477239628322,0.006466324778652051
1772699910469992000,9.276991943359375,0.06197101074457168,-0.004742764947144314,0.0025131301734654696
1772699910479949000,9.286948974609375,0.0754378105610609,-0.012791476104501634,-0.012960763690224848
1772699910489906000,9.296906005859375,0.06735679543614387,-0.001338856521481648,0.009429560781706823
1772699910499862800,9.30686279296875,0.07364099027216434,0.00024264964945614335,0.009200079428611205
1772699910509820000,9.31681982421875,0.08561199857294559,0.002052393352007493,0.019167479693109633
1772699910519778000,9.326778076171875,0.08456336630284786,-0.0032128336998168377,-0.0023699063274718354
1772699910529735000,9.33673486328125,0.0643622897952795,-0.008167716160835697,-0.018548217566893434
1772699910539692000,9.346692138671875,0.06467383996248245,0.007778360650222748,-0.020288521895580922
1772699910549649000,9.35664892578125,0.08427987318634986,0.0007127331129275262,0.002401610646354675
1772699910559605800,9.366605712890625,0.061979194051027295,0.014083904234948567,0.0196732623743359
1772699910569564000,9.37656396484375,0.11539455789625644,-0.008494820090197027,0.005939218464895384
1772699910579521000,9.38652099609375,0.07842997811436653,-0.03575586157925427,-0.0072745530136628074
1772699910589478000,9.396477783203125,0.03682897070348263,0.008921886395849288,-0.016769855383294632
