time,seconds_elapsed,z,y,x
1772699901269519400,0.076519287109375,-0.003917656373232603,0.0017883433029055595,-0.001390296733006835
1772699901279476500,0.0864765625,-0.00009362353011965752,-0.000651216134428978,0.00004059169441461563
1772699901289433300,0.096433349609375,-0.0006536863511428237,0.001572523731738329,-0.0016885988879948854
1772699901299390200,0.10639013671875,0.0006797579117119312,0.0027418830431997776,0.00043055787682533264
1772699901309347300,0.116347412109375,0.0003660377115011215,-0.0005697575397789478,-0.002191324485465884
1772699901319305500,0.126305419921875,-0.0020103007555007935,0.00017304951325058937,0.0024267444387078285
1772699901329262300,0.136262451171875,-0.002092592418193817,0.0008132737129926682,0.0012988955713808537
1772699901339219500,0.146219482421875,0.0004800213500857353,0.00032747862860560417,-0.004743471276015043
1772699901349176300,0.15617626953125,-0.0016521053621545434,-0.0032962847035378218,-0.0015106599312275648
1772699901359133200,0.16613330078125,0.0020808472763746977,0.0014860918745398521,0.0002040984109044075
1772699901369091300,0.17609130859375,-0.0008678045123815536,-0.0010130186565220356,0.00023286044597625732
1772699901379048400,0.18604833984375,0.002085374668240547,-0.00022962037473917007,-0.0017682670149952173
1772699901389005300,0.19600537109375,0.001078699715435505,0.00039462465792894363,-0.00033255666494369507
1772699901398962200,0.205962158203125,0.0010115874465554953,0.0012141200713813305,-0.0022721542045474052
1772699901408920300,0.21592041015625,0.0009559274185448885,0.00015205144882202148,0.0001862100325524807
1772699901418877400,0.22587744140625,0.0006105159409344196,0.001212146133184433,0.0004042326472699642
1772699901428834300,0.235834228515625,-0.00008297106251120567,-0.001931715290993452,0.000177064910531044
1772699901438791200,0.245791259765625,0.0005524589214473963,-0.0024009994231164455,0.00547843286767602
1772699901448748300,0.255748291015625,0.0024012255016714334,-0.00021720724180340767,-0.0012620282359421253
1772699901458706400,0.26570654296875,-0.0001479519996792078,0.0020258286967873573,-0.005810186266899109
1772699901468663300,0.275663330078125,-0.00190989940892905,-0.00042667658999562263,-0.0008812076412141323
1772699901478620400,0.285620361328125,0.0006395450327545404,0.00001279730349779129,0.000990609172731638
1772699901488577300,0.295577392578125,-0.0002949582412838936,-0.0011416831985116005,-0.00010288506746292114
1772699901498535400,0.305535400390625,-0.00029069744050502777,-0.0010040849447250366,-0.0030295003671199083
1772699901508492300,0.3154921875,-0.001960233086720109,0.002572274301201105,-0.0013341321609914303
1772699901518449400,0.325449462890625,-0.001831602188758552,-0.001011368352919817,-0.0015188194811344147
1772699901528406300,0.33540625,0.0009751033503562212,-0.00005156500265002251,-0.0005877783987671137
1772699901538364400,0.345364501953125,-0.00015194714069366455,-0.0010422891937196255,-0.0003024125471711159
1772699901548321300,0.3553212890625,0.00001423410139977932,0.0009625386446714401,-0.002932017669081688
1772699901558278400,0.3652783203125,0.001015316927805543,0.0008365130051970482,0.0007964647375047207
1772699901568235500,0.375235595703125,-0.00028856657445430756,-0.0034889932721853256,-0.0013681529089808464
1772699901578192100,0.385192138671875,-0.0008864470291882753,0.004474750254303217,-0.0016585728153586388
1772699901588150300,0.395150390625,-0.002349055139347911,0.0021095960400998592,-0.0038913669995963573
1772699901598107400,0.405107421875,0.00146326026879251,-0.0013286028988659382,-0.0006292047910392284
1772699901608064500,0.415064453125,-0.0009660751093178988,-0.0021166326478123665,0.0014406037516891956
1772699901618021400,0.425021484375,0.002800167538225651,-0.0003182338550686836,0.00003000674769282341
1772699901627979300,0.434979248046875,0.0008283630013465881,-0.003377406857907772,0.002248419914394617
1772699901637936400,0.444936279296875,0.0014797716867178679,-0.00022860663011670113,-0.00202940427698195
1772699901647893200,0.454893310546875,-0.001370609737932682,-0.0005484526045620441,-0.0006365708541125059
1772699901657850400,0.464850341796875,-0.0006243912503123283,-0.00016297167167067528,0.0020979512482881546
1772699901667807200,0.47480712890625,0.0004371446557343006,0.0011949744075536728,-0.0010227407328784466
1772699901677765400,0.484765380859375,0.00162624497897923,-0.0008592018857598305,0.0009125727228820324
1772699901687722200,0.49472216796875,0.0006315542850643396,0.0014681345783174038,-0.002468310296535492
1772699901697679400,0.504679443359375,0.00015990948304533958,-0.0007952237501740456,0.0004921052604913712
1772699901707636500,0.514636474609375,0.0006627142429351807,-0.00010519847273826599,0.002391471993178129
1772699901717594400,0.524594482421875,-0.0011748673859983683,0.00009882356971502304,-0.0020461305975914
1772699901727551200,0.53455126953125,-0.003884633770212531,-0.0009158407337963581,-0.001530276145786047
1772699901737508400,0.54450830078125,-0.00059083616361022,-0.0003692740574479103,-0.001177605940029025
1772699901747465500,0.554465576171875,0.00040918076410889626,0.0007662978023290634,0.0024847732856869698
1772699901757422300,0.56442236328125,-0.0010110825533047318,-0.0007579736411571503,0.0018165744841098785
1772699901767380200,0.574380126953125,0.0006699047517031431,0.0008140900172293186,0.002222706563770771
1772699901777337300,0.58433740234375,0.0006685727275907993,-0.0010478817857801914,0.003493657335639
1772699901787294500,0.59429443359375,-0.000766338431276381,0.0011263228952884674,-0.001617481466382742
1772699901797251300,0.604251220703125,-0.0008414398180320859,0.0009091710671782494,-0.0011218946892768145
1772699901807209200,0.614209228515625,0.0011527352035045624,-0.0024176498409360647,-0.002695024013519287
1772699901817166300,0.624166259765625,-0.0014751125127077103,-0.0016407417133450508,-0.001942153787240386
1772699901827123500,0.63412353515625,0.0007342458702623844,-0.001946206670254469,0.0015050419606268406
1772699901837080300,0.644080322265625,0.001006358303129673,-0.003034638473764062,0.0036133481189608574
1772699901847038200,0.6540380859375,0.0006335156504064798,0.00001521361991763115,0.0025715194642543793
1772699901856995300,0.663995361328125,0.0019506223034113646,-0.0003602243959903717,0.0007004081271588802
1772699901866952400,0.673952392578125,0.0009271698072552681,0.000513558741658926,0.0006532701663672924
1772699901876909300,0.683909423828125,-0.0024201495107263327,0.00013889698311686516,0.0024304664693772793
1772699901886866400,0.693866455078125,-0.000020108651369810104,0.0010544918477535248,0.0002229725942015648
1772699901896824300,0.70382421875,-0.0018166778609156609,-0.0011912244372069836,-0.0014206795021891594
1772699901906781200,0.71378125,-0.00048216781578958035,0.001710290089249611,0.00254636537283659
1772699901916738300,0.72373828125,-0.001671292819082737,0.0011107353493571281,0.0016380161978304386
1772699901926695400,0.7336953125,0.0020645896438509226,0.0005059316754341125,-0.0027034690137952566
1772699901936653300,0.7436533203125,-0.0006474478868767619,-0.0018381094560027122,0.0003066682256758213
1772699901946610000,0.75360986328125,0.0007640274707227945,-0.0031656953506171703,-0.0014510180335491896
1772699901956566800,0.76356689453125,-0.0009680703515186906,0.002113932278007269,0.000841120257973671
1772699901966524000,0.77352392578125,-0.00022158632054924965,0.0013043307699263096,-0.0019064631778746843
1772699901976481000,0.78348095703125,0.0000710685271769762,0.0003313254565000534,0.002523091621696949
1772699901986439000,0.79343896484375,-0.0002602287568151951,-0.0015997327864170074,0.0004865722730755806
1772699901996395800,0.803395751953125,0.003102013375610113,0.0002180025912821293,0.0035363463684916496
1772699902006353000,0.813352783203125,-0.0007672931533306837,0.0013154912739992142,-0.0021140826866030693
1772699902016310000,0.82331005859375,-0.00004097446799278259,-0.0020056557841598988,-0.00031543103978037834
1772699902026268000,0.833267822265625,0.002391823334619403,-0.00007406482473015785,0.0018537137657403946
1772699902036224800,0.843224853515625,-0.0010391215328127146,-0.00032984232529997826,0.003148818388581276
1772699902046182000,0.853181884765625,0.0030128781218081713,0.0026089558377861977,0.0004848586395382881
1772699902056139000,0.863138916015625,-0.0007158517837524414,0.001269953791052103,0.00023655965924263
1772699902066097000,0.873096923828125,-0.0004615199286490679,-0.004977023229002953,0.004825185984373093
1772699902076053800,0.8830537109375,0.0012758085504174232,0.0013019461184740067,-0.00046939728781580925
1772699902086011000,0.893010986328125,-0.0006693642353639007,0.00030698906630277634,-0.0011261329054832458
1772699902095968000,0.902968017578125,0.000776870409026742,0.0003547016531229019,-0.00003080395981669426
1772699902105924900,0.9129248046875,-0.0015038606943562627,-0.0008333344012498856,0.0013958518393337727
1772699902115882800,0.9228828125,0.0007666023448109627,0.0009945239871740341,-0.001089388970285654
1772699902125840000,0.93283984375,0.0015168148092925549,-0.0014955317601561546,0.002731714863330126
1772699902135797000,0.942796875,-0.00006261607632040977,-0.0006702030077576637,0.001501311082392931
1772699902145753900,0.95275390625,0.0000015660189092159271,-0.0013069650158286095,0.001784138847142458
1772699902155712000,0.9627119140625,-0.00074615771882236,0.0013661542907357216,0.0013680369593203068
1772699902165668900,0.9726689453125,-0.005183250643312931,0.0014513754285871983,0.0005954541265964508
1772699902175626000,0.9826259765625,-0.00041722506284713745,-0.0008960082195699215,-0.0015961294993758202
1772699902185582800,0.992582763671875,-0.0014721032930538058,0.0027123084291815758,-0.0008965171873569489
1772699902195540000,1.0025400390625,0.0024686369579285383,-0.0022339981514960527,0.0027501126751303673
1772699902205497900,1.012497802734375,0.0016822058241814375,-0.0012707328423857689,0.0008952212519943714
1772699902215454700,1.022454833984375,0.001893064472824335,-0.0014550518244504929,-0.0005731720011681318
1772699902225411800,1.032411865234375,-0.0002491823397576809,-0.0013181655667722225,0.003645807970315218
1772699902235369000,1.042368896484375,0.0003875361289829016,-0.00017213355749845505,0.00013012485578656197
1772699902245327000,1.0523271484375,0.0007846136577427387,-0.0009111608378589153,0.0016830144450068474
1772699902255283700,1.06228369140625,-0.0012960003223270178,0.00005641765892505646,0.0003024805337190628
1772699902265240800,1.07224072265625,0.0021221667993813753,0.0038442318327724934,-0.000563046894967556
1772699902275198000,1.082197998046875,0.0010401047766208649,0.0005474379286170006,-0.0023467373102903366
1772699902285156000,1.092156005859375,0.0007929634302854538,-0.0012209010310471058,-0.0025195765774697065
1772699902295113000,1.102113037109375,-0.001592257060110569,0.0015250365249812603,-0.0009010627400130033
1772699902305069800,1.11206982421875,0.0006602446082979441,0.0015878868289291859,-0.001284025376662612
1772699902315027000,1.12202685546875,0.000774650601670146,-0.001102694310247898,-0.001040719449520111
1772699902324983800,1.13198388671875,0.0002441487740725279,-0.0004899012856185436,0.001330825500190258
1772699902334942000,1.14194189453125,-0.0014980460982769728,0.0013881451450288296,0.004643412306904793
1772699902344898800,1.15189892578125,-0.0009326570434495807,0.001060043927282095,0.000896344892680645
1772699902354856000,1.16185595703125,-0.000553131802007556,-0.0001267031766474247,0.00041932379826903343
1772699902364812800,1.171812744140625,-0.0003976032603532076,0.0008631939999759197,0.0003527449443936348
1772699902374771000,1.18177099609375,0.0012187818065285683,0.0005518244579434395,-0.000655831303447485
1772699902384728000,1.19172802734375,-0.001995653612539172,0.0018176245503127575,0.0005796090699732304
1772699902394685000,1.201684814453125,-0.0014772097347304225,-0.0012325416319072247,0.002452859655022621
1772699902404641800,1.211641845703125,0.00017235218547284603,0.0010452601127326488,0.0006485679186880589
1772699902414599000,1.221598876953125,-0.0002736845053732395,0.0006147092208266258,0.0011784220114350319
1772699902424557000,1.23155712890625,-0.0018942180322483182,0.0014256415888667107,-0.0016405342612415552
1772699902434514000,1.241513916015625,0.0018275787588208914,0.00005398876965045929,0.0000632191076874733
1772699902444470800,1.251470703125,-0.0006765917642042041,0.0010915566235780716,-0.0029876981861889362
1772699902454428000,1.261427978515625,0.0017976912204176188,-0.004312708042562008,0.00236278073862195
1772699902464386000,1.271385986328125,-0.0012518946314230561,0.0011995029635727406,-0.0037552991416305304
1772699902474343000,1.281343017578125,0.0011952854692935944,-0.0007014903239905834,-0.0005041011609137058
1772699902484299800,1.2912998046875,0.0013124647084623575,0.001097741536796093,-0.0017094479408115149
1772699902494257000,1.3012568359375,0.0002665745560079813,0.0014907633885741234,-0.00040565524250268936
1772699902504215000,1.311215087890625,0.0004532621242105961,0.0012468178756535053,-0.0015976859722286463
1772699902514172000,1.321171875,-0.00045587681233882904,-0.000818000640720129,-0.0008839699439704418
1772699902524129000,1.33112890625,-0.0011272596893832088,-0.0022505149245262146,0.0013807821087539196
1772699902534086000,1.3410859375,-0.0008528148755431175,0.0022616409696638584,0.0013557318598031998
1772699902544042800,1.351042724609375,-0.0007878337055444717,0.00012871483340859413,0.001069176010787487
1772699902554001000,1.3610009765625,-0.0010502025252208114,-0.0007322416640818119,0.0002643284387886524
1772699902563958000,1.3709580078125,0.0014515710063278675,-0.0005799089558422565,0.0011053546331822872
1772699902573915000,1.380914794921875,0.00007292162626981735,-0.0013299155980348587,0.00017578992992639542
1772699902583871700,1.390871826171875,-0.0007156404899433255,0.0038736346177756786,-0.002202412812039256
1772699902593830000,1.400829833984375,-0.0010361992754042149,0.000033875927329063416,-0.0018541619647294283
1772699902603787000,1.410787109375,-0.0008889264427125454,-0.0003530816175043583,-0.00031165918335318565
1772699902613744000,1.420744140625,-0.0012667279224842787,-0.0007980484515428543,-0.0011942442506551743
1772699902623700700,1.43070068359375,0.0017953747883439064,-0.0009557073935866356,0.00021909549832344055
1772699902633657900,1.440657958984375,-0.0016351006925106049,-0.0004615006037056446,-0.0004167519509792328
1772699902643616000,1.450615966796875,-0.0006577206077054143,0.0007696789689362049,-0.0007347334176301956
1772699902653573000,1.460572998046875,-0.0019551487639546394,0.0014014970511198044,-0.0019205943681299686
1772699902663530000,1.470530029296875,0.000592963770031929,0.000430242158472538,-0.0013629286549985409
1772699902673486800,1.48048681640625,0.000736570917069912,-0.00002783816307783127,-0.002654657931998372
1772699902683445000,1.490445068359375,-0.0017428320134058595,0.0024768649600446224,-0.003757739206776023
1772699902693401900,1.50040185546875,-0.0009580819169059396,0.0004708552733063698,-0.003473084419965744
1772699902703359000,1.51035888671875,0.0009378225076943636,-0.0012934887781739235,0.001006884966045618
1772699902713315800,1.52031591796875,-0.0005047041922807693,-0.00031912513077259064,-0.003512671682983637
1772699902723273000,1.53027294921875,-0.0009678278584033251,-0.00011352915316820145,-0.0016926673706620932
1772699902733230800,1.54023095703125,0.0008401486556977034,0.0006000497378408909,-0.00009099859744310379
1772699902743188000,1.55018798828125,0.0028380523435771465,-0.0003456389531493187,0.0043634045869112015
1772699902753145000,1.56014501953125,0.0010493192821741104,-0.002393777947872877,0.0036800382658839226
1772699902763101700,1.570101806640625,-0.0006649575661867857,-0.0002683093771338463,0.0013641533441841602
1772699902773059800,1.580059814453125,0.0001264421734958887,0.0013769036158919334,0.0009969938546419144
1772699902783017000,1.590016845703125,-0.0006775662768632174,-0.0032466102857142687,-0.0022275615483522415
1772699902792974000,1.59997412109375,-0.002676994539797306,-0.0002667829394340515,-0.00079323910176754
1772699902802931000,1.609930908203125,0.00024316157214343548,0.000882370863109827,-0.00019615842029452324
1772699902812888800,1.619888916015625,-0.0013351551024243236,0.0008377502672374249,-0.0013637177180498838
1772699902822846000,1.629845947265625,0.0005378460045903921,-0.001436323393136263,-0.0021245828829705715
1772699902832803000,1.639802978515625,0.00021071289665997028,-0.0005361423827707767,-0.0027341681998223066
1772699902842760000,1.649760009765625,-0.0017738747410476208,0.0017752149142324924,0.0022318284027278423
1772699902852716800,1.659716796875,-0.0006489676889032125,-0.0010953224264085293,-0.000569559633731842
1772699902862675000,1.669675048828125,0.00031163450330495834,-0.001719567459076643,-0.0005756847094744444
1772699902872632000,1.679632080078125,0.000548782991245389,0.0004028589464724064,0.00004052650183439255
1772699902882589000,1.6895888671875,-0.002178826602175832,0.0012300368398427963,-0.0011336610186845064
1772699902892546000,1.699546142578125,-0.0005639526061713696,-0.0012675821781158447,0.0035731629468500614
1772699902902504000,1.70950390625,0.0022313010413199663,-0.000649728812277317,-0.000014114659279584885
1772699902912461000,1.7194609375,-0.00006984034553170204,-0.0017178668640553951,0.0014935159124433994
1772699902922418000,1.72941796875,-0.00007942761294543743,-0.0014305119402706623,-0.00013873539865016937
1772699902932375000,1.739375,0.001570768654346466,-0.002170986495912075,0.002340763807296753
1772699902942332000,1.749331787109375,0.0014202999882400036,-0.00212544621899724,0.001243807841092348
1772699902952289800,1.759289794921875,0.0001961353700608015,-0.00047872308641672134,0.0008853236213326454
1772699902962246700,1.76924658203125,0.0007000055629760027,-0.0014409231953322887,0.0018613720312714577
1772699902972203800,1.779203857421875,-0.0007204713765531778,0.0020038611255586147,-0.00041804835200309753
1772699902982161000,1.789160888671875,0.0030977025162428617,0.00047760317102074623,-0.00381677458062768
1772699902992118800,1.799118896484375,-0.0008039240492507815,-0.0006839265115559101,-0.002720226300880313
1772699903002075600,1.80907568359375,0.001143912086263299,-0.002011511940509081,-0.0006650649011135101
1772699903012032800,1.81903271484375,-0.0012118001468479633,0.0015423959121108055,0.00009019766002893448
1772699903021990000,1.828989990234375,0.0007552106399089098,-0.0022044056095182896,0.004384544678032398
1772699903031946800,1.83894677734375,-0.0009926832281053066,0.0017183893360197544,-0.0019873001147061586
1772699903041904600,1.848904541015625,0.0010132095776498318,-0.002908053807914257,-0.0013987415004521608
1772699903051861800,1.85886181640625,-0.001380592118948698,-0.0009955507703125477,-0.00029941508546471596
1772699903061819000,1.86881884765625,0.0019145372789353132,0.0006670607253909111,-0.00022111786529421806
1772699903071775700,1.878775634765625,-0.0008506427984684706,0.0015851575881242752,-0.0000743502750992775
1772699903081733600,1.888733642578125,-0.0015920668374747038,-0.00020342133939266205,-0.0007268248591572046
1772699903091690800,1.898690673828125,-0.0005958850961178541,0.0014160815626382828,-0.0013853644486516714
1772699903101647600,1.908647705078125,0.0006454142276197672,-0.0011951480992138386,-0.0022373097017407417
1772699903111604700,1.918604736328125,-0.0009277098579332232,-0.0003505498170852661,-0.001787073677405715
1772699903121562600,1.928562744140625,0.00026831566356122494,-0.0018845302984118462,0.003370670136064291
1772699903131519700,1.938519775390625,-0.00040515349246561527,-0.0007808194495737553,-0.0027423345018178225
1772699903141476600,1.9484765625,0.0007567836437374353,0.0005611474625766277,-0.00020114611834287643
1772699903151433700,1.958433837890625,0.002938241697847843,-0.0013104877434670925,-0.002466840436682105
1772699903161390800,1.968390869140625,-0.0000117418821901083,-0.00015307776629924774,0.0041476525366306305
1772699903171348700,1.9783486328125,-0.00011687935329973698,0.0001417333260178566,-0.0015476972330361605
1772699903181305600,1.9883056640625,0.0009012471418827772,-0.0006175339221954346,0.0016627432778477669
1772699903191262700,1.9982626953125,0.0004129835870116949,-0.0008815387263894081,-0.0032822666689753532
1772699903201219800,2.0082197265625,0.0021296574268490076,0.0016053211875259876,-0.002123791491612792
1772699903211177700,2.018177734375,0.0009980162139981985,0.0014400659129023552,-0.001941115828230977
1772699903221134600,2.028134521484375,-0.0009895008988678455,-0.0005234824493527412,0.0005188458599150181
1772699903231091700,2.038091796875,-0.00026808539405465126,-0.00014453334733843803,0.0007301406003534794
1772699903241048800,2.048048828125,0.00046268594451248646,0.0007878392934799194,-0.0007226136513054371
1772699903251005700,2.058005615234375,-0.0008537113899365067,-0.0011057425290346146,0.000319791492074728
1772699903260963600,2.067963623046875,0.001813444308936596,-0.0001438087783753872,-0.0002961973659694195
1772699903270920700,2.077920654296875,0.00100701954215765,0.00009115971624851227,-0.002925803419202566
1772699903280877800,2.0878779296875,-0.0015296413330361247,-0.00015118811279535294,0.001799176912754774
1772699903290834700,2.097834716796875,-0.0007595346542075276,0.00021350476890802383,0.0014145546592772007
1772699903300792600,2.10779248046875,0.0009872326627373695,-0.00030954042449593544,0.0003383713774383068
1772699903310749700,2.117749755859375,-0.0005745112430304289,0.0024711457081139088,0.00008100410923361778
1772699903320706600,2.12770654296875,-0.001758818980306387,0.0008623297326266766,-0.0005387132987380028
1772699903330663700,2.13766357421875,-0.0018410233315080404,0.0006115301512181759,0.0017685918137431145
1772699903340621800,2.147621826171875,0.0018320083618164062,0.00018569082021713257,-0.0014447781722992659
1772699903350578700,2.15757861328125,0.0007539535872638226,0.001099469605833292,0.00008549215272068977
1772699903360535600,2.16753564453125,0.0005542165599763393,-0.002692871494218707,0.0014271927066147327
1772699903370492700,2.17749267578125,-0.002490932820364833,-0.0005708332173526287,0.0020380918867886066
1772699903380449800,2.18744970703125,0.0010558650828897953,0.0017684870399534702,-0.0020386751275509596
1772699903390407700,2.19740771484375,-0.00006746174767613411,0.003356971312314272,-0.0003683422692120075
1772699903400364500,2.207364501953125,0.0010199067182838917,0.00045945215970277786,0.0006196903996169567
1772699903410321700,2.21732177734375,0.000017772894352674484,-0.00015162862837314606,0.00177460303530097
1772699903420278800,2.22727880859375,0.00015359418466687202,0.0014268266968429089,0.00037724245339632034
1772699903430237000,2.23723681640625,-0.000046643661335110664,-0.0005114595405757427,0.002342714462429285
1772699903440193500,2.247193603515625,-0.000020278384909033775,0.0011040139943361282,0.0019781277514994144
1772699903450150700,2.257150634765625,-0.000670251902192831,0.0007760976441204548,-0.0020351598504930735
1772699903460107800,2.267107666015625,-0.0010478883050382137,-0.0009696045890450478,0.003519927617162466
1772699903470064600,2.277064697265625,0.0016924391966313124,0.0008359020575881004,0.0022063800133764744
1772699903480022800,2.287022705078125,0.001484978711232543,0.0007123313844203949,-0.00028127897530794144
1772699903489979600,2.296979736328125,0.00037481077015399933,-0.00003222282975912094,0.0010855975560843945
1772699903499936800,2.306936767578125,-0.002035349840298295,0.002723616547882557,-0.0010348113719373941
1772699903509893600,2.3168935546875,-0.00030446541495621204,-0.0008513089269399643,-0.0016197441145777702
1772699903519851800,2.326851806640625,-0.0018981010653078556,0.0007034442387521267,0.0012087994255125523
1772699903529808600,2.33680859375,-0.0009156049927696586,-0.0008014645427465439,-0.00033413805067539215
1772699903539765800,2.346765869140625,-0.00144370982889086,0.0004528844729065895,-0.002676920732483268
1772699903549722600,2.35672265625,-0.0006696381606161594,-0.0008704117499291897,0.0028285267762839794
1772699903559679700,2.3666796875,-0.003387127537280321,0.0020785066299140453,-0.0011888518929481506
1772699903569638000,2.376637939453125,0.0009091496467590332,-0.0002149585634469986,0.00018514133989810944
1772699903579594500,2.386594482421875,0.00037092482671141624,0.0007315287366509438,-0.001009020023047924
1772699903589551600,2.396551513671875,0.0012357141822576523,0.001398739404976368,-0.0005493336357176304
1772699903599508700,2.4065087890625,0.0009688653517514467,0.0006482605822384357,0.002769497688859701
1772699903609467000,2.416466796875,0.00041438802145421505,0.0025509740225970745,-0.001125371316447854
1772699903619423700,2.426423828125,-0.0007635281654074788,-0.0009247171692550182,0.0020752158015966415
1772699903629380600,2.436380615234375,-0.002790105761960149,0.001760969404131174,0.000380104873329401
1772699903639337700,2.446337646484375,-0.003142175730317831,0.0016741505824029446,0.00226908503100276
1772699903649294600,2.456294677734375,0.0002976635005325079,0.00016230344772338867,0.0019665039144456387
1772699903659252700,2.466252685546875,-0.00013083894737064838,-0.0011450420133769512,-0.0022556716576218605
1772699903669209600,2.476209716796875,0.0009586417581886053,0.001206828746944666,-0.0014468287117779255
1772699903679166700,2.486166748046875,-0.0014275505673140287,-0.0016648578457534313,0.00014440994709730148
1772699903689123600,2.49612353515625,0.0009030264336615801,0.00032542599365115166,-0.0034230046439915895
1772699903699081700,2.506081787109375,0.00011366535909473896,-0.00023650098592042923,-0.0011065872386097908
1772699903709038800,2.516038818359375,-0.001972235506400466,0.0009707999415695667,0.0004870966076850891
1772699903718995700,2.52599560546875,-0.0007783403852954507,-0.001765598077327013,0.0023236125707626343
1772699903728952600,2.53595263671875,0.0018785072024911642,0.0006483318284153938,-0.0009692802559584379
1772699903738910700,2.54591064453125,0.0004763531032949686,0.0021745897829532623,-0.00044863205403089523
1772699903748867800,2.555867919921875,-0.0005825951229780912,0.00021403981372714043,0.002827506512403488
1772699903758824700,2.56582470703125,0.002750617451965809,-0.0004735887050628662,-0.0008428620640188456
1772699903768781600,2.575781494140625,-0.0007693100487813354,-0.0019665095023810863,0.0027380124665796757
1772699903778738700,2.58573876953125,-0.0006816920358687639,-0.0004021688364446163,0.0007113469764590263
1772699903788696800,2.59569677734375,0.0000347986351698637,0.00034899311140179634,0.0005735228769481182
1772699903798653700,2.60565380859375,-0.0029804324731230736,-0.0008760606870055199,-0.003449181793257594
1772699903808610600,2.615610595703125,0.00016407878138124943,-0.0007989341393113136,-0.0016480153426527977
1772699903818567700,2.625567626953125,0.000027192290872335434,-0.003367020282894373,0.00454862741753459
1772699903828525800,2.63552587890625,-0.00011485768482089043,-0.0005672909319400787,-0.00010370370000600815
1772699903838482700,2.645482666015625,-0.00044029601849615574,-0.0004743468016386032,0.0005375854671001434
1772699903848439800,2.655439697265625,-0.0010442488128319383,0.00016745971515774727,-0.0020275216083973646
1772699903858396700,2.665396728515625,0.0004521813243627548,-0.0001457282342016697,0.0016223406419157982
1772699903868353500,2.675353515625,-0.0013997717760503292,0.0011013103649020195,0.0006654267199337482
1772699903878311700,2.685311767578125,0.00016190577298402786,-0.002767463680356741,0.003138970583677292
1772699903888268800,2.695268798828125,-0.0020245288033038378,0.0025247917510569096,0.0015750848688185215
1772699903898225700,2.7052255859375,0.002833609702065587,-0.0008076215162873268,0.001951389480382204
1772699903908182500,2.7151826171875,-0.0008886395953595638,0.0010893940925598145,-0.0013589595910161734
1772699903918140700,2.725140625,0.001962008187547326,0.0018063164316117764,0.0009950082749128342
1772699903928097800,2.735097900390625,0.0013311891816556454,0.0015203282237052917,0.0010428987443447113
1772699903938055000,2.745054931640625,-0.00014260387979447842,0.0007179179228842258,0.0019153500907123089
1772699903948011800,2.75501171875,-0.0009642643854022026,-0.0013015889562666416,0.0029004807583987713
1772699903957968600,2.76496875,0.0018855840899050236,-0.00020410027354955673,-0.0010870702099055052
1772699903967926800,2.7749267578125,0.0016639945097267628,-0.0007753558456897736,-0.0015911497175693512
1772699903977884000,2.7848837890625,-0.0005536198150366545,0.0006425110623240471,0.0014075697399675846
1772699903987840800,2.7948408203125,0.00030807917937636375,0.00012523028999567032,-0.0017030967865139246
1772699903997797600,2.804797607421875,-0.0013348248321563005,0.001058934722095728,-0.0026370673440396786
1772699904007755800,2.814755859375,0.0004921068903058767,0.0011739004403352737,-0.00011786585673689842
1772699904017713000,2.824712890625,-0.0027255243621766567,0.00017015542834997177,-0.0028007342480123043
1772699904027670000,2.834669921875,0.0012796341907233,-0.0003243740648031235,0.0023418539203703403
1772699904037626600,2.844626708984375,-0.0005640722811222076,-0.0011550141498446465,0.0030265524983406067
1772699904047583700,2.854583740234375,0.0004862784408032894,-0.0006820890121161938,-0.0009539553429931402
1772699904057542000,2.8645419921875,-0.0009318548254668713,0.0007118093781173229,0.0006982698105275631
1772699904067498800,2.874498779296875,-0.00013215374201536179,0.00014083785936236382,0.00046191783621907234
1772699904077456000,2.884455810546875,-0.0009332327172160149,-0.0003427919000387192,-0.0024635647423565388
1772699904087412700,2.894412841796875,0.002790981438010931,0.001024490687996149,0.0013837581500411034
1772699904097371000,2.904370849609375,-0.0005105396267026663,-0.0027534696273505688,0.0022146645933389664
1772699904107327700,2.91432763671875,-0.000910834176465869,-0.0011253259144723415,-0.0016032441053539515
1772699904117284900,2.924284912109375,0.0010300776921212673,0.0009319661185145378,0.00040504569187760353
1772699904127241700,2.93424169921875,0.0007716498803347349,-0.00036689918488264084,0.0003780946135520935
1772699904137198600,2.944198486328125,0.0005937507376074791,-0.0018042074516415596,-0.0007944954559206963
1772699904147156700,2.95415673828125,0.0002862440887838602,0.0017559267580509186,0.0021262182854115963
1772699904157113900,2.96411376953125,-0.0005933979991823435,-0.0008044368587434292,0.0005642743781208992
1772699904167071000,2.974071044921875,-0.0006997770396992564,-0.0008994387462735176,-0.002205953001976013
1772699904177027600,2.984027587890625,0.0005191517993807793,-0.0015601692721247673,-0.00019233673810958862
1772699904186985700,2.99398583984375,0.0002935347147285938,-0.0010831113904714584,0.0028996900655329227
1772699904196942800,3.00394287109375,-0.00047531980089843273,-0.0011440976522862911,0.0033004959113895893
1772699904206900000,3.01389990234375,0.0011493659112602472,-0.0002226005308330059,0.0029605054296553135
1772699904216856800,3.02385693359375,-0.0013673213543370366,0.00009804405272006989,-0.0033735567703843117
1772699904226814700,3.033814697265625,0.0019608347211033106,-0.00025605084374547005,0.00013205036520957947
1772699904236771800,3.043771728515625,-0.00022189202718436718,0.0012041605077683926,0.004402428865432739
1772699904246729000,3.05372900390625,0.0016815143171697855,0.0007829982787370682,-0.0020243064500391483
1772699904256685800,3.063685791015625,0.00019893283024430275,0.0014804797247052193,-0.0033715995959937572
1772699904266642700,3.073642578125,0.0003524487838149071,0.0013113864697515965,-0.0020159040577709675
1772699904276600800,3.083600830078125,0.0004608393646776676,0.0012762327678501606,-0.00015755044296383858
1772699904286558000,3.093557861328125,-0.0014020584058016539,-0.0006894576363265514,0.0014269053936004639
1772699904296514800,3.103514892578125,-0.0004244120791554451,-0.0012931963428854942,-0.0005211969837546349
1772699904306472000,3.113471923828125,-0.0009403355652466416,-0.0011190380901098251,-0.000177859328687191
1772699904316429800,3.123429931640625,0.00001547299325466156,-0.00014698412269353867,0.0006208228878676891
1772699904326386700,3.13338671875,-0.001034306245855987,0.0008478835225105286,-0.0003401585854589939
1772699904336343800,3.14334375,-0.0001006019301712513,0.000022303778678178787,-0.00031672278419137
1772699904346301000,3.153301025390625,0.0003031590022146702,-0.0013812100514769554,0.0007455493323504925
1772699904356257800,3.1632578125,0.0010837314184755087,0.002644157502800226,-0.001006011851131916
1772699904366215700,3.173215576171875,0.0004845322109758854,0.001773690339177847,0.0009230836294591427
1772699904376172800,3.1831728515625,0.0010190284810960293,0.002278359141200781,-0.002713995287194848
1772699904386130000,3.1931298828125,-0.0003835295792669058,0.00046646827831864357,-0.0011855827178806067
1772699904396086800,3.203086669921875,-0.002098072785884142,0.0010867184028029442,-0.00028410274535417557
1772699904406044700,3.213044677734375,0.0009117629379034042,0.0016148509457707405,-0.00220606685616076
1772699904416001800,3.223001708984375,0.0001202714629471302,0.00016768928617238998,-0.0015911429654806852
1772699904425959000,3.232958984375,0.0003598337061703205,0.0007439674809575081,0.001343714538961649
1772699904435915800,3.242915771484375,-0.0010127595160156488,-0.00014153355732560158,-0.0010928113479167223
1772699904445873000,3.252872802734375,-0.0013907055836170912,0.0017986143939197063,0.0004277625121176243
1772699904455830800,3.262830810546875,0.001067125704139471,-0.00016626622527837753,0.00022083474323153496
1772699904465788000,3.272787841796875,0.0009903202299028635,-0.00004358310252428055,0.0019590132869780064
1772699904475744800,3.282744873046875,0.0005993680097162724,-0.0017389515414834023,-0.0032195034436881542
1772699904485702000,3.292701904296875,0.00029558734968304634,0.0024859928525984287,-0.0031734048388898373
1772699904495659800,3.30265966796875,-0.0010101605439558625,0.0012974236160516739,-0.0008165074978023767
1772699904505617000,3.312616943359375,0.002145230770111084,-0.001172906719148159,0.00012095179408788681
1772699904515573800,3.32257373046875,0.000959058990702033,0.0024130400270223618,-0.0014761458151042461
1772699904525531000,3.33253076171875,-0.0008349515264853835,-0.002286963863298297,0.002116871066391468
1772699904535488000,3.342488037109375,-0.00196200143545866,0.00015941588208079338,-0.002994001377373934
1772699904545446000,3.35244580078125,0.0015183982905000448,-0.00020658597350120544,-0.0006261605303734541
1772699904555402800,3.36240283203125,-0.0006126631051301956,0.0002847672440111637,0.000582914799451828
1772699904565359900,3.37235986328125,-0.0007633967325091362,-0.0008477768860757351,0.0008762790821492672
1772699904575317000,3.38231689453125,-0.0015586166409775615,0.0006846063770353794,-0.0010617035441100597
1772699904585274600,3.392274658203125,0.0006897700950503349,-0.0009022369049489498,0.002737546805292368
1772699904595231700,3.402231689453125,0.000665801577270031,-0.00041274819523096085,0.0023500570096075535
1772699904605188900,3.41218896484375,-0.0028319719713181257,-0.0003946572542190552,-0.0010734826792031527
1772699904615146000,3.42214599609375,0.0010495851747691631,-0.002050611190497875,-0.001957652159035206
1772699904625102800,3.432102783203125,-0.00007533514872193336,-0.0009348304010927677,-0.00047073280438780785
1772699904635060700,3.442060791015625,-0.000141914002597332,0.0016641486436128616,-0.00281511340290308
1772699904645017900,3.452017822265625,-0.0011155041866004467,-0.00046547362580895424,0.001563272438943386
1772699904654974700,3.461974609375,0.00011967006139457226,0.0012996695004403591,-0.00265517458319664
1772699904664931800,3.471931884765625,-0.000007942784577608109,0.0012576826848089695,0.0003892304375767708
1772699904674889700,3.4818896484375,-0.000991980778053403,-0.0012318403460085392,0.0032950052991509438
1772699904684846800,3.491846923828125,-0.0005004873964935541,-0.00009442772716283798,0.00032910844311118126
1772699904694803700,3.5018037109375,0.0030705451499670744,-0.0021056472323834896,0.0005525476299226284
1772699904704760800,3.5117607421875,0.00007678871043026447,0.0017445040866732597,-0.0016890575643628836
1772699904714718000,3.521718017578125,-0.0010214989306405187,0.0005356953479349613,0.001956543419510126
1772699904724675800,3.53167578125,0.00026947539299726486,-0.00031367456540465355,0.00023061595857143402
1772699904734632700,3.5416328125,0.0009855995886027813,-0.0007448401302099228,-0.0006357103120535612
1772699904744589800,3.55158984375,-0.0010142718674615026,-0.002154150977730751,0.0009184493683278561
1772699904754547000,3.561546875,-0.00016392464749515057,0.001546044833958149,0.0006233709864318371
1772699904764504800,3.5715048828125,-0.000978260301053524,0.001832431647926569,-0.0015008100308477879
1772699904774461700,3.581461669921875,0.003819956909865141,0.00012720981612801552,-0.0012765720020979643
1772699904784418800,3.591418701171875,-0.00006827409379184246,0.002842644229531288,-0.002302840817719698
1772699904794376000,3.6013759765625,0.0033232616260647774,0.000027150381356477737,0.00040958868339657784
1772699904804332800,3.611332763671875,-0.0009087513899430633,0.0006618546321988106,0.0022952379658818245
1772699904814290700,3.621290771484375,-0.0011654801201075315,-0.00003562727943062782,0.0022177398204803467
1772699904824247800,3.631247802734375,-0.0001160590909421444,0.0007826513610780239,-0.00037681078538298607
1772699904834205000,3.641204833984375,0.0007856872398406267,-0.00005358131602406502,-0.0005986522883176804
1772699904844161800,3.651161865234375,-0.00012556579895317554,-0.0003957669250667095,0.0007559158839285374
1772699904854119700,3.66111962890625,0.0016046897508203983,0.000299850944429636,-0.0025168429128825665
1772699904864076800,3.671076904296875,0.0008796222973614931,0.0011463104747235775,0.0016003167256712914
1772699904874033700,3.68103369140625,0.00004631909541785717,-0.0008923392742872238,-0.0008332799188792706
1772699904883990800,3.69099072265625,0.0009255404584109783,-0.0017913104966282845,-0.0006910534575581551
1772699904893948700,3.70094873046875,0.0008837287314236164,-0.0010216571390628815,-0.0008263420313596725
1772699904903905800,3.71090576171875,0.000020989449694752693,-0.002259619301185012,0.0021430589258670807
1772699904913862700,3.720862548828125,0.00037838565185666084,0.0017564278095960617,0.0012194747105240822
1772699904923819800,3.73081982421875,-0.0005052667111158371,0.0006441907025873661,0.00416205869987607
1772699904933777000,3.74077685546875,-0.00015612621791660786,0.0003030397929251194,-0.001436971127986908
1772699904943734800,3.75073486328125,-0.00024085026234388351,-0.0017998754046857357,0.0025658714585006237
1772699904953691600,3.760691650390625,-0.00021182163618505,0.002010575495660305,-0.0008807915728539228
1772699904963648800,3.770648681640625,0.0008134711533784866,-0.0012735682539641857,0.0011061537079513073
1772699904973606000,3.78060595703125,-0.0022483649663627148,-0.002057336736470461,0.002528281882405281
1772699904983563800,3.790563720703125,0.0002080281265079975,-0.0018396037630736828,-0.0011730315163731575
1772699904993520600,3.800520751953125,-0.0008886617142707109,0.000036593060940504074,-0.0009176344610750675
1772699905003477800,3.810477783203125,-0.0007234306540340185,0.0018338733352720737,-0.0015404103323817253
1772699905013435000,3.820434814453125,-0.00033034803345799446,-0.00018240557983517647,-0.0002849963493645191
1772699905023391700,3.830391845703125,0.00012100813910365105,-0.0021452419459819794,-0.00010109227150678635
1772699905033349600,3.840349609375,-0.0003530345857143402,-0.00008368911221623421,-0.0022819547448307276
1772699905043306800,3.850306640625,0.0017501495312899351,0.0010940227657556534,0.00057999137789011
1772699905053264000,3.860263916015625,-0.0007521567167714238,-0.0008394322358071804,0.0034351665526628494
1772699905063220700,3.870220703125,-0.000421763164922595,-0.00013287970796227455,0.0008279560133814812
1772699905073179000,3.880178955078125,0.00020834081806242466,0.0003808438777923584,0.001641817856580019
1772699905083135700,3.8901357421875,0.0010890960693359375,0.00028999336063861847,-0.0008902456611394882
1772699905093092900,3.9000927734375,-0.00034022238105535507,0.000026074238121509552,-0.001499843318015337
1772699905103049700,3.9100498046875,-0.000281407730653882,-0.0006037531420588493,0.0025182049721479416
1772699905113006800,3.9200068359375,0.002060043392702937,-0.0006277216598391533,0.0012047342024743557
1772699905122964700,3.92996484375,0.0009416018147021532,0.002824402879923582,-0.0027518116403371096
1772699905132921600,3.939921630859375,-0.0008187476778402925,0.0018209232948720455,-0.00032460642978549004
1772699905142878700,3.949878662109375,0.0006257155910134315,-0.00010454747825860977,0.0004440024495124817
1772699905152835800,3.9598359375,-0.002015074947848916,-0.0009682108648121357,-0.00032911356538534164
1772699905162794000,3.9697939453125,-0.0025317296385765076,0.002961469814181328,0.0025998763740062714
1772699905172750600,3.97975048828125,-0.0002126488834619522,-0.0003070281818509102,-0.0013852780684828758
1772699905182707700,3.989707763671875,-0.00020523532293736935,-0.0016142851673066616,0.0018341587856411934
1772699905192664800,3.999664794921875,0.0003292611800134182,0.0013199858367443085,-0.0033459560945630074
1772699905202621700,4.00962158203125,0.0030949225183576345,-0.0003532147966325283,-0.0006474091205745935
1772699905212579800,4.019579833984375,0.0023692112881690264,-0.0023684289772063494,-0.002019735984504223
1772699905222536700,4.02953662109375,-0.00010459963232278824,-0.0011981078423559666,0.0011755754239857197
1772699905232493800,4.039493896484375,0.00017689657397568226,0.0019460204057395458,0.0019803824834525585
1772699905242450700,4.04945068359375,-0.0003842022269964218,0.001568688079714775,-0.0013854294084012508
1772699905252408800,4.059408935546875,-0.0007913996232673526,-0.00029073096811771393,-0.00013187946751713753
1772699905262365700,4.06936572265625,0.00013263407163321972,-0.0011751800775527954,0.001822316087782383
1772699905272322800,4.07932275390625,-0.0009326302679255605,0.0015891813673079014,0.0013224408030509949
1772699905282279700,4.08927978515625,-0.0006125655490905046,0.000878696795552969,-0.0003326614387333393
1772699905292236800,4.09923681640625,0.0002553586382418871,0.00028081703931093216,-0.0009220188949257135
1772699905302195000,4.10919482421875,0.00005562044680118561,0.00021654367446899414,0.0012283832766115665
1772699905312151800,4.11915185546875,-0.0003446526825428009,-0.0020356918685138226,-0.00046778423711657524
1772699905322108700,4.129108642578125,0.0005083875730633736,-0.002146052662283182,0.0021392889320850372
1772699905332065800,4.139065673828125,0.002094832481816411,-0.001179325394332409,0.0007208893075585365
1772699905342024000,4.14902392578125,-0.0011460533132776618,0.0005797548219561577,0.0005946913734078407
1772699905351980800,4.158980712890625,0.0009349407628178596,-0.0005299844779074192,-0.0001408737152814865
1772699905361937700,4.168937744140625,-0.0006046530324965715,-0.0006805970333516598,-0.00024356599897146225
1772699905371894800,4.178894775390625,-0.0007316856645047665,-0.00016287853941321373,0.004572493955492973
1772699905381852000,4.188851806640625,-0.0008825795957818627,-0.00042017456144094467,0.0001309630461037159
1772699905391809800,4.198809814453125,-0.0003374305088073015,-0.0012401617132127285,-0.00022110668942332268
1772699905401766700,4.2087666015625,0.0014262166805565357,-0.0012895623221993446,0.001867535524070263
1772699905411723800,4.218723876953125,-0.002131233923137188,-0.00023867888376116753,0.0004257000982761383
1772699905421680600,4.2286806640625,0.0014815737958997488,0.0023009134456515312,-0.0005595050752162933
1772699905431638800,4.238638671875,0.0007148499134927988,0.0007333764806389809,0.0007981746457517147
1772699905441596000,4.248595947265625,-0.0008047670125961304,0.00034392625093460083,0.000996551476418972
1772699905451552800,4.258552734375,0.0005036438815295696,0.0006067799404263496,-0.0014735304284840822
1772699905461509600,4.268509521484375,-0.0008085403824225068,0.001902660820633173,-0.00019202381372451782
1772699905471466800,4.278466796875,0.0009488796349614859,0.0005242093466222286,-0.0008674012497067451
1772699905481425000,4.2884248046875,-0.0003269566223025322,-0.0021175392903387547,0.0016386774368584156
1772699905491381800,4.2983818359375,-0.0008808940183371305,0.0008513526991009712,0.001222957856953144
1772699905501338600,4.308338623046875,-0.001745264045894146,0.0013857102021574974,-0.0005272405687719584
1772699905511295700,4.318295654296875,0.0004558386281132698,-0.00034800777211785316,0.0005992762744426727
1772699905521254000,4.32825390625,0.0004534462932497263,-0.002325722947716713,-0.0006436631083488464
1772699905531211000,4.3382109375,0.001579963369295001,-0.002316668163985014,0.003973992075771093
1772699905541167600,4.348167724609375,0.0019184073898941278,0.00038764113560318947,0.0010495097376406193
1772699905551124700,4.358124755859375,0.0016960336361080408,-0.0006680358201265335,0.001908645499497652
1772699905561081900,4.368081787109375,-0.0011911375913769007,-0.0009842580184340477,0.002098750788718462
1772699905571040000,4.3780400390625,0.002009715884923935,0.0009470661170780659,-0.0010347242932766676
1772699905580996900,4.387996826171875,0.0013660304248332977,0.0027833618223667145,-0.0009707240387797356
1772699905590953700,4.39795361328125,0.0009710837621241808,-0.0012705018743872643,-0.0004956161137670279
1772699905600910800,4.407910888671875,-0.0004225487355142832,0.0008469251915812492,-0.0004584789276123047
1772699905610868700,4.41786865234375,-0.0005029761232435703,0.0000482434406876564,0.0031948452815413475
1772699905620825900,4.427825927734375,0.0005598915740847588,-0.0010403706692159176,0.0004513245075941086
1772699905630782700,4.43778271484375,-0.0004984487313777208,0.000963924452662468,-0.0002224552445113659
1772699905640739800,4.44773974609375,-0.000987671664915979,0.0033071357756853104,0.0019479929469525814
1772699905650696700,4.45769677734375,0.0015971926040947437,0.0005148113705217838,-0.0009910715743899345
1772699905660654800,4.46765478515625,0.0022339506540447474,0.0006277365610003471,-0.0008115738164633512
1772699905670612000,4.477612060546875,-0.0003178901970386505,-0.0007749502547085285,0.0033951555378735065
1772699905680568600,4.487568603515625,0.000689023407176137,0.00018949108198285103,0.003151870798319578
1772699905690525700,4.497525634765625,0.0006634569726884365,-0.001955685205757618,0.0025172391906380653
1772699905700483800,4.50748388671875,0.001819106750190258,-0.0012551168911159039,-0.000045200344175100327
1772699905710441000,4.51744091796875,-0.0006405885796993971,0.001238134689629078,0.0032003941014409065
1772699905720397800,4.527397705078125,-0.0009844934102147818,-0.0011600474826991558,0.0033126682974398136
1772699905730354700,4.537354736328125,0.000416063005104661,0.00010442128404974937,-0.002998756943270564
1772699905740311800,4.547311767578125,0.0007196082733571529,0.0005166591145098209,0.001981765031814575
1772699905750270000,4.55727001953125,-0.00019225804135203362,-0.0006221085786819458,0.000181468203663826
1772699905760226800,4.567226806640625,-0.001009817817248404,-0.0008278894238173962,-0.002577146515250206
1772699905770183700,4.57718359375,0.001030696090310812,-0.0005264198407530785,-0.0008881697431206703
1772699905780140800,4.587140869140625,-0.001401226967573166,0.0007500667124986649,-0.0028202151879668236
1772699905790099000,4.597098876953125,0.0012206551618874073,0.0010944134555757046,0.0012155389413237572
1772699905800055800,4.607055908203125,0.001288536936044693,-0.0017652073875069618,0.0022571426816284657
1772699905810013000,4.617012939453125,-0.0003583619836717844,-0.0016616103239357471,0.0004126373678445816
1772699905819969800,4.6269697265625,0.0013826044742017984,0.0012788893654942513,0.00024295831099152565
1772699905829926700,4.6369267578125,-0.00221905461512506,0.002878117375075817,-0.002079584402963519
1772699905839884800,4.646884765625,0.0030088070780038834,0.0005328040570020676,0.0020842975936830044
1772699905849842000,4.656842041015625,-0.00023039593361318111,-0.0005170144140720367,-0.001320553943514824
1772699905859798800,4.666798828125,0.0005865071434527636,-0.0003369026817381382,0.0000024512410163879395
1772699905869755600,4.676755615234375,0.001403565052896738,-0.0019015101715922356,0.0008429447188973427
1772699905879713800,4.6867138671875,0.000015559140592813492,-0.0025096554309129715,0.003149725031107664
1772699905889671000,4.6966708984375,0.00010184547863900661,0.0007953275926411152,-0.00054514454677701
1772699905899627800,4.706627685546875,-0.0032528918236494064,0.0008416809141635895,0.000337264034897089
1772699905909584600,4.716584716796875,0.0008379898499697447,-0.0002936245873570442,0.0001497776247560978
1772699905919541800,4.726541748046875,0.00016779941506683826,-0.0009419792331755161,0.001404453068971634
1772699905929500000,4.7365,-0.00008626608178019524,0.0020633982494473457,0.00220872787758708
1772699905939456800,4.746456787109375,0.00041384552605450153,0.0003350060433149338,0.0006696442142128944
1772699905949414100,4.7564140625,0.0015555426944047213,-0.0023776900488883257,-0.0006342392880469561
1772699905959371000,4.76637109375,-0.0037314249202609062,0.0005409279838204384,-0.002351293107494712
1772699905969329200,4.7763291015625,0.001487039029598236,-0.00009290454909205437,0.0009049540385603905
1772699905979286300,4.786286376953125,0.0005798051133751869,0.00014203041791915894,-0.0009350383188575506
1772699905989243400,4.796243408203125,-0.0032916320487856865,-0.0005503916181623936,0.003886881284415722
1772699905999200000,4.806199951171875,0.0006010029464960098,-0.0011070696637034416,-0.0003935745917260647
1772699906009157000,4.8161572265625,0.0026202118024230003,0.0011302516795694828,-0.001609839964658022
1772699906019115300,4.826115234375,-0.0009972085244953632,0.000439720693975687,0.0012184553779661655
1772699906029072400,4.836072265625,0.002037996193394065,-0.0009704232215881348,0.00011004740372300148
1772699906039029200,4.846029296875,-0.00024101347662508488,0.00010698102414608002,0.0028690113686025143
1772699906048986000,4.855986083984375,-0.0031105694361031055,-0.00120249530300498,0.0022833822295069695
1772699906058944300,4.8659443359375,0.0007557403296232224,0.0000668833963572979,0.00036877766251564026
1772699906068901000,4.875901123046875,-0.0018874469678848982,0.0018400163389742374,0.0003008670173585415
1772699906078858200,4.885858154296875,0.00030330242589116096,0.0012554368004202843,-0.0017050437163561583
1772699906088815000,4.895815185546875,-0.0005438490770757198,0.0007635508663952351,-0.00006959633901715279
1772699906098772200,4.905772216796875,0.000803670147433877,0.0012387186288833618,-0.0008664841298013926
1772699906108730000,4.915730224609375,-0.0002488112077116966,-0.0010747690685093403,0.00007680756971240044
1772699906118687200,4.925687255859375,-0.0019126050174236298,0.0009010243229568005,-0.0028965056408196688
1772699906128644400,4.935644287109375,-0.0016372341196984053,0.003277895040810108,0.0002042129635810852
1772699906138601000,4.94560107421875,0.0016084043309092522,-0.00358586641959846,0.003790194634348154
1772699906148559000,4.95555908203125,0.000053650932386517525,-0.00020844535902142525,0.0007059876807034016
1772699906158516200,4.96551611328125,0.000560130225494504,-0.0009814975783228874,0.00017032725736498833
1772699906168473300,4.975473388671875,-0.0030809435993433,-0.0009617898613214493,0.0012808656319975853
1772699906178430200,4.98543017578125,-0.0006876213010400534,0.0013803294859826565,-0.0006177539471536875
1772699906188387000,4.995386962890625,-0.0012146608205512166,-0.000635150820016861,0.0005183503963053226
1772699906198345200,5.00534521484375,0.0033883966971188784,-0.00016134092584252357,0.0014182901941239834
1772699906208302300,5.01530224609375,0.0017561449203640223,-0.0007568234577775002,-0.0016664490103721619
1772699906218259200,5.02525927734375,-0.0007312214002013206,0.000002639368176460266,0.00001561501994729042
1772699906228216000,5.035216064453125,-0.001044409116730094,0.0010023899376392365,-0.0008757447358220816
1772699906238174200,5.04517431640625,-0.0008206765633076429,0.0014210543595254421,0.0006841765716671944
1772699906248131300,5.05513134765625,-0.001904050586745143,0.0017986912280321121,0.0005494207143783569
1772699906258088200,5.065088134765625,0.000757548026740551,-0.0003833472728729248,-0.00030056945979595184
1772699906268045300,5.07504541015625,-0.0022299860138446093,-0.0012739086523652077,-0.0004438478499650955
1772699906278002200,5.085002197265625,0.0022419861052185297,0.0005817664787173271,0.0010253898799419403
1772699906287960300,5.094960205078125,0.0017069571185857058,0.0018986989744007587,-0.0006774351932108402
1772699906297917200,5.104917236328125,0.0016962068621069193,-0.0006492901593446732,0.0011401213705539703
1772699906307874300,5.114874267578125,-0.00027613015845417976,0.00239363731816411,-0.002798427827656269
1772699906317831200,5.1248310546875,-0.0008028302108868957,-0.00012133968994021416,0.00037360237911343575
1772699906327789000,5.1347890625,0.00034978589974343777,0.0009452560916543007,0.00014776643365621567
1772699906337746200,5.14474609375,-0.0007290320936590433,0.0010315603576600552,-0.002609667368233204
1772699906347703300,5.154703369140625,-0.0008153184317052364,-0.00013570301234722137,0.002433028072118759
1772699906357660400,5.164660400390625,-0.00009697629138827324,0.0005624094046652317,0.0007214373908936977
1772699906367617000,5.174616943359375,-0.00017021317034959793,0.0005730623379349709,0.0006868159398436546
1772699906377575200,5.1845751953125,0.0007134785410016775,0.0007959771901369095,0.0005612852983176708
1772699906387532300,5.1945322265625,-0.000012499047443270683,0.002600268926471472,-0.003893916727975011
1772699906397489200,5.2044892578125,0.0006521088071167469,-0.0022267401218414307,0.0032815267331898212
1772699906407446300,5.2144462890625,0.0004470453131943941,0.0024143503978848457,0.002539303619414568
1772699906417404200,5.224404052734375,0.000278242863714695,0.0001465342938899994,-0.000671082641929388
1772699906427361300,5.234361328125,0.000013524666428565979,-0.0023437875788658857,0.003369731828570366
1772699906437318100,5.244318115234375,0.003841850906610489,-0.0005642417818307877,0.0012723049148917198
1772699906447275300,5.254275146484375,0.00002074730582535267,-0.00046943314373493195,-0.0005045561119914055
1772699906457232100,5.264232177734375,-0.0007138948421925306,-0.0009713391773402691,-0.0008000638335943222
1772699906467190300,5.274190185546875,0.00042753596790134907,-0.0005090148188173771,0.000760282389819622
1772699906477147100,5.284147216796875,0.0009015977848321199,-0.0011445661075413227,0.004690086934715509
1772699906487104300,5.294104248046875,0.0007423406932502985,-0.001122195739299059,-0.0029582451097667217
1772699906497061400,5.304061279296875,-0.0003829591441899538,-0.0020121941342949867,0.0012882128357887268
1772699906507019300,5.314019287109375,0.0025395937263965607,0.0033964193426072598,0.0035391165874898434
1772699906516976000,5.32397607421875,-0.0008992030052468181,0.0019553247839212418,0.002370036207139492
1772699906526933200,5.333933349609375,-0.0006736333016306162,-0.0004606950096786022,0.0012211487628519535
1772699906536890400,5.343890380859375,-0.0006841416470706463,-0.0004557119682431221,-0.0024653486907482147
1772699906546847200,5.35384716796875,0.0003672742750495672,0.0007339222356677055,-0.002697842661291361
1772699906556805000,5.36380517578125,-0.0009945384226739407,-0.00034901872277259827,-0.0025225174613296986
1772699906566762200,5.37376220703125,0.000014266930520534515,0.0005639130249619484,0.0016874074935913086
1772699906576719400,5.38371923828125,-0.0007521356455981731,-0.002486185170710087,0.0024990662932395935
1772699906586676200,5.39367626953125,-0.0003627813421189785,-0.00021078018471598625,-0.00384831172414124
1772699906596634000,5.403634033203125,0.0004325450863689184,-0.0012441566213965416,-0.0036171863321214914
1772699906606591200,5.41359130859375,0.0004916673060506582,-0.0014252513647079468,0.0031906524673104286
1772699906616548000,5.423548095703125,-0.001148501061834395,0.0007062400691211224,0.0006022104062139988
1772699906626505200,5.433505126953125,0.0005772272124886513,0.001348061952739954,0.0007998170331120491
1772699906636462300,5.44346240234375,0.0018572346307337284,-0.0008919909596443176,0.0002658078446984291
1772699906646420200,5.453420166015625,-0.0009018001146614552,-0.001333543099462986,0.0014873999170958996
1772699906656377000,5.463377197265625,-0.0000575545709580183,0.001387367956340313,-0.0005217804573476315
1772699906666334200,5.473334228515625,-0.001975563121959567,-0.0007474217563867569,0.0013434975408017635
1772699906676291300,5.483291259765625,-0.00012621423229575157,0.0013731573708355427,-0.000687851570546627
1772699906686249200,5.493249267578125,-0.0012894829269498587,0.0013574445620179176,-0.0011784059461206198
1772699906696206000,5.5032060546875,-0.0026463575195521116,-0.001927314791828394,0.002035601530224085
1772699906706163200,5.5131630859375,0.00018378370441496372,0.0009829876944422722,-0.001976716797798872
1772699906716120300,5.523120361328125,0.002440190641209483,0.0009307507425546646,0.0012769661843776703
1772699906726077200,5.5330771484375,-0.000956138945184648,-0.0026786315720528364,-0.0014935203362256289
1772699906736035000,5.54303515625,-0.00009903567843139172,0.0002374793402850628,0.0022634598426520824
1772699906745992200,5.5529921875,-0.002111053792759776,-0.0031876121647655964,0.0020488090813159943
1772699906755949300,5.56294921875,0.000021508894860744476,-0.000992320477962494,0.00169429462403059
1772699906765906200,5.57290625,0.0027381994295865297,-0.0005379850044846535,0.0009970790706574917
1772699906775864000,5.582864013671875,-0.003220982849597931,-0.0011906060390174389,0.0012840148992836475
1772699906785821200,5.5928212890625,-0.0010062979999929667,-0.001179154496639967,0.0013058525510132313
1772699906795778300,5.6027783203125,-0.0009513343684375286,0.0010944237001240253,0.0012756534852087498
1772699906805735200,5.612735107421875,-0.0005049887113273144,0.0003476734273135662,-0.002661030972376466
1772699906815692300,5.6226923828125,0.0016533720772713423,0.0010719923302531242,0.00009602820500731468
1772699906825650200,5.632650146484375,0.0026166371535509825,-0.000028692185878753662,0.0005532926879823208
1772699906835607300,5.642607177734375,-0.0011877157958224416,0.0010252650827169418,-0.0036290695425122976
1772699906845564200,5.652564208984375,-0.001989061012864113,0.0024732258170843124,-0.0010553908068686724
1772699906855521300,5.662521240234375,0.0003508541267365217,-0.0011506513692438602,0.0008909646421670914
1772699906865479200,5.672479248046875,0.001571114407852292,-0.0012198933400213718,-0.002762892283499241
1772699906875436000,5.68243603515625,0.00003781192936003208,-0.0003925110213458538,-0.001086825504899025
1772699906885393200,5.69239306640625,0.0018058845307677984,-0.0017805504612624645,0.000239428598433733
1772699906895350300,5.702350341796875,0.001642477698624134,0.0007001524791121483,0.0011786236427724361
1772699906905307400,5.712307373046875,0.001060044625774026,-0.002173664513975382,0.0005631670355796814
1772699906915265000,5.72226513671875,0.00007891189306974411,0.0007512629963457584,-0.0013063554652035236
1772699906925222100,5.73222216796875,-0.0011088578030467033,0.0008468702435493469,0.004302527755498886
1772699906935179300,5.74217919921875,0.0018481584265828133,0.0010876692831516266,0.001581782940775156
1772699906945136000,5.75213623046875,-0.00038996199145913124,0.0018727690912783146,-0.0015285229310393333
1772699906955094300,5.76209423828125,0.0011390536092221737,0.0004806569777429104,0.0021480717696249485
1772699906965051400,5.772051513671875,0.0014525074511766434,-0.000029604416340589523,-0.0012479913420975208
1772699906975008300,5.78200830078125,0.0006271228194236755,0.0005430779419839382,0.00012545473873615265
1772699906984965400,5.79196533203125,-0.0001302801538258791,0.002214211504906416,0.00009189872071146965
1772699906994922500,5.801922607421875,0.0014078153762966394,0.0004376359283924103,-0.0026737889274954796
1772699907004880100,5.811880126953125,0.00033269706182181835,0.0011814567260444164,0.00006846804171800613
1772699907014837200,5.821837158203125,-0.0017673100810498,0.0007049562409520149,-0.00009823543950915337
1772699907024794400,5.83179443359375,-0.0008913963101804256,0.00023677246645092964,-0.00006627757102251053
1772699907034751500,5.84175146484375,-0.00031322380527853966,0.002002204768359661,-0.002329434035345912
1772699907044708400,5.851708251953125,0.0006172845605760813,-0.0005618864670395851,0.0019031278789043427
1772699907054666200,5.861666259765625,0.0010587682481855154,-0.0008920854888856411,-0.004495381377637386
1772699907064623400,5.871623291015625,-0.0013676377711817622,-0.000012443400919437408,0.0007108324207365513
1772699907074580200,5.881580322265625,0.00042253825813531876,0.00033470336347818375,0.0025268765166401863
1772699907084537300,5.891537353515625,0.00024224235676229,0.0009669377468526363,0.0006227162666618824
1772699907094495200,5.9014951171875,0.0018545417115092278,0.001547122374176979,-0.0013091186992824078
1772699907104452400,5.911452392578125,-0.0019047765526920557,0.002154056914150715,-0.0006545137148350477
1772699907114409200,5.9214091796875,0.0007407937664538622,-0.00015337998047471046,-0.000012356322258710861
1772699907124366300,5.931366455078125,0.0015408075414597988,-0.0015653879381716251,0.0014308108948171139
1772699907134324200,5.94132421875,0.00076707499101758,-0.000662059523165226,0.001375336665660143
1772699907144281300,5.95128125,0.0010421795304864645,-0.0009339684620499611,0.0020379312336444855
1772699907154238200,5.96123828125,-0.0009801078122109175,-0.0010031629353761673,-0.0012778111267834902
1772699907164195300,5.9711953125,0.0019807948265224695,0.0006495947018265724,0.0031454330310225487
1772699907174152400,5.98115234375,-0.001061051501892507,-0.00014808541163802147,0.0014747423119843006
1772699907184110300,5.9911103515625,-0.0013153833569958806,0.0009563276544213295,-0.0012957442086189985
1772699907194067200,6.001067138671875,-0.0013882452622056007,0.0025797332637012005,0.0023809224367141724
1772699907204024300,6.0110244140625,0.0003766315057873726,0.0012902305461466312,0.0034555080346763134
1772699907213981400,6.0209814453125,0.0011435237247496843,0.0012120516039431095,0.0007480466738343239
1772699907223938300,6.030938232421875,0.00026840902864933014,-0.001324076671153307,0.0019217017106711864
1772699907233896200,6.040896240234375,-0.0013044525403529406,0.0007590730674564838,-0.000841223169118166
1772699907243853300,6.050853271484375,0.0019054554868489504,-0.000289146788418293,0.000238688662648201
1772699907253810400,6.060810546875,-0.000030485214665532112,0.0004079509526491165,-0.00013592280447483063
1772699907263767300,6.070767333984375,0.00028882757760584354,0.0005775941535830498,-0.0012762886472046375
1772699907273725200,6.08072509765625,-0.003668294521048665,-0.00007109064608812332,0.000137310940772295
1772699907283682300,6.090682373046875,0.002088660839945078,0.0007345159538090229,-0.00016948534175753593
1772699907293639400,6.100639404296875,-0.0014608253259211779,0.0005443370901048183,0.0002954835072159767
1772699907303596300,6.11059619140625,-0.002131143119186163,0.0015613986179232597,0.001293636392802
1772699907313553400,6.120553466796875,0.0016619674861431122,0.0008043837733566761,0.0004979614168405533
1772699907323511300,6.13051123046875,-0.00011356174945831299,0.0003878651186823845,-0.0006695683114230633
1772699907333468200,6.14046826171875,0.0008422855753451586,-0.001301247626543045,0.004368373192846775
1772699907343425300,6.15042529296875,0.0013794454280287027,0.00003326265141367912,0.0008418154902756214
1772699907353382400,6.16038232421875,0.002586125861853361,-0.0023909257724881172,-0.00045325467362999916
1772699907363340300,6.17034033203125,0.0004619886167347431,0.0005787652917206287,0.001073269173502922
1772699907373297200,6.180297119140625,0.001635939348489046,0.00029967818409204483,-0.0024212629068642855
1772699907383254300,6.190254150390625,0.001084132120013237,-0.0021938392892479897,0.0031119869090616703
1772699907393211400,6.20021142578125,0.0009304555132985115,-0.0025744924787431955,0.0003104330971837044
1772699907403168300,6.210168212890625,0.00024282746016979218,0.0026418413035571575,0.0009075137786567211
1772699907413126100,6.220126220703125,0.0017164212185889482,-0.001568804495036602,0.0023115556687116623
1772699907423083300,6.230083251953125,0.0011398466303944588,0.0011082054115831852,-0.0011446948628872633
1772699907433040400,6.240040283203125,-0.0009928462095558643,-0.0012065116316080093,0.002241056878119707
1772699907442997200,6.249997314453125,0.0012836239766329527,0.0007120296359062195,-0.0002772281877696514
1772699907452955100,6.259955078125,0.0001975046470761299,0.00040975166484713554,-0.0017232231330126524
1772699907462912300,6.269912353515625,-0.0003106263466179371,0.0007362551987171173,0.001202525570988655
1772699907472869400,6.279869384765625,-0.0008156432304531336,-0.0025810063816607,0.0004897178150713444
1772699907482826200,6.289826171875,-0.00114427728112787,-0.00002969801425933838,0.002456995192915201
1772699907492783400,6.299783447265625,-0.0005645097699016333,0.0017812028527259827,0.0003767954185605049
1772699907502741200,6.3097412109375,0.0006640064530074596,-0.0010076598264276981,0.0013294080272316933
1772699907512698400,6.319698486328125,-0.0014154596719890833,-0.00018095877021551132,-0.002820406574755907
1772699907522655200,6.3296552734375,0.0011164075694978237,0.0007902961224317551,-0.0003812173381447792
1772699907532612400,6.3396123046875,-0.0026396894827485085,0.00008282996714115143,0.0027406709268689156
1772699907542570200,6.3495703125,-0.0017286220099776983,0.0005467524752020836,0.0013875188305974007
1772699907552527000,6.359527099609375,0.0012409668415784836,0.0010274066589772701,-0.0025391431991010904
1772699907562484200,6.369484130859375,-0.0021337908692657948,0.001835143193602562,0.00016423175111413002
1772699907572441300,6.37944140625,0.0016739263664931059,0.00023424578830599785,-0.001824299106374383
1772699907582398500,6.3893984375,-0.003253454342484474,0.00036340951919555664,-0.003665608586743474
1772699907592356000,6.399356201171875,0.0006346690934151411,0.0012355544604361057,-0.0016822090838104486
1772699907602313200,6.409313232421875,0.00195213477127254,0.0013463417999446392,0.0020981477573513985
1772699907612270300,6.419270263671875,0.0023671300150454044,0.002338211052119732,-0.0004048948176205158
1772699907622227200,6.429227294921875,0.00014552101492881775,0.0004351157695055008,0.003132315818220377
1772699907632185300,6.439185302734375,-0.0011180805740877986,-0.0009198924526572227,-0.002524839947000146
1772699907642142200,6.44914208984375,0.0028106146492064,-0.00036409078165888786,0.001944477204233408
1772699907652099300,6.459099365234375,-0.00018650642596185207,-0.00010053999722003937,-0.001961976755410433
1772699907662056200,6.46905615234375,-0.0006443038582801819,0.0017410358414053917,-0.0007425153162330389
1772699907672013300,6.479013427734375,-0.001561306300573051,0.001206778921186924,0.00001691700890660286
1772699907681971200,6.48897119140625,0.0005599013529717922,0.00041448837146162987,-0.0004318258725106716
1772699907691928300,6.49892822265625,-0.0005066546145826578,0.0005010967142879963,-0.003150651231408119
1772699907701885200,6.50888525390625,0.0004938950296491385,-0.0014528646133840084,0.00043076789006590843
1772699907711842300,6.51884228515625,0.0004830195102840662,-0.002331337658688426,0.002158389426767826
1772699907721799400,6.52879931640625,-0.0006363070569932461,-0.0001965477131307125,-0.0005497788079082966
1772699907731757300,6.53875732421875,-0.0022668633610010147,0.001646264921873808,0.0008689244277775288
1772699907741714200,6.548714111328125,-0.00009958283044397831,0.00023425649851560593,-0.0021447085309773684
1772699907751671300,6.55867138671875,0.00003423402085900307,-0.000021466519683599472,-0.0018098389264196157
1772699907761628400,6.56862841796875,-0.0002685675863176584,0.001383084338158369,0.00044372817501425743
1772699907771586300,6.57858642578125,0.0012223003432154655,-0.001353742554783821,0.001432850956916809
1772699907781543200,6.588543212890625,-0.0002717329189181328,-0.00019819708541035652,-0.00001990329474210739
1772699907791500300,6.598500244140625,-0.0018507975619286299,-0.0008216891437768936,-0.0003790156915783882
1772699907801457400,6.60845751953125,-0.0009312080219388008,0.0019762273877859116,-0.0007377436850219965
1772699907811414300,6.618414306640625,0.0002972965594381094,-0.00012098997831344604,0.00004453165456652641
1772699907821372200,6.6283720703125,0.00005681323818862438,-0.00035508163273334503,0.0010474780574440956
1772699907831329300,6.638329345703125,0.002760824980214238,0.0014403611421585083,-0.0019708937034010887
1772699907841286400,6.648286376953125,0.000814853236079216,0.0013681892305612564,0.0008848141878843307
1772699907851243300,6.6582431640625,0.0028985601384192705,-0.0008583264425396919,-0.0002558855339884758
1772699907861201400,6.668201416015625,-0.0003733995836228132,0.0002519451081752777,0.002224582713097334
1772699907871158300,6.678158203125,-0.0011542289284989238,0.0010201563127338886,0.0022557908669114113
1772699907881115100,6.688115234375,0.0003733602352440357,-0.00027786847203969955,0.0004688096232712269
1772699907891072300,6.698072265625,0.00017916900105774403,0.0037567978724837303,-0.0017890112940222025
1772699907901029400,6.708029296875,-0.0002839546650648117,0.0011996305547654629,-0.00038579199463129044
1772699907910987300,6.7179873046875,-0.0007108389399945736,0.0011235973797738552,0.002039354294538498
1772699907920944000,6.727944091796875,-0.0007135022897273302,0.0004431596025824547,-0.000643780454993248
1772699907930901200,6.7379013671875,0.001770230010151863,-0.0017311330884695053,0.0016531008295714855
1772699907940858400,6.7478583984375,-0.0001246090978384018,-0.00034176185727119446,0.0017063640989363194
1772699907950816500,6.75781640625,0.0014045960269868374,-0.0011863582767546177,-0.0024239991325885057
1772699907960772900,6.76777294921875,0.0013747685588896275,-0.000011105556041002274,0.00020533986389636993
1772699907970729500,6.7777294921875,0.0016622182447463274,0.0009010899811983109,0.0004623951390385628
1772699907980686600,6.7876865234375,-0.0019405062776058912,-0.001526381354779005,0.0019356561824679375
1772699907990643700,6.797643798828125,-0.004287635907530785,0.0023232591338455677,-0.00031835585832595825
1772699908000601900,6.807601806640625,-0.003091876395046711,-0.00019955355674028397,0.0013011125847697258
1772699908010558700,6.817558837890625,-0.0010273481020703912,0.001044394914060831,-0.003884593490511179
1772699908020515600,6.827515625,0.0005407212302088737,0.00017141085118055344,-0.00233463360927999
1772699908030472700,6.83747265625,0.0024750905577093363,-0.000057167839258909225,-0.001438189996406436
1772699908040430800,6.847430908203125,0.0008726662490516901,-0.000097647774964571,-0.002267764648422599
1772699908050387700,6.8573876953125,-0.0019432021072134376,0.0015053218230605125,-0.0010566555429250002
1772699908060344600,6.867344482421875,0.0009868077468127012,-0.0008025732822716236,-0.00047954870387911797
1772699908070301700,6.8773017578125,0.0010282639414072037,-0.001553128007799387,0.0011026831343770027
1772699908080258600,6.887258544921875,-0.00040611461736261845,0.002544411923736334,0.0011436957865953445
1772699908090216700,6.897216796875,0.00016206339932978153,0.0003162235952913761,-0.0005779010243713856
1772699908100173800,6.907173828125,0.00018336856737732887,-0.0012984508648514748,0.0004625958390533924
1772699908110130700,6.917130615234375,0.001328399870544672,0.000707422848790884,-0.0002593803219497204
1772699908120087600,6.927087646484375,-0.001028497819788754,0.001299976371228695,-0.0007502008229494095
1772699908130045700,6.937045654296875,0.0005682981573045254,-0.0001569376327097416,-0.002792029408738017
1772699908140002800,6.9470029296875,-0.00160750444047153,-0.0004379008896648884,-0.002946226391941309
1772699908149959700,6.956959716796875,0.0028005805797874928,0.0010651634074747562,-0.00046667130663990974
1772699908159916500,6.96691650390625,0.0002300976775586605,0.0024292347952723503,0.0006545195356011391
1772699908169873700,6.976873779296875,-0.0004022144712507725,-0.0004887147806584835,-0.001152683049440384
1772699908179831800,6.986831787109375,-0.0010206003207713366,0.001004519872367382,-0.004566855728626251
1772699908189788700,6.99678857421875,0.00018475507386028767,0.0020490544848144054,-0.00037658773362636566
1772699908199745500,7.00674560546875,0.0036274234298616648,-0.0012695109471678734,0.0011366205289959908
1772699908209702700,7.01670263671875,0.0004190201871097088,0.00023513752967119217,-0.002268823329359293
1772699908219659500,7.026659423828125,0.0004334012046456337,0.000266829039901495,0.002327792812138796
1772699908229617700,7.03661767578125,0.00007470906712114811,0.0006036246195435524,-0.0021725078113377094
1772699908239574800,7.04657470703125,0.0014523621648550034,-0.0012105205096304417,-0.00045823119580745697
1772699908249531600,7.05653173828125,-0.0006790428888052702,0.0015634512528777122,0.002110506407916546
1772699908259488500,7.066488525390625,0.0008490791078656912,-0.00032339803874492645,-0.001645882148295641
1772699908269446700,7.07644677734375,-0.002147491555660963,0.0009425762109458447,-0.0005897302180528641
1772699908279403800,7.08640380859375,0.00067679095081985,0.0004706643521785736,-0.0013593838084489107
1772699908289360600,7.096360595703125,-0.00013605225831270218,-0.0007604863494634628,-0.0001449882984161377
1772699908299317500,7.1063173828125,0.001445599365979433,-0.00039829639717936516,-0.0016115910839289427
1772699908309274600,7.116274658203125,-0.0030790602322667837,-0.002077866345643997,-0.0006544003263115883
1772699908319232800,7.126232666015625,0.0011409847065806389,0.000786895863711834,0.0002324325032532215
1772699908329190000,7.13618994140625,0.0019694732036441565,-0.0006788619793951511,0.00009936979040503502
1772699908339146500,7.146146484375,0.00014653964899480343,-0.0004034913145005703,-0.0005709477700293064
1772699908349103600,7.156103515625,-0.0028659128583967686,-0.002434123307466507,0.0019536232575774193
1772699908359061800,7.166061767578125,-0.001094378181733191,0.0013733981177210808,-0.00241183047182858
1772699908369019000,7.176018798828125,-0.0002542028669267893,0.00011140387505292892,0.0012815804220736027
1772699908378975700,7.185975830078125,-0.0006677918136119843,-0.0007964675314724445,0.00011751288548111916
1772699908388932600,7.1959326171875,0.001089685596525669,0.0004442129284143448,0.0012496779672801495
1772699908398889700,7.2058896484375,0.0014521416742354631,-0.00438383175060153,0.0027423794381320477
1772699908408847600,7.21584765625,-0.00017189234495162964,-0.0002256259322166443,0.00008460786193609238
1772699908418804700,7.2258046875,-0.001666191965341568,-0.0004250966012477875,0.00006543286144733429
1772699908428761600,7.23576171875,0.0001967854332178831,0.0022727553732693195,0.0005800365470349789
1772699908438718700,7.24571875,-0.000820275628939271,-0.0024748616851866245,0.0023244069889187813
1772699908448675600,7.255675537109375,-0.0012055027764290571,0.0005292561836540699,0.0002815178595483303
1772699908458633700,7.2656337890625,-0.0006238683126866817,0.0001087430864572525,0.0023001939989626408
1772699908468590800,7.2755908203125,0.0001937879715114832,0.0016101361252367496,0.00030944403260946274
1772699908478547500,7.28554736328125,-0.0008040985558182001,0.000520903617143631,0.0009115845896303654
1772699908488504600,7.295504638671875,-0.00027890829369425774,-0.0016048019751906395,-0.00004661642014980316
1772699908498462700,7.305462646484375,-0.00045387796126306057,0.0008783293887972832,0.00027136504650115967
1772699908508419800,7.315419921875,0.0024618511088192463,-0.0012011262588202953,-0.0018539044540375471
1772699908518376700,7.325376708984375,0.0001302533783018589,0.0012079691514372826,-0.00047491956502199173
1772699908528333600,7.33533349609375,-0.0006026485934853554,-0.00032832613214850426,-0.0023315120488405228
1772699908538290700,7.345290771484375,0.0003164084628224373,0.00047328509390354156,0.0012283353134989738
1772699908548248800,7.355248779296875,-0.0002645375207066536,0.0008207657374441624,0.0010141055099666119
1772699908558205700,7.365205810546875,-0.00032818689942359924,-0.00042585982009768486,-0.0015782155096530914
1772699908568162600,7.37516259765625,-0.0012489455984905362,0.0009084916673600674,-0.0038376045413315296
1772699908578119700,7.38511962890625,-0.00022016651928424835,0.0015148930251598358,0.0023329397663474083
1772699908588077800,7.395077880859375,0.00047484925016760826,-0.0005008513107895851,-0.0007299897260963917
1772699908598034700,7.40503466796875,-0.000279091764241457,-0.002570127369835973,-0.001305498881265521
1772699908607991800,7.41499169921875,-0.003877415554597974,-0.00026524486020207405,0.0011148974299430847
1772699908617948700,7.42494873046875,-0.0011812313459813595,0.00012357672676444054,-0.0021131199318915606
1772699908627905500,7.434905517578125,0.0005611723754554987,0.0024375147186219692,-0.00008792243897914886
1772699908637863700,7.44486376953125,-0.0030655204318463802,-0.0005705258809030056,-0.00010443385690450668
1772699908647820800,7.45482080078125,0.002585554262623191,0.00011323066428303719,0.0004369877278804779
1772699908657777700,7.464777587890625,0.0013764791656285524,-0.0014178208075463772,0.0008527073077857494
1772699908667734500,7.474734619140625,0.0007549680303782225,0.00008778413757681847,-0.001569992396980524
1772699908677692700,7.484692626953125,-0.003669874044135213,-0.001088800374418497,-0.0003995331935584545
1772699908687649800,7.49464990234375,0.000842077424749732,-0.0008216607384383678,0.0007809996604919434
1772699908697606700,7.504606689453125,-0.00042265793308615685,0.0005906135775148869,-0.0016019970644265413
1772699908707563500,7.5145634765625,0.0010964185930788517,-0.0005495548248291016,0.0028638611547648907
1772699908717520600,7.524520751953125,0.000051394104957580566,-0.0026111078914254904,0.0013570445589721203
1772699908727478800,7.534478759765625,0.00022733071818947792,0.00017793243750929832,-0.0006233733147382736
1772699908737435600,7.544435546875,-0.0012672352604568005,0.00006501469761133194,0.0019982424564659595
1772699908747392800,7.554392822265625,0.001669268123805523,0.0016817818395793438,-0.0008248949889093637
1772699908757349600,7.564349609375,0.0014191973023116589,0.0005587264895439148,-0.0014406177215278149
1772699908767306500,7.574306396484375,-0.0017954296199604869,0.001216475386172533,0.0010355859994888306
1772699908777264600,7.5842646484375,0.001116470666602254,-0.00243391958065331,0.001717887818813324
1772699908787221800,7.5942216796875,-0.00021418766118586063,-0.001923227682709694,-0.00025967229157686234
1772699908797178600,7.6041787109375,-0.00010606343857944012,-0.0011160233989357948,0.0002641715109348297
1772699908807135500,7.614135498046875,-0.0009205357637256384,-0.0012843948788940907,-0.001887068385258317
1772699908817093600,7.62409375,0.0008089209441095591,-0.0015437868423759937,-0.0008843881078064442
1772699908827050800,7.63405078125,-0.0021313915494829416,0.0014056931249797344,-0.0002633752301335335
1772699908837008000,7.6440078125,-0.0016461636405438185,0.00024641910567879677,-0.00048495037481188774
1772699908846964500,7.653964599609375,0.001421589171513915,0.0014154929667711258,0.0022979453206062317
1772699908856921600,7.663921630859375,-0.0015251986915245652,0.0009997733868658543,-0.0004216749221086502
1772699908866879700,7.673879638671875,-0.0001076478511095047,0.0003498140722513199,-0.0005314787849783897
1772699908876836900,7.6838369140625,-0.0010434825671836734,-0.0008382219821214676,0.0013524414971470833
1772699908886793700,7.693793701171875,-0.001274621463380754,0.001217179000377655,0.0007674726657569408
1772699908896750600,7.70375048828125,0.0006524419877678156,-0.0001546153798699379,-0.0009318904485553503
1772699908906708700,7.713708740234375,0.0008871548343449831,0.0013601090759038925,-0.0005618096329271793
1772699908916665900,7.723665771484375,0.0006858198903501034,-0.0003986423835158348,0.0016701854765415192
1772699908926622700,7.733622802734375,-0.0006774482317268848,0.00026086391881108284,0.0005958112888038158
1772699908936579600,7.74357958984375,-0.001010875916108489,-0.002590050222352147,0.00010658847168087959
1772699908946536700,7.75353662109375,0.0015247485134750605,-0.0009648134000599384,-0.002619805047288537
1772699908956496400,7.763496337890625,0.0017425951082259417,0.000514838844537735,-0.00208104751072824
1772699908966453500,7.77345361328125,0.0029228171333670616,0.0014126347377896309,-0.0020728236995637417
1772699908976410600,7.78341064453125,-0.0005054702050983906,0.0008547022007405758,-0.0003601447679102421
1772699908986367700,7.79336767578125,-0.0014207393396645784,-0.0007551810704171658,-0.0014089485630393028
1772699908996325400,7.803325439453125,0.0007686454337090254,0.001156169455498457,0.0010166582651436329
1772699909006282500,7.813282470703125,-0.0022212762851268053,-0.0018451521173119545,0.002687762025743723
1772699909016239600,7.823239501953125,-0.0018052905797958374,-0.0005849446170032024,-0.001995406812056899
1772699909026196500,7.833196533203125,0.0004548120778053999,-0.0025341969449073076,-0.0027840551920235157
1772699909036153600,7.843153564453125,-0.001243752078153193,0.00035879481583833694,-0.0011406184639781713
1772699909046111500,7.853111572265625,0.0002438938245177269,0.00005473010241985321,0.0013799387961626053
1772699909056068600,7.863068603515625,-0.0003084458876401186,0.0009759175591170788,-0.0005465918220579624
1772699909066025500,7.873025390625,0.0015844360459595919,0.00006441166624426842,0.0007973574101924896
1772699909075982600,7.882982666015625,-0.0013498348416760564,0.002353664953261614,0.0016647488810122013
1772699909085939700,7.892939697265625,0.0006007524207234383,-0.001356086228042841,-0.0011164725292474031
1772699909095897600,7.902897705078125,0.00204045744612813,0.0006261048838496208,0.0008215098641812801
1772699909105854500,7.9128544921875,-0.0014052307233214378,-0.001331644132733345,-0.0014050258323550224
1772699909115811600,7.9228115234375,-0.0012350546894595027,0.0007117991335690022,-0.0004811752587556839
1772699909125768700,7.932768798828125,0.0003797304816544056,0.0002379436045885086,-0.0003225095570087433
1772699909135726600,7.9427265625,0.00304688629694283,-0.0004206560552120209,0.00011691218242049217
1772699909145683500,7.952683349609375,-0.0006803395226597786,0.0024133860133588314,0.00138938520103693
1772699909155640600,7.962640625,-0.0010920643107965589,0.0009145592339336872,-0.001969659700989723
1772699909165597700,7.97259765625,0.0007667059544473886,0.0008621485903859138,-0.0005832547321915627
1772699909175554600,7.982554443359375,-0.0002583449240773916,0.000568135641515255,-0.0007422454655170441
1772699909185512400,7.992512451171875,0.0018723530229181051,-0.0014712703414261341,-0.0029862290248274803
1772699909195469600,8.002469482421875,0.0017687559593468904,0.0005138497799634933,-0.00278888875618577
1772699909205426700,8.0124267578125,-0.0013321461156010628,0.002455563750118017,0.0009709303267300129
1772699909215383600,8.022383544921874,0.0010196913499385118,-0.0017389152199029922,0.001482257153838873
1772699909225340700,8.032340576171874,0.0015390305779874325,-0.0008032671175897121,0.0011070664040744305
1772699909235298600,8.042298583984374,-0.0010008261306211352,-0.000017101876437664032,-0.0014809933491051197
1772699909245255700,8.052255615234374,-0.0009422970470041037,0.0006346008740365505,0.0007077893242239952
1772699909255212500,8.062212646484374,0.00023668445646762848,0.0014311522245407104,0.0005991319194436073
1772699909265169700,8.072169677734376,0.000781351700425148,-0.0032283146865665913,-0.0016333113890141249
1772699909275127600,8.08212744140625,-0.00016007572412490845,0.0003749420866370201,0.004180368967354298
1772699909285084400,8.09208447265625,-0.00021913903765380383,0.00014164578169584274,-0.0025178694631904364
1772699909295041500,8.10204150390625,-0.0012407276080921292,-0.0033162024337798357,0.0027732988819479942
1772699909304998700,8.11199853515625,0.0006104833446443081,0.002391099464148283,-0.00048302439972758293
1772699909314955800,8.121955810546876,0.003082695882767439,0.0004624379798769951,-0.0007866246160119772
1772699909324913400,8.131913330078126,-0.0005096383392810822,-0.0007500909268856049,0.00021982518956065178
1772699909334870500,8.14187060546875,-0.0017930156318470836,0.0017471550963819027,0.0037429211661219597
1772699909344827600,8.15182763671875,-0.0006540494505316019,0.001501760445535183,0.001171331387013197
1772699909354784500,8.161784423828125,-0.0010447351960465312,-0.0002399473451077938,0.002463230863213539
1772699909364742400,8.171742431640626,-0.002096021780744195,0.0025593345053493977,-0.000994168920442462
1772699909374699500,8.181699462890625,0.00043664430268108845,0.0013595805503427982,-0.002722826786339283
1772699909384656600,8.19165673828125,0.0050668539479374886,-0.0007678158581256866,-0.0008224642369896173
1772699909394613500,8.201613525390625,-0.0005745198577642441,0.0021787057630717754,0.0017352355644106865
1772699909404570600,8.211570556640625,-0.0005198591388761997,-0.001511349342763424,-0.000016815494745969772
1772699909414528500,8.221528564453125,-0.002877023071050644,0.001175247598439455,0.00007293326780200005
1772699909424485600,8.231485595703125,0.0003167446702718735,-0.00042279111221432686,-0.0018529221415519714
1772699909434442500,8.2414423828125,-0.0006406616885215044,0.0002283519133925438,-0.0002608844079077244
1772699909444399600,8.251399658203125,0.0017046420834958553,-0.0006840918213129044,0.0019806609489023685
1772699909454357500,8.261357421875,-0.000750792445614934,-0.0003037923015654087,-0.0005757072940468788
1772699909464314600,8.271314697265625,-0.0004833829589188099,0.00029227882623672485,-0.0003686179406940937
1772699909474271500,8.281271484375,0.0019488818943500519,-0.0008211890235543251,0.0016266223974525928
1772699909484228600,8.291228515625,0.001102824229747057,0.0003006197512149811,-0.0033935201354324818
1772699909494185700,8.301185791015625,0.0011803223751485348,-0.0013721119612455368,-0.00011836457997560501
1772699909504143400,8.311143310546875,-0.0010866062948480248,-0.000617095734924078,-0.0005707168020308018
1772699909514100500,8.3211005859375,-0.0005880624521523714,0.0005227369256317616,0.001969672739505768
1772699909524057600,8.3310576171875,0.0004973502364009619,0.0008924305438995361,0.0011505489237606525
1772699909534014700,8.3410146484375,-0.0003838897682726383,-0.0018410379998385906,-0.0018039618153125048
1772699909543971600,8.3509716796875,0.0005933346692472696,-0.003243679879233241,-0.0005850223824381828
1772699909553929500,8.360929443359375,0.0008181056473404169,0.0023191305808722973,-0.00106492405757308
1772699909563886600,8.370886474609375,0.0003510718233883381,-0.0004121246747672558,0.0032915244810283184
1772699909573843500,8.380843505859374,0.0009971547406166792,-0.0010954919271171093,-0.0016441114712506533
1772699909583800600,8.390800537109374,0.0004017145838588476,0.0025521470233798027,0.0018257535994052887
1772699909593758500,8.400758544921874,0.0008568488992750645,-0.0003080884926021099,-0.00069386325776577
1772699909603715600,8.410715576171874,0.003144185058772564,0.0003547654487192631,-0.00008262554183602333
1772699909613672400,8.42067236328125,-0.0017512375488877296,-0.000409561675041914,-0.0003279023803770542
1772699909623629600,8.430629638671874,0.0008215636480599642,0.0015272246673703194,0.0010068798437714577
1772699909633586700,8.440586669921874,-0.0015430570347234607,0.0004888582043349743,0.0015285927802324295
1772699909643544600,8.450544677734374,0.002942219842225313,-0.0012037535198032856,-0.0011245503555983305
1772699909653501400,8.46050146484375,-0.00014065555296838284,-0.0007382328622043133,0.0038148146122694016
1772699909663458600,8.47045849609375,0.001928058685734868,0.0011940156109631062,-0.000790982274338603
1772699909673415700,8.480415771484376,0.0002944755833595991,0.0020451620221138,0.0018308996222913265
1772699909683373600,8.49037353515625,-0.00010593305341899395,0.0006280690431594849,0.0007754340767860413
1772699909693330400,8.500330322265626,-0.0005876990035176277,-0.0009418642148375511,0.001965068280696869
1772699909703287600,8.51028759765625,-0.0011859633959829807,0.0005576307885348797,-0.0016657684464007616
1772699909713244700,8.52024462890625,0.0011187363415956497,0.0005248738452792168,0.0019907518289983273
1772699909723201500,8.530201416015625,0.0023517548106610775,-0.0014579021371901035,-0.00022397423163056374
1772699909733159400,8.540159423828126,0.0006553211715072393,-0.0004893103614449501,0.0003030654042959213
1772699909743116500,8.550116455078125,-0.0018298760987818241,-0.00023517431691288948,-0.002987697720527649
1772699909753073700,8.56007373046875,0.0009187725372612476,0.00033713923767209053,0.0015348824672400951
1772699909763030500,8.570030517578125,0.0008656191639602184,-0.0011072945781052113,0.0021354728378355503
1772699909772987600,8.579987548828125,-0.000030268216505646706,0.0011593219824135303,0.001180996187031269
1772699909782945500,8.589945556640625,-0.0013909628614783287,-0.0007862146012485027,0.00013929558917880058
1772699909792902700,8.599902587890625,-0.002224798547104001,0.0026292898692190647,-0.0016572729218751192
1772699909802859500,8.609859619140625,-0.002137997653335333,0.0002808305434882641,-0.0013935177121311426
1772699909812816600,8.619816650390625,0.0006620497442781925,0.0015905732288956642,-0.0018731530290096998
1772699909822774500,8.6297744140625,0.0010572941973805428,0.0007152501493692398,-0.0012133738491684198
1772699909832731400,8.6397314453125,0.0018455898389220238,-0.0018688146956264973,0.001943803858011961
1772699909842688500,8.6496884765625,0.002704100450500846,-0.00044776638969779015,-0.004781604278832674
1772699909852645600,8.659645751953125,-0.0005316401366144419,-0.001265356782823801,0.002907208167016506
1772699909862602800,8.669602783203125,-0.0014933826168999076,-0.000030842144042253494,0.00016121100634336472
1772699909872560400,8.679560302734375,0.00015644566155970097,-0.0010311254300177097,-0.0008406699635088444
1772699909882517500,8.689517578125,-0.0010834198910742998,-0.0008615343831479549,0.0005285586230456829
1772699909892474600,8.699474609375,-0.0018179196631535888,0.0002812277525663376,-0.0035242398735135794
1772699909902431500,8.709431396484375,0.0010073625016957521,-0.0010434947907924652,-0.0016042604111135006
1772699909912388600,8.719388671875,-0.0007489920826628804,0.0001754341647028923,0.0001012277789413929
1772699909922346500,8.729346435546875,0.0011327746324241161,0.0003426983021199703,-0.0010125634726136923
1772699909932303600,8.7393037109375,0.0018813889473676682,-0.00030231941491365433,-0.001336137531325221
1772699909942260500,8.749260498046874,-0.0013562325621023774,0.001960417255759239,-0.0018584528006613255
1772699909952217600,8.759217529296874,0.0005577814299613237,-0.000354135874658823,-0.00014550751075148582
1772699909962174000,8.769174072265624,0.0025519821792840958,-0.00009089196100831032,-0.004170462489128113
1772699909972131000,8.779131103515626,-0.0020691347308456898,-0.0017425846308469772,0.0005334788002073765
1772699909982088000,8.789087890625,0.00038121361285448074,0.0025770138017833233,0.0002494179643690586
1772699909992044800,8.799044921875,-0.0019613029435276985,0.00023689400404691696,-0.002998040523380041
1772699910002002000,8.809001953125,0.002143432619050145,0.00036589987576007843,-0.0006574252620339394
1772699910011960000,8.8189599609375,-0.0004608726594597101,-0.0003409027121961117,-0.002393273636698723
1772699910021917000,8.8289169921875,-0.0006187462713569403,-0.0015039006248116493,-0.0014325946103781462
1772699910031874000,8.8388740234375,-0.0002749322447925806,0.000008508563041687012,0.002905162051320076
1772699910041831000,8.848830810546875,0.0003155770245939493,-0.0015912135131657124,-0.000164911150932312
1772699910051787800,8.858787841796875,0.0011904253624379635,0.0008184146136045456,0.002492124680429697
1772699910061746000,8.868745849609375,-0.0006243763491511345,0.0023391451686620712,-0.003527926979586482
1772699910071703000,8.878703125,0.0015415723901242018,-0.0006619710475206375,-0.00034544942900538445
1772699910081660200,8.88866015625,-0.0001388099044561386,0.0005897791124880314,-0.00020036473870277405
1772699910091616800,8.89861669921875,-0.0012094007106497884,0.0007815267890691757,-0.0009769424796104431
1772699910101575000,8.908574951171875,-0.000007640337571501732,-0.00015804916620254517,0.0003633699379861355
1772699910111532000,8.918531982421875,-0.0001890016719698906,-0.0014821728691458702,0.0006054514087736607
1772699910121489000,8.928489013671875,0.0016701153945177794,-0.001667797565460205,0.002414647489786148
1772699910131445800,8.93844580078125,0.0005020529497414827,0.0027186954393982887,0.00024949759244918823
1772699910141403000,8.94840283203125,-0.0002828554715961218,0.00027865590527653694,-0.00001642433926463127
1772699910151361000,8.958361083984375,0.0001573651097714901,-0.0012068552896380424,0.001233929768204689
1772699910161318000,8.96831787109375,-0.00028674909844994545,-0.0007851417176425457,-0.0032936525531113148
1772699910171275000,8.97827490234375,0.0004557401407510042,0.0003064880147576332,-0.0004941374063491821
1772699910181231900,8.98823193359375,-0.000023474683985114098,-0.0010378374718129635,0.00029973359778523445
1772699910191190000,8.99818994140625,-0.000033860793337225914,-0.0008061425760388374,-0.00019215187057852745
1772699910201147000,9.00814697265625,0.00048592034727334976,0.0000879368744790554,-0.0004920442588627338
1772699910211104000,9.01810400390625,0.0006164154037833214,-0.0010260632261633873,0.003044900018721819
1772699910221060900,9.028060791015625,-0.00018079718574881554,-0.0001331414096057415,-0.0010072612203657627
1772699910231017700,9.038017822265624,0.0006794040091335773,-0.0009922771714627743,0.0031446064822375774
1772699910240976000,9.047975830078125,0.0009301076643168926,-0.0022421134635806084,0.002467209007591009
1772699910250933000,9.05793310546875,-9.334180504083633e-7,-0.0010665939189493656,0.0011998103000223637
1772699910260890000,9.06789013671875,0.0006591072306036949,0.0008659879676997662,0.00042910827323794365
1772699910270846700,9.0778466796875,-0.000729464809410274,0.00036584632471203804,-0.00033042533323168755
1772699910280803800,9.087803955078124,-0.001063097850419581,0.0004711449146270752,-0.0014946009032428265
1772699910290762000,9.097761962890624,-0.0038684718310832977,-0.0013459301553666592,-0.002938833087682724
1772699910300719000,9.107718994140624,0.0018303305841982365,0.0003284001722931862,0.0011933371424674988
1772699910310676000,9.117676025390624,-0.002234451938420534,0.0005100276321172714,0.0005200901068747044
1772699910320632800,9.1276328125,-0.00027934066019952297,0.0006875949911773205,0.0020171371288597584
1772699910330591000,9.137591064453124,-0.0038027027621865273,-0.000576607882976532,-0.0008606747724115849
1772699910340548000,9.147548095703126,0.0008377472404390574,0.0004145507700741291,-0.0006269845180213451
1772699910350505000,9.1575048828125,0.002968010026961565,0.0008097640238702297,-0.0027154353447258472
1772699910360461800,9.1674619140625,0.00007400801405310631,-0.0001993989571928978,-0.0016382597386837006
1772699910370419000,9.1774189453125,-0.0005486391019076109,-0.001978923100978136,0.0006139758042991161
1772699910380376800,9.187376953125,0.0014403273817151785,0.001028380822390318,-0.001806409563869238
1772699910390334000,9.197333984375,0.0005993011873215437,-0.00029094936326146126,0.002128943335264921
1772699910400291000,9.207291015625,-0.00012182211503386497,-0.00045403139665722847,-0.0008811596781015396
1772699910410248000,9.217248046875,0.0008749989792704582,0.002387029118835926,0.0032147816382348537
1772699910420204800,9.227204833984375,-0.0014905380085110664,-0.0025054069701582193,0.002171289175748825
1772699910430163000,9.237162841796875,-0.001542735961265862,-0.0017991368658840656,-0.0020130693446844816
1772699910440120000,9.2471201171875,0.0014215302653610706,-0.000582799781113863,-0.0007890036795288324
1772699910450077000,9.257076904296875,-0.0015337796648964286,0.0005945833399891853,-0.00043347151950001717
1772699910460033800,9.26703369140625,-0.0017275519203394651,0.0004030098207294941,0.0010598436929285526
1772699910469992000,9.276991943359375,0.002768396632745862,-0.0023435079492628574,0.0015197712928056717
1772699910479949000,9.286948974609375,0.00006917654536664486,-0.0010201893746852875,-0.0010343627072870731
1772699910489906000,9.296906005859375,-0.0010312414960935712,-0.0007109963335096836,-0.0018010868225246668
1772699910499862800,9.30686279296875,0.0015669602435082197,-0.0010516331531107426,0.0005750246345996857
1772699910509820000,9.31681982421875,-0.0008256236324086785,0.0012565283104777336,0.0002117697149515152
1772699910519778000,9.326778076171875,0.0010140752419829369,-0.00036373408511281013,-0.0016245180740952492
1772699910529735000,9.33673486328125,-0.001046945108100772,-0.001970419194549322,-0.0011587310582399368
1772699910539692000,9.346692138671875,-0.0017746079247444868,0.02935137413442135,0.018056323751807213
1772699910549649000,9.35664892578125,0.003100841073319316,-0.0049256375059485435,-0.0050737629644572735
1772699910559605800,9.366605712890625,0.0007287836633622646,-0.007595930248498917,-0.004865556955337524
1772699910569564000,9.37656396484375,-0.0019788523204624653,-0.01351720280945301,-0.008782267570495605
1772699910579521000,9.38652099609375,-0.001325075514614582,-0.004518554080277681,-0.004178331233561039
1772699910589478000,9.396477783203125,0.00014472310431301594,-0.0007531107403337955,0.0012790183536708355
