time,seconds_elapsed,z,y,x
1772698656552719000,0.068718994140625,-0.0014735796838998795,0.37597207823097706,-0.3377901220159605
1772698656562676000,0.078676025390625,-0.03723864748291671,0.3803378722250461,-0.333519495492056
1772698656572633000,0.088633056640625,-0.12966682887673378,0.5894967554897069,-0.22921525407191365
1772698656582590200,0.098590087890625,-0.029586598359793423,0.30052023914456366,-0.11156528193168341
1772698656592546800,0.108546875,0.051239261915162204,0.10432780495882034,0.053744212207105006
1772698656602504000,0.11850390625,0.04120353252589702,0.1507318287372589,0.13663999235760418
1772698656612461000,0.1284609375,-0.06620002661645412,0.08065934460163116,0.09856039140536449
1772698656622418000,0.13841796875,-0.05514620622582733,-0.03733808926939964,0.11199995615505613
1772698656632375000,0.148375,0.25786475424468513,-0.0025251345634460447,-0.04095636196495034
1772698656642332200,0.158332275390625,0.17427929306328296,0.09177811998724937,-0.05247985482709482
1772698656652289000,0.1682890625,0.10527290378920734,0.15436697036921976,0.08300157861253246
1772698656662246000,0.178245849609375,0.026349077743291854,0.11376315730214118,0.1430134363796562
1772698656672203000,0.188203125,0.015524316868185997,-0.017788170146942138,0.15974970458718016
1772698656682160000,0.19816015625,0.00661094257235527,-0.14277823938429354,0.23356517464341595
1772698656692117000,0.208116943359375,-0.10274729430172591,-0.20845687247514724,0.3535298717331141
1772698656702074000,0.21807421875,-0.09394026645720005,-0.2711398308813572,0.3943931029213592
1772698656712031200,0.22803125,-0.05674425253961235,-0.26896190232038497,0.30244762701056893
1772698656721987800,0.23798779296875,0.00404317444358021,-0.15143851570189,0.21516095495736226
1772698656731944200,0.247944091796875,-0.113187439773418,-0.0769978994846344,0.24857611689567566
1772698656741901000,0.257901123046875,-0.19064009728822856,-0.008044774767756462,0.27659078976362944
1772698656751858000,0.26785791015625,-0.15981880603432655,0.016111176845431327,0.23902113849436862
1772698656761815000,0.27781494140625,-0.15929916607439518,-0.006924830827116966,0.18037592943795025
1772698656771772200,0.287772216796875,-0.11782850704491138,-0.08441840487420559,0.3113463882591575
1772698656781729000,0.29772900390625,-0.06092186701782047,-0.5129126975029706,0.5063853050282224
1772698656791686100,0.30768603515625,0.002020034585520625,-0.4693681548088789,0.34784061058294025
1772698656801642200,0.317642333984375,-0.05529810885190963,-0.10939502522051334,0.2058227428455837
1772698656811599000,0.32759912109375,-0.12851356718838214,-0.009607786300778388,0.1813878646931611
1772698656821556000,0.337555908203125,-0.09146127259042114,0.0678916329652071,0.06069903631368652
1772698656831513000,0.34751318359375,-0.06015424364618957,0.20434300741553305,-0.1367486768964678
1772698656841470000,0.357469970703125,-0.07673424357976764,0.3058773822635412,-0.21101541611785068
1772698656851427000,0.367427001953125,-0.056338557815551756,0.4003554088592529,-0.13211919046491383
1772698656861384200,0.37738427734375,-0.11147650766968727,0.5030027133852243,-0.024113592042494563
1772698656871341000,0.387341064453125,-0.10498539208471774,0.6246048937499523,0.040421296107023955
1772698656881298200,0.397298095703125,-0.08839322678931057,0.642772418603301,0.13804563963813707
1772698656891255000,0.407255126953125,-0.1495680456548929,0.6031891807556152,0.2430878034113906
1772698656901212000,0.4172119140625,-0.10810491234473883,0.4699024078160524,0.20166841791141776
1772698656911169000,0.4271689453125,0.009534136542677879,0.40977790172100065,0.09695541302729398
1772698656921126100,0.437126220703125,0.08130582581162452,0.3789490482151508,0.034207992816437036
1772698656931083000,0.4470830078125,-0.0252800602722913,0.39294367129802704,0.08067865209029987
1772698656941040000,0.4570400390625,-0.09562252045571804,0.444632357481122,0.11400010786317288
1772698656950997000,0.4669970703125,-0.10804708121027796,0.46982291283905503,0.17700093657951801
1772698656960953900,0.476953857421875,-0.14590247235205023,0.327892230194807,0.19363652089154346
1772698656970911000,0.486910888671875,-0.11359536298718302,0.0705313338190317,0.09570362286791205
1772698656980868000,0.4968681640625,-0.0481493696084246,-0.12293722836077213,0.04321373983714729
1772698656990825200,0.5068251953125,-0.007871171766519545,-0.18565934973359108,-0.009797463653981686
1772698657000782000,0.516781982421875,0.02400108984503895,-0.20265257011055945,-0.07263608754593878
1772698657010739200,0.5267392578125,-0.05453764587342739,-0.17358663462400437,0.031276706871204075
1772698657020696000,0.536696044921875,-0.03321662542521953,-0.15495266130268573,0.16615138832302764
1772698657030653000,0.54665283203125,0.05073182384967804,-0.13047054647505282,0.18334548330064862
1772698657040610000,0.556610107421875,0.14173665790949017,-0.012918518283963202,0.15208854057583956
1772698657050567200,0.566567138671875,0.28036767795383927,0.08623568342924118,0.027046412357687948
1772698657060524000,0.57652392578125,0.3307598945856094,0.24047172089517116,-0.3303568667426705
1772698657070481200,0.586481201171875,0.24016835403442383,0.4300695791214704,-0.42460543196406214
1772698657080438000,0.59643798828125,0.22086919480264186,0.2796510541170835,-0.4350144151125103
1772698657090395000,0.606394775390625,0.19709435146152973,-0.060143210795521734,-0.19687855328638104
1772698657100351000,0.61635107421875,0.16777181086540222,-0.2925450224816799,0.0821850015326403
1772698657110308000,0.62630810546875,0.027433941237395627,-0.22696575811207292,0.12025098495148122
1772698657120265000,0.636264892578125,0.029158865333860737,-0.09173895702064037,0.03494421640280634
1772698657130222000,0.64622216796875,0.00475917722582817,0.1196533843845129,-0.09703762968434021
1772698657140179200,0.65617919921875,0.04768996280259453,0.3778343649715185,-0.09166837600246071
1772698657150136000,0.666135986328125,-0.17877543543875216,0.3187865481972694,0.13394488978842273
1772698657160093200,0.67609326171875,-0.44382396370768545,-0.036003625795245166,0.23542501369854435
1772698657170050000,0.686050048828125,-0.33312837728261946,0.00929272900223732,0.1763231103831902
1772698657180007000,0.6960068359375,-0.2453635845899582,0.5536854373961687,0.0961083677439019
1772698657189964000,0.705964111328125,-0.3366998060286045,1.18892278431952,0.022210681030619888
1772698657199921200,0.715921142578125,-0.36791970467865465,1.581232249367237,-0.029740802540816364
1772698657209878000,0.7258779296875,-0.27395722638964654,1.7085101372808218,-0.07801984467720613
1772698657219835100,0.735835205078125,-0.02424362076348625,1.629379317420721,-0.19410180031573399
1772698657229792000,0.7457919921875,0.26854104655981065,1.5304998409956694,-0.400870445709303
1772698657239748900,0.755748779296875,0.5344985063672065,1.3163444646179676,-0.42686179605610663
1772698657249706000,0.7657060546875,0.5572001675188542,0.9582909049153328,-0.2413802688411437
1772698657259663000,0.7756630859375,0.19377015720857307,0.6883668795645237,-0.18171000931961462
1772698657269620200,0.7856201171875,0.26528290328038856,0.3824211082398891,0.20257605254193767
1772698657279577000,0.7955771484375,0.5850479593873024,0.21947861722707748,0.1132371332671959
1772698657289534200,0.8055341796875,0.0873322464942932,0.38912089813947676,0.09939698835997841
1772698657299491000,0.815490966796875,-0.8393769407212733,0.9687076695114374,0.623533538191393
1772698657309448000,0.825447998046875,-1.3694108688950537,1.2434399719268083,0.996799572334066
1772698657319405000,0.835405029296875,-0.25284195764660833,1.0607307041704654,0.7515643633641302
1772698657329362200,0.845362060546875,0.8552993169963359,0.9338725029736756,0.8270813766412436
1772698657339319000,0.855319091796875,1.2196294727504253,0.6563982083737849,0.9080981563784182
1772698657349276200,0.865276123046875,0.7610369789779186,0.30676468649208544,1.0806401042550802
1772698657359233000,0.87523291015625,-0.04897942722439766,0.28664953470230103,1.0787652502939105
1772698657369190000,0.88518994140625,-0.556297665721178,0.49259588566124435,0.7528658744167536
1772698657379147000,0.89514697265625,-0.7606231374800205,0.7643658311396837,0.34476292017064986
1772698657389104000,0.905104248046875,-0.7766916442275047,1.01810678345263,-0.14147751378295942
1772698657399061000,0.91506103515625,-0.7890542821943759,1.291580025717616,-0.45498844139855354
1772698657409018000,0.92501806640625,-0.7481038476467132,1.548158247283101,-0.6132216952744871
1772698657418974200,0.93497412109375,-0.7068003618776798,1.9000322415679691,-0.7968118375185876
1772698657428931000,0.94493115234375,-0.7252128014028072,2.4292852484971283,-0.9751961547479033
1772698657438888200,0.95488818359375,-0.8529109605550765,2.842593662431836,-0.9359621687293053
1772698657448845000,0.964844970703125,-1.0411959826171397,3.0792186447709797,-0.7671660563174635
1772698657458802000,0.974802001953125,-0.9631716626942157,3.3253345090329645,-0.5464782094310969
1772698657468759000,0.984759033203125,-0.6026946387043223,3.6356191863447425,-0.024534100743196903
1772698657478716200,0.994716064453125,-0.3742530358860269,3.9879549529224634,0.6463342758033425
1772698657488673000,1.004673095703125,-0.5214157739648595,4.091659073024988,1.285472064231336
1772698657498630100,1.014630126953125,-0.8356243101894855,4.084519138142467,1.4433752459026872
1772698657508587000,1.0245869140625,-0.9459341121673583,4.345125884571671,0.956397346253693
1772698657518544000,1.0345439453125,-0.5060112840840593,4.580801603361964,0.2876915728348307
1772698657528501000,1.0445009765625,0.20625088686347007,4.519422713291645,-0.3251113673046231
1772698657538458000,1.0544580078125,0.39305586296822875,4.083866227191686,-0.5425961803659797
1772698657548415200,1.064415283203125,0.06431256890203803,3.3449154078155754,-0.3547734785860404
1772698657558372000,1.0743720703125,-0.5122387802967802,2.332292024210095,0.11113808776186779
1772698657568329200,1.0843291015625,-1.0655272907972335,1.3358189804166554,0.7550406611725687
1772698657578286000,1.0942861328125,-1.4953472790718079,0.49789808372259137,1.0812879006393252
1772698657588243000,1.104242919921875,-2.0220833347439764,-0.422054614970088,1.1896274985227733
1772698657598200000,1.114199951171875,-2.6640648952305317,-1.496579451215267,0.9187878196317703
1772698657608157200,1.1241572265625,-2.594233234113455,-2.1123317609459162,0.4180245557364076
1772698657618114000,1.134114013671875,-1.4628314953923225,-2.099407397443056,0.1706596777940169
1772698657628071200,1.1440712890625,0.2916121255457401,-1.8331360493808984,0.057526411326671946
1772698657638028000,1.154028076171875,1.975986769479513,-1.8122668643534183,-0.03316212789216079
1772698657647985000,1.16398486328125,3.1726410248339176,-2.268386246010661,-0.016359251588676123
1772698657657942000,1.17394189453125,3.6037796944916245,-3.2957010027915237,0.16491770007591694
1772698657667899100,1.183899169921875,3.1770202628314492,-4.87492132781446,0.19887334383279084
1772698657677856000,1.19385595703125,2.0628595817685125,-6.757331987974047,0.24426106670815495
1772698657687813000,1.203813232421875,0.5574959355950355,-8.692302856454253,0.25001667109280823
1772698657697770200,1.213770263671875,-0.5707680896222591,-10.165162993907927,0.1491828274632804
1772698657707726800,1.223726806640625,-0.3802724057734012,-10.83997247276306,0.02290786951454356
1772698657717684000,1.23368408203125,0.9522013558685779,-11.122810924744606,-0.06361591014107688
1772698657727639600,1.2436396484375,2.1904560341119765,-11.157367858862877,0.018962584221176804
1772698657737596700,1.2535966796875,2.935615060478449,-11.121316886794567,0.045896147321537135
1772698657747553500,1.263553466796875,2.990693389099836,-11.322696368229389,0.03939352396186441
1772698657757510700,1.2735107421875,2.3944202713429927,-11.871231583255529,-0.05972664761757478
1772698657767467800,1.2834677734375,1.4228285708278416,-12.51350072851181,-0.20469185738582163
1772698657777424600,1.293424560546875,0.43088323359191416,-12.719252433681488,-0.5135937385696917
1772698657787381800,1.3033818359375,-0.38409459441006183,-12.257786430299282,-0.8659868613578379
1772698657797338600,1.313338623046875,-0.8972399316251277,-11.217314085781574,-1.1111704862710088
1772698657807295700,1.323295654296875,-1.0330775580912828,-9.705866735780239,-1.2889173823796212
1772698657817252600,1.333252685546875,-1.0119891773551701,-8.093089593592286,-1.0628381247784942
1772698657827209700,1.343209716796875,-1.0440724148362874,-6.851737533855438,-0.6972595763985067
1772698657837166800,1.353166748046875,-1.5590134032964706,-6.159122933718562,-0.17113156962208448
1772698657847123700,1.363123779296875,-2.3377508741378783,-5.850563180503249,0.4485487272072583
1772698657857080600,1.37308056640625,-2.567749716335535,-5.025038824045658,0.7718480035886168
1772698657867037700,1.38303759765625,-2.125853505820036,-3.821884100756049,0.9389548477392643
1772698657876994600,1.39299462890625,-1.4595155027121305,-2.5053397296518085,1.0299185095384715
1772698657886951700,1.40295166015625,-0.9260773190528154,-1.0289514180719852,1.0485494141198695
1772698657896908800,1.41290869140625,-0.37628129031062124,0.56959144705832,1.0079968197833746
1772698657906865700,1.42286572265625,0.0517665006596595,2.1115140148222444,0.8465673636820167
1772698657916822800,1.43282275390625,0.41582061595134434,3.6031916654705998,0.6158647571291774
1772698657926779600,1.442779541015625,0.6427209806770086,4.912560445857047,0.4302817605674267
1772698657936736500,1.452736572265625,0.42387941924445327,5.790811599373817,0.35422537971660495
1772698657946693600,1.462693603515625,0.27457386045064774,6.622237288829684,0.11052841316461562
1772698657956650800,1.472650634765625,0.4098977652410045,7.668700398194789,-0.13617971790209413
1772698657966608000,1.48260791015625,0.5110580095469951,8.613233411392569,-0.19081169099546968
1772698657976564700,1.492564697265625,0.6339794558167458,9.273431596571207,-0.17979615678861735
1772698657986521600,1.502521484375,0.8764619320124387,10.019841499781608,-0.2660442613080144
1772698657996478700,1.512478759765625,1.2191437350600958,10.835279931032657,-0.47276349633559583
1772698658006435600,1.522435546875,1.5892086350739,11.57305176975727,-0.7446738001327962
1772698658016392700,1.532392822265625,1.7432056030869483,12.053134795325994,-1.066433080530539
1772698658026349800,1.542349853515625,1.5648329032301902,12.0233569121778,-1.3921563691884278
1772698658036305700,1.5523056640625,1.0154431172013283,11.638137113130092,-1.5692562726303934
1772698658046262800,1.5622626953125,0.34351650030612946,11.092308234453201,-1.7071813728950918
1772698658056219600,1.5722197265625,-0.17311196631696074,10.573131215858458,-1.6639800906807183
1772698658066176800,1.5821767578125,-0.3745674721300602,10.130216768211126,-1.7500993081234395
1772698658076133600,1.592133544921875,-0.3030559133683331,9.872682268834113,-1.9351171450830995
1772698658086090800,1.6020908203125,-0.21162028667582197,9.704468559420109,-2.10179239288345
1772698658096047600,1.612047607421875,-0.16067567859198897,9.553459667307138,-2.044590934628248
1772698658106004700,1.622004638671875,-0.14865089427735656,9.244158740335703,-1.870072133720666
1772698658115961900,1.6319619140625,-0.21011691464185714,9.01508519628942,-1.6982580617271363
1772698658125918700,1.641918701171875,-0.27226098039839414,8.911424915328622,-1.4052245250761508
1772698658135875600,1.65187548828125,-0.2609948324313387,8.729709919306636,-0.868268396423757
1772698658145832700,1.661832763671875,-0.3644154228847474,8.199675406610965,-0.2877039025934413
1772698658155789600,1.67178955078125,-0.8778677071571349,7.177412088000774,0.030475491757225245
1772698658165746700,1.68174658203125,-1.5101298376619814,6.084718557858467,0.06132383541483432
1772698658175703800,1.691703857421875,-1.8899848948061466,4.850840195003151,-0.4014653428625315
1772698658185660700,1.70166064453125,-1.7412229048371315,3.7850340872645374,-1.1404148470643907
1772698658195617800,1.71161767578125,-1.5818518425703048,2.7321739703387022,-1.6777479192703961
1772698658205574700,1.72157470703125,-1.9490297889709471,1.482487797498703,-1.5902825479157268
1772698658215531500,1.731531494140625,-2.321345828912407,0.24244623583853242,-1.134657379516214
1772698658225488600,1.741488525390625,-1.7487949475266038,-0.6980728655427694,-0.16912945428574458
1772698658235445800,1.75144580078125,-0.03696399526000023,-1.6676567333668468,1.2954166812710464
1772698658245402600,1.761402587890625,2.004607445416599,-3.004399258369207,3.018097821114957
1772698658255359700,1.77135986328125,2.9748049150943756,-4.755148116442561,4.179880377313494
1772698658265316600,1.781316650390625,2.908086417561769,-6.80111735368669,4.236694151425361
1772698658275273700,1.791273681640625,2.6757553330242634,-8.119945451813935,2.9635306568861006
1772698658285230600,1.801230712890625,3.3292402842998503,-8.875552222436665,1.1678677213311195
1772698658295187700,1.811187744140625,4.537193347781896,-10.400337192916869,-0.3034336789058521
1772698658305144800,1.821144775390625,4.280222327506542,-13.885275403928755,-1.065148374482244
1772698658315101700,1.831101806640625,1.3126093697428702,-17.74129382947683,-1.047745623456314
1772698658325058800,1.841058837890625,-2.6800258499503133,-19.650426492345332,-0.5332573471996933
1772698658335014700,1.8510146484375,-5.158093541795015,-18.804457313752174,-0.022821287209633737
1772698658344971800,1.8609716796875,-4.293202220588922,-15.259514423632622,0.30874011475089935
1772698658354928600,1.8709287109375,-0.921554800127074,-10.916007080173491,0.04811816161940805
1772698658364885800,1.8808857421875,2.2286685681283473,-7.129094924077391,-0.2829511916410178
1772698658374842600,1.890842529296875,3.460845387762785,-4.6729766137123105,-0.2831084645619616
1772698658384799700,1.9007998046875,2.8096587765574452,-3.6940234445184466,-0.14940170351150445
1772698658394756900,1.9107568359375,1.114333699542284,-3.297259922671318,-0.27200247559268026
1772698658404713700,1.920713623046875,-0.2396597469251603,-2.7450094865143297,-0.5438054100252687
1772698658414670600,1.930670654296875,-0.8033212924778461,-2.0433412268280984,-0.6671268153980374
1772698658424627700,1.940627685546875,-0.7865478523313999,-1.3364502640575169,-0.8327653405617922
1772698658434584600,1.95058447265625,-0.4917243635237217,-0.3517717029541731,-1.1060509513001888
1772698658444541700,1.960541748046875,-0.09830964064784348,0.6219663619399071,-1.1724795990407466
1772698658454498800,1.970498779296875,0.45884734531641,1.4034382261812686,-1.0900395085021852
1772698658464455700,1.98045556640625,0.699313805514574,1.9367776256412266,-0.9869071238730103
1772698658474412800,1.990412841796875,0.2513373983025551,2.1697937698334453,-0.7086190286722034
1772698658484369700,2.00036962890625,-0.3724035720944404,2.291016010969877,-0.5714586657023057
1772698658494326500,2.010326416015625,-0.4747358558544889,2.686320566180348,-0.6225964765369891
1772698658504283600,2.02028369140625,-0.12314246860928833,3.2679315368562936,-0.6721470547128469
1772698658514240800,2.03024072265625,0.14611293676495551,3.753805420786142,-0.5135681657370179
1772698658524197600,2.04019775390625,0.15107317125452682,3.9944934147804974,-0.29740550465751436
1772698658534154800,2.05015478515625,0.07316226684451103,3.936563203859329,-0.1556778155057691
1772698658544111600,2.060111572265625,-0.006129296535253524,3.9232314285993573,-0.22195278878826646
1772698658554068700,2.07006884765625,-0.03302895736601204,4.211362141770124,-0.3567391161032021
1772698658564025600,2.080025634765625,0.02892912083175033,4.623186454626918,-0.38899950024951246
1772698658573982700,2.089982666015625,-0.0013338789522647856,5.001765500485897,-0.3049618748538196
1772698658583939800,2.09993994140625,-0.22744334902856497,5.273272411113977,-0.14539314372357912
1772698658593896700,2.109896728515625,-0.4043863083431497,5.589449653595685,-0.07347833792320452
1772698658603853800,2.119853759765625,-0.41804881339482963,5.987341887211799,-0.11674695888590067
1772698658613810700,2.129810791015625,-0.27127536689452825,6.293847630506754,-0.22468522769315166
1772698658623767600,2.139767578125,-0.0966436801970005,6.471694845184683,-0.17490522467559202
1772698658633723600,2.1497236328125,-0.08532152772638946,6.380853129264712,0.12778815725697204
1772698658643680500,2.159680419921875,-0.2782758202411234,6.0910910154998295,0.4939680873299017
1772698658653637600,2.1696376953125,-0.6085633480746299,5.6580818757951254,0.6087262104861438
1772698658663594800,2.1795947265625,-0.8231341733854264,5.164833663704991,0.5486799572590738
1772698658673552000,2.1895517578125,-1.0584312681216745,4.406932060143351,0.38415688252393154
1772698658683508700,2.1995087890625,-1.25402975500226,3.3621769237399097,0.17049458689279853
1772698658693465600,2.209465576171875,-1.5524118130743503,2.125373613348603,0.10088066931278444
1772698658703422700,2.219422607421875,-1.4844446306549013,0.800785051998496,0.07547227908624336
1772698658713379600,2.229379638671875,-0.9549508007071912,-0.22699498420655725,0.12412346987011842
1772698658723336700,2.239336669921875,-0.1999323513664305,-1.1303776563704013,0.441409596042335
1772698658733294000,2.249294189453125,0.3761222272913903,-2.3586370103001593,1.3205997839748858
1772698658743251200,2.259251220703125,0.8572294082760811,-3.6053619952470064,2.396810089088976
1772698658753207800,2.269207763671875,1.7356803221486508,-5.207660998040438,2.856689992323518
1772698658763165000,2.2791650390625,2.8535154539406298,-7.515123116898536,2.1056099053449926
1772698658773122000,2.2891220703125,2.9108430227935314,-10.466326207131146,0.9566819353487342
1772698658783079000,2.299078857421875,2.2167538200594485,-13.341294783467054,-0.22693061373345552
1772698658793036000,2.3090361328125,1.5331005250133574,-15.547002162724732,-1.3332793789364397
1772698658802993200,2.3189931640625,1.340046973375231,-17.027298003137112,-2.001800717432797
1772698658812950000,2.328949951171875,1.6365210058689117,-17.525635647320748,-2.206005485421419
1772698658822907000,2.338906982421875,2.4505657908044753,-16.98128794711232,-2.0349733575858173
1772698658832864000,2.348864013671875,3.7821103087723253,-15.83940456186533,-1.561539414642751
1772698658842821000,2.358821044921875,5.278589222222566,-14.914535449558496,-0.7273302319481968
1772698658852778000,2.368778076171875,6.164296536964177,-14.798217931598424,0.25089319819901135
1772698658862735000,2.378735107421875,5.446230100184679,-15.526571953636408,1.283588734702766
1772698658872692200,2.388692138671875,2.7305577673137185,-15.86308705074787,2.5439398016810415
1772698658882648800,2.39864892578125,-0.368236953934282,-14.689669878596067,3.97179116910696
1772698658892606000,2.40860595703125,-2.039484405269474,-12.491485296058654,5.025875274869799
1772698658902563000,2.41856298828125,-2.0282278288483617,-9.392342053633929,5.022395031538605
1772698658912520000,2.42852001953125,-1.1599053641498087,-5.512053110182285,3.7346532688096166
1772698658922476000,2.43847607421875,-0.6616074674546718,-1.7772627709895372,2.166408949700743
1772698658932433200,2.44843310546875,-0.8610616068501025,1.4477163438469172,0.7372497145466506
1772698658942390000,2.45839013671875,-1.4969699118375777,4.046678944569826,-0.2509847489399835
1772698658952347100,2.46834716796875,-2.1031611970186233,6.339787543904781,-0.8701777371764182
1772698658962304000,2.478303955078125,-2.1118859168745576,8.378494096669554,-1.2818059429392217
1772698658972260900,2.4882607421875,-1.798068827652931,10.073982255291938,-1.2970990814000367
1772698658982218000,2.498218017578125,-1.855059711897373,11.147440339088439,-0.7585522494900971
1772698658992175000,2.508175048828125,-2.449123483041674,11.812001980173587,0.09899784210771322
1772698659002132000,2.518132080078125,-3.0302210973680017,12.249086406493186,0.5854712993659079
1772698659012089000,2.528089111328125,-2.790494641882181,12.934101637542247,0.5426735564511269
1772698659022046200,2.538046142578125,-1.4926210689783095,13.558134868884085,0.1771056390630081
1772698659032002800,2.5480029296875,0.03692417470626533,13.826089055466651,-0.04942417531721294
1772698659041960000,2.5579599609375,0.70190893657431,13.765165507948398,0.041961109427548944
1772698659051917000,2.5679169921875,0.5760438380680978,13.28991998553872,0.28779680504128335
1772698659061874000,2.5778740234375,0.18761632902026176,12.41842473602295,0.4536556218922138
1772698659071831000,2.5878310546875,-0.16304770495295523,11.223427015703916,0.45904652115032074
1772698659081788200,2.5977880859375,-0.5809726727724075,9.892209976124763,0.3565602158723399
1772698659091745000,2.6077451171875,-1.0220761985402553,8.8096193223238,-0.006736833974346518
1772698659101702000,2.617701904296875,-1.3154174129009246,8.039061650806666,-0.4689304575113579
1772698659111659000,2.627658935546875,-1.1856627596102653,7.50215491425395,-0.9205256032098084
1772698659121616100,2.6376162109375,-0.9011795360963791,7.266696053084731,-1.1630146552767604
1772698659131573000,2.647572998046875,-0.6285784735560417,7.431590847209096,-1.0573548710618168
1772698659141530000,2.657530029296875,-0.35709728189110757,7.747773934909701,-0.8194380953464656
1772698659151487200,2.6674873046875,-0.15613748717308043,8.100793592098356,-0.548846034540981
1772698659161443800,2.67744384765625,-0.11027348855547606,8.379592997822165,-0.3969931658845395
1772698659171401000,2.68740087890625,-0.15207038386464117,8.60176158478558,-0.30566096303388474
1772698659181358000,2.697358154296875,-0.19539507326297462,8.879824492928385,-0.18877415728587657
1772698659191314000,2.70731396484375,-0.2395101823866367,9.143635588356853,-0.18250855755247175
1772698659201271000,2.71727099609375,-0.20930567132420835,9.287159677672385,-0.2355047826701775
1772698659211228200,2.727228271484375,-0.2024551478423178,9.270710062652826,-0.3865106425758451
1772698659221185000,2.73718505859375,-0.3975566449861973,9.121193454924224,-0.6650846420459449
1772698659231142100,2.74714208984375,-0.7748106527864933,8.724303676348924,-0.9347245166931301
1772698659241099000,2.75709912109375,-1.1584979085046798,8.025299082913994,-1.139650073236972
1772698659251055900,2.767055908203125,-1.4794564669787882,7.504462606674433,-1.3151526244848966
1772698659261013000,2.777012939453125,-1.437294903075695,7.0612535599946975,-1.4795143346458672
1772698659270970000,2.78697021484375,-1.1196084250748157,6.320185602334141,-1.5220562761686742
1772698659280927000,2.796927001953125,-0.8870328642569482,5.061467397254705,-1.4609351602517067
1772698659290884000,2.806884033203125,-0.5351637653429061,3.3281957436829805,-1.4385083705186843
1772698659300841200,2.81684130859375,-0.3316717487335205,1.1624550486326217,-1.0410784937173128
1772698659310797800,2.8267978515625,0.30538696839809415,-1.2729413762211799,-0.2771570453442633
1772698659320755000,2.8367548828125,1.4972504823446273,-4.037115581932664,0.7032092055179179
1772698659330712000,2.846712158203125,2.4036099783621725,-6.867742912238836,1.6746666121289133
1772698659340669000,2.8566689453125,2.2946213419854637,-9.717089556062222,2.0589565829806027
1772698659350626000,2.8666259765625,1.5123404994487761,-12.386591673910617,1.9527960096366703
1772698659360583200,2.876583251953125,0.4622190137065947,-14.489042092311381,1.5162908445097505
1772698659370540000,2.8865400390625,0.3601578385055065,-15.455298861539363,0.5538946962326765
1772698659380497000,2.896496826171875,1.6980184077523648,-15.491006134736537,-0.5353911808906123
1772698659390454000,2.9064541015625,2.9739842463612556,-15.320138695943355,-1.3398868143774567
1772698659400411100,2.9164111328125,2.7281296633839607,-15.563348901891707,-1.3944281135126948
1772698659410368000,2.926367919921875,1.1284008033394812,-16.66539712035656,-0.8556095519892871
1772698659420325000,2.9363251953125,-0.7308275725446641,-17.658154943019152,-0.046671890067541966
1772698659430282200,2.9462822265625,-2.277567185201496,-17.156676078200338,0.710648415607959
1772698659440238800,2.95623876953125,-2.6642905206799505,-14.912956071412562,1.3080103515148163
1772698659450196000,2.966196044921875,-1.4157355438269674,-11.714074689906834,1.410962045814842
1772698659460153000,2.976153076171875,0.5964378067992627,-8.358466038641334,1.1758257676634938
1772698659470110000,2.98610986328125,2.2610883440874514,-5.5402644746661185,0.8544931151799857
1772698659480067000,2.996067138671875,2.9308173048079014,-3.6530548897922035,0.5715830592669546
1772698659490024200,3.006024169921875,2.4333071974895892,-2.4609996526658535,0.35503837659992277
1772698659499980000,3.01597998046875,1.3211959963023663,-1.697265105167031,0.1680823746519163
1772698659509937200,3.025937255859375,0.4817266280572861,-0.986188965666294,-0.009547014290560036
1772698659519894000,3.03589404296875,0.0866422914687544,-0.1478033740699291,-0.07584255543705075
1772698659529851000,3.045850830078125,-0.03795074127502739,0.6787181767314672,-0.016086188534647227
1772698659539808000,3.05580810546875,0.1354559336721897,1.5285200653553008,0.10802784678684547
1772698659549765000,3.06576513671875,0.36062063371166586,2.240571771889925,0.22680368115184826
1772698659559722000,3.075721923828125,0.41857707505263386,2.6592086873710152,0.2336468798438087
1772698659569679000,3.08567919921875,0.2567711137890816,2.8815169750660656,0.17241105150599031
1772698659579636200,3.09563623046875,0.06281053030863404,3.0469869387298822,0.07415317757800222
1772698659589592800,3.1055927734375,-0.17173603832125664,3.0405250492393967,0.024587255702540278
1772698659599550000,3.115550048828125,-0.5669219355881214,2.972196193900704,0.039678405317850406
1772698659609507000,3.125507080078125,-0.9689047995187342,3.0300925025522707,0.08255191688258201
1772698659619464000,3.1354638671875,-1.1378864976305514,3.378932243707776,0.10380451173707843
1772698659629421000,3.145421142578125,-1.051356142103672,3.9364147352993486,0.1759558114407584
1772698659639378200,3.155378173828125,-0.8040906694151461,4.624502797922492,0.08873915415015071
1772698659649334800,3.165334716796875,-0.6274247004110366,5.344092498746514,-0.00908379895929247
1772698659659292000,3.1752919921875,-0.670722355671972,5.901253503298759,-0.058294294993206854
1772698659669249000,3.1852490234375,-0.7676490905940532,6.399176136940717,-0.11548201698400079
1772698659679206100,3.1952060546875,-0.8249697913147509,6.953925988698005,-0.2581089017314836
1772698659689163000,3.2051630859375,-0.7307775959230959,7.459082665246725,-0.44656266795657573
1772698659699120000,3.2151201171875,-0.6938869581602514,7.6940388375908135,-0.7501694749396294
1772698659709077000,3.225076904296875,-0.7425158183813094,7.610981784197688,-1.1076790639586747
1772698659719033900,3.235033935546875,-0.9380253848694264,7.514752530020475,-1.328240361855924
1772698659728990700,3.24499072265625,-1.0796936171852052,7.382396900451183,-1.4373971944063901
1772698659738947800,3.25494775390625,-1.1484789841197431,7.100687160238623,-1.5157665283747017
1772698659748904700,3.26490478515625,-1.3641431576251983,6.637485126844048,-1.459182617495954
1772698659758861800,3.27486181640625,-1.4259670149840413,6.303449571588635,-1.2676754185169934
1772698659768819000,3.28481884765625,-1.2356338282205164,5.716577319383621,-1.110894665004313
1772698659778775800,3.29477587890625,-0.7969057263471185,4.978458274656534,-1.0346300482302904
1772698659788732000,3.30473193359375,-0.323877879986912,3.853143746894598,-0.9306506183177232
1772698659798688800,3.314688720703125,0.07886354722604155,1.9168793314725159,-0.4189061243439093
1772698659808645600,3.324645751953125,0.18869038799256085,-0.2277425877034664,0.29529903389755635
1772698659818602800,3.334602783203125,0.2987770487390458,-2.465131053382158,1.1584674403011799
1772698659828560000,3.344559814453125,0.7063150625787675,-4.937674428847432,2.084278509633243
1772698659838516700,3.354516845703125,1.0972739898003636,-7.154246900990605,2.4622806323871016
1772698659848473900,3.364473876953125,1.303500326744467,-9.006535394608974,2.323413867358118
1772698659858431000,3.374430908203125,1.8807997178316116,-10.64901735470891,1.7874881046667694
1772698659868387600,3.3843876953125,2.5761948885977266,-12.434054851353167,1.1407660716548562
1772698659878344700,3.3943447265625,2.7577099781334398,-14.267700019299983,0.9348044500615447
1772698659888301800,3.4043017578125,2.470302903062105,-15.967295613241195,0.8381152502223849
1772698659898259000,3.414259033203125,2.0722062329150734,-17.40665972380638,0.6813189338143915
1772698659908215800,3.4242158203125,1.7369794220484793,-18.14803455545902,0.1694375338542275
1772698659918173000,3.4341728515625,1.8707516404174267,-18.013732467997073,-0.7173733399488031
1772698659928129800,3.4441298828125,2.8171730977103113,-17.497608991754053,-1.4172192065134643
1772698659938086700,3.454086669921875,3.956197294133901,-17.300232316219805,-1.337124363926798
1772698659948043800,3.464043701171875,4.248846361511945,-17.459722620952128,-0.15126216362114064
1772698659958001000,3.4740009765625,3.2039503553330895,-16.913500943565367,1.4622949042975901
1772698659967957800,3.483957763671875,1.6283261551059782,-15.086059890955685,2.543039930231869
1772698659977915000,3.493914794921875,0.5506441700041294,-12.455728923022747,2.9690590649187563
1772698659987872000,3.5038720703125,-0.04855521046295762,-9.575600187444687,2.8934476513564586
1772698659997828600,3.51382861328125,-0.7173262859366833,-6.542966183716058,2.573780813193321
1772698660007785700,3.52378564453125,-1.1684921368397772,-3.1696646393716335,2.1008201868504286
1772698660017742800,3.533742919921875,-1.1113865401744842,0.3375321651995182,1.42973235886693
1772698660027699700,3.54369970703125,-0.8682689809456468,3.6662878808528183,0.6636955988403409
1772698660037656800,3.55365673828125,-0.7675308710418641,6.544193095162511,-0.18790884569343178
1772698660047614000,3.563614013671875,-0.7894634475171566,8.707633112055063,-0.9445371048510074
1772698660057570800,3.57357080078125,-0.8711725934326648,10.175260025030374,-1.4131816215604542
1772698660067527700,3.583527587890625,-1.0422446148872375,11.06549037015438,-1.5238997120782731
1772698660077484800,3.59348486328125,-1.605787867822498,11.245644692730902,-1.0355959706529974
1772698660087440600,3.603440673828125,-2.090586815997213,11.333097350734471,-0.27951946362666785
1772698660097397800,3.613397705078125,-2.339899576604366,11.675618994784354,0.07957859102706424
1772698660107355000,3.62335498046875,-2.072512376254797,11.938731002032757,-0.009758579248585737
1772698660117311700,3.633311767578125,-1.2444015104353428,12.131948219799995,-0.35409243751931935
1772698660127268900,3.643268798828125,-0.283515474460274,12.340493939602375,-0.9124903269227593
1772698660137226000,3.65322607421875,0.3287843567289412,12.32132980492711,-1.2489411996915936
1772698660147182600,3.6631826171875,0.6055448039710521,12.066423315966128,-1.2506567714378236
1772698660157139700,3.6731396484375,0.5095430749393999,11.514784289705753,-1.1688725144594907
1772698660167096800,3.683096923828125,0.30808738646321,10.753124210393429,-1.0036064758699386
1772698660177054000,3.693053955078125,0.03247837427854538,9.984204369211197,-0.8699998233262449
1772698660187010800,3.7030107421875,-0.3890647840380668,9.18713044669032,-0.8027283680859952
1772698660196968000,3.712968017578125,-0.6064928984761238,8.321565756267308,-0.7525244405679404
1772698660206924800,3.7229248046875,-0.6404558852892369,7.649984007287025,-0.6444990232001989
1772698660216881700,3.732881591796875,-1.0219733226876706,7.3412798771649594,-0.4383433038068935
1772698660226838800,3.7428388671875,-1.4603484464049339,7.2031883342921725,-0.3187028519691899
1772698660236796000,3.7527958984375,-1.4922949057638644,7.332299867373704,-0.3261071003437042
1772698660246752800,3.762752685546875,-1.173254675066471,7.728533227866888,-0.41645303210336715
1772698660256710000,3.7727099609375,-0.7667254729431122,8.243501688855886,-0.5184550609957427
1772698660266667000,3.7826669921875,-0.5048784441292286,8.725390302541852,-0.6267467280842364
1772698660276623600,3.79262353515625,-0.48794484498500823,9.049298431536554,-0.5661028012249618
1772698660286580700,3.802580810546875,-0.7044809790194034,9.264187382885813,-0.41390747580640014
1772698660296537900,3.812537841796875,-0.7875367172382771,9.354564988425373,-0.3145817169185728
1772698660306494700,3.82249462890625,-0.6586347352541982,9.355808266484736,-0.28080406007710845
1772698660316451800,3.832451904296875,-0.637465690497309,8.97727832046449,-0.3396549295071512
1772698660326409000,3.842408935546875,-0.6949018342912197,8.147638345381617,-0.40697899171747265
1772698660336365800,3.85236572265625,-1.087248124217987,6.981223160946369,-0.2631645776858553
1772698660346322700,3.86232275390625,-1.8234113587021827,5.822936337909102,-0.1925285413833335
1772698660356279800,3.87227978515625,-2.1317069080233573,4.550038800829649,-0.3703019236400723
1772698660366237000,3.88223681640625,-1.7971626725934444,3.039091801565885,-0.516407992272824
1772698660376192800,3.89219287109375,-1.1824246544718742,1.3483143048524855,-0.5847977109532803
1772698660386150000,3.90214990234375,-0.33057635471224783,-0.48071898538470265,-0.5191572544483468
1772698660396106800,3.912106689453125,1.1950548573337494,-2.2995511996030804,-0.18485040797088295
1772698660406063900,3.92206396484375,2.78117151774168,-4.1837674478799105,0.27815537219922987
1772698660416021000,3.93202099609375,3.827061211133003,-6.106274556106329,1.0579427539523691
1772698660425977600,3.9419775390625,4.162176962840557,-8.312790329137444,2.2268366765260694
1772698660435934700,3.951934814453125,3.5094717637658115,-10.769960778903961,3.235746008044481
1772698660445891800,3.961891845703125,2.015692318532616,-12.95252342941761,3.7830554806679486
1772698660455849000,3.971848876953125,0.5167816478908062,-14.25879307474494,3.656638885758817
1772698660465805800,3.981805908203125,0.726412240320444,-13.92516083959341,2.565865802285075
1772698660475763000,3.991762939453125,2.79752760925889,-12.513489038074017,1.0319722271978855
1772698660485719800,4.0017197265625,4.8742555573821065,-12.166565944194794,-0.264578828397952
1772698660495676700,4.0116767578125,4.674378297203779,-13.717339926934242,-0.8464230598405003
1772698660505633800,4.0216337890625,2.3956955519758165,-15.970683502113818,-0.884527091981098
1772698660515591000,4.0315908203125,-0.4103345126904547,-17.521331228125096,-0.6564691547181457
1772698660525547800,4.0415478515625,-2.2457588191390037,-17.50080515744686,-0.3478855457032099
1772698660535505000,4.0515048828125,-2.1753392751313743,-15.245419262784718,0.028794680797122416
1772698660545462000,4.0614619140625,-0.09432429733872413,-11.822176168185472,0.56938280927632
1772698660555418600,4.071418701171875,2.3083329103432595,-8.487164314746856,1.1537944069888442
1772698660565375700,4.081375732421875,3.5826527353107926,-5.720283188164234,1.6623055815972387
1772698660575332900,4.091332763671875,3.603888415563106,-3.857331846234202,1.8394862951904534
1772698660585289700,4.101289794921875,2.7910943613409995,-2.62618904582262,1.6030165034130215
1772698660595246800,4.111246826171875,1.6574948203146456,-1.658840974226594,1.10314850785695
1772698660605204000,4.121203857421875,0.5759609090249985,-0.8098369579821825,0.5706464360039681
1772698660615160600,4.13116064453125,-0.2715922508239746,0.0015238485664129256,0.11570837308578193
1772698660625117700,4.14111767578125,-0.9880828165888785,0.8155009750932455,-0.19628062392584977
1772698660635074800,4.15107470703125,-1.4108102162539957,1.6029343780875205,-0.5892245144195855
1772698660645032000,4.161031982421875,-1.4413152446329593,2.594542446193099,-1.1234056984659284
1772698660654988800,4.17098876953125,-1.145112357230857,3.651217152971029,-1.4995311406277119
1772698660664946000,4.18094580078125,-0.8966450344718992,4.62597871569395,-1.538716903590411
1772698660674903000,4.190903076171875,-0.8093944749116897,5.50650541292727,-1.3442137376658618
1772698660684859600,4.200859619140625,-0.6894798092424869,6.269435658305883,-0.9676825642473995
1772698660694816000,4.21081591796875,-0.6397428416490555,6.922779739806056,-0.5336435700383036
1772698660704772600,4.220772705078125,-0.7932685388885438,7.359539756476878,-0.1479322246139869
1772698660714729700,4.230729736328125,-1.0561012908041476,7.455815772405266,0.09332618967946618
1772698660724686800,4.240686767578125,-1.344286949032545,7.396545837312936,0.10488481778707355
1772698660734643700,4.250643798828125,-1.4902176610983908,7.377109315437078,-0.08677680456861853
1772698660744600800,4.260600830078125,-1.3820387336693702,7.576666257619857,-0.37844643245525655
1772698660754558000,4.270557861328125,-1.1631214035868644,7.801590280771255,-0.6851029093325137
1772698660764514800,4.280514892578125,-1.0971896725177763,8.048668852585553,-0.8714671924650669
1772698660774471700,4.2904716796875,-1.165917756307125,8.359108428198098,-0.9678128395635635
1772698660784428800,4.3004287109375,-1.1753997242711485,8.536688516372442,-1.0721516773730515
1772698660794386000,4.310385986328125,-1.1310146390996874,8.823743124744295,-1.0164606967460363
1772698660804342800,4.3203427734375,-0.9484766362570226,8.93487125736773,-0.824892926686257
1772698660814300000,4.3302998046875,-0.7708066778421402,8.828816190224886,-0.6717271488003432
1772698660824257000,4.340257080078125,-0.8768927246451378,8.385480886816978,-0.5718081001944839
1772698660834213600,4.350213623046875,-1.3023685462355612,7.630853190359473,-0.4855091422706842
1772698660844170800,4.360170654296875,-1.5890402927696703,6.944550257587433,-0.5157365227520465
1772698660854127900,4.3701279296875,-1.4726689987957478,6.311521234363317,-0.8111005481772124
1772698660864084700,4.380084716796875,-1.1024478853069246,5.467859748190641,-1.218413667219877
1772698660874041900,4.390041748046875,-0.8491443014979362,4.41417136374712,-1.3350650933094321
1772698660883999000,4.3999990234375,-0.5547486827135085,3.1796979576081035,-1.2660057317391038
1772698660893955600,4.40995556640625,0.18862499460615217,1.5661615214854478,-1.0244297759290784
1772698660903912700,4.41991259765625,1.3183786007940768,-0.6836041952073574,-0.536343841972947
1772698660913869800,4.429869873046875,1.8607412646651267,-3.793547648587823,0.42294140774197875
1772698660923827000,4.439826904296875,1.5534345802508294,-7.309044663992523,1.441791337712109
1772698660933783800,4.44978369140625,0.25553558064475657,-10.677024136531353,1.940059423790872
1772698660943741000,4.459740966796875,-0.1173379470489919,-13.092787640154361,1.8705162242263556
1772698660953697800,4.46969775390625,1.5324889689862726,-14.307089780402183,1.696867191890627
1772698660963654700,4.479654541015625,4.265062167775631,-14.795722023129462,1.7223698819376527
1772698660973611800,4.48961181640625,6.971949136644602,-14.682797070217132,1.7098977922469376
1772698660983569000,4.49956884765625,8.758000194245577,-15.525233398509025,1.718285973624885
1772698660993525800,4.50952587890625,8.857850561529398,-19.060802895605562,1.7377547903351485
1772698661003481900,4.51948193359375,6.808011789375543,-23.976564183330535,1.754424039454758
1772698661013440000,4.52943994140625,2.7166321178138255,-27.737981248164175,1.7853161674551665
1772698661023395800,4.539395751953125,-1.372367234482616,-29.243775102448463,1.729025832695514
1772698661033353000,4.54935302734375,-3.2928350919663902,-27.927394397473332,1.768113542111218
1772698661043309800,4.559309814453125,-2.695999956412613,-23.94320902621746,2.062359231030941
1772698661053266700,4.5692666015625,-0.885849938082695,-18.674950643873213,2.3356151772834357
1772698661063223800,4.579223876953125,0.5360344106975943,-13.316014211738109,2.61578338714242
1772698661073181000,4.589180908203125,0.9223707196198403,-8.499657885617017,2.354007743064314
1772698661083137800,4.5991376953125,0.3181481041632592,-4.423951584005356,1.6259141255281864
1772698661093095000,4.609094970703125,-0.6818564747571945,-0.8672253171116113,0.518721347249113
1772698661103051800,4.6190517578125,-1.4520901750169695,2.4033225397229194,-0.688845602992177
1772698661113008600,4.629008544921875,-1.8418495171904563,5.555533355468511,-1.557643283987045
1772698661122965800,4.6389658203125,-1.875158058682829,8.391264730915427,-1.8435113129228353
1772698661132923000,4.6489228515625,-1.7194145392633973,10.689231291675567,-1.772361116553098
1772698661142879700,4.658879638671875,-1.7125579513669014,12.306954073572157,-1.352146138100326
1772698661152836900,4.6688369140625,-1.9601601086638867,13.288991764777897,-0.7996263104174286
1772698661162794000,4.6787939453125,-2.412582535499334,13.787842619180678,-0.3616671836225316
1772698661172750600,4.68875048828125,-2.7709096514463423,13.936825558423996,-0.20018334871912374
1772698661182707700,4.698707763671875,-2.58924375526309,14.235171376138926,-0.43290447375383223
1772698661192664800,4.708664794921875,-2.1104420016765593,14.676806889891624,-0.8587737881738692
1772698661202621700,4.71862158203125,-1.302528559102863,14.914547139996289,-1.2433997860468924
1772698661212578800,4.728578857421875,-0.4485727656699717,14.831824433124064,-1.5447598370164632
1772698661222536000,4.738535888671875,0.09916749958619475,14.47720318595767,-1.5954875692129133
1772698661232492800,4.748492919921875,0.15167524706721305,13.766172054642437,-1.5082605366587638
1772698661242449700,4.75844970703125,-0.11641462165899574,12.686383598780631,-1.3791415509231388
1772698661252406800,4.76840673828125,-0.3128045511782169,11.33235500793457,-1.1635473739139734
1772698661262364000,4.778364013671875,-0.5264401414655149,9.826727157866955,-0.993075656440109
1772698661272320800,4.78832080078125,-0.8486370095629244,8.576368200331926,-0.9813523392900824
1772698661282278000,4.79827783203125,-1.1236265016097575,7.6232123202174895,-0.9396421724162995
1772698661292235000,4.808235107421875,-1.1387946254514156,6.949382500049471,-0.8276067887548357
1772698661302191600,4.818191650390625,-0.9862122004114091,6.5905065180480475,-0.7237037120141089
1772698661312148700,4.828148681640625,-0.7817148792169988,6.605390783447027,-0.48154308818392455
1772698661322105900,4.83810595703125,-0.5045218857765198,6.840933815768361,-0.22759978169929235
1772698661332061700,4.848061767578125,-0.2421848814886063,7.078271914812922,0.0770836415393278
1772698661342018800,4.858018798828125,-0.13457447466254233,7.266196286869048,0.3236375684250146
1772698661351976000,4.867975830078125,-0.23701200889535246,7.419466109651327,0.4508492592345923
1772698661361932800,4.877932861328125,-0.40640163022093473,7.514190804484486,0.4724054036129266
1772698661371890000,4.887889892578125,-0.49030046820044515,7.610047133696079,0.2726999563375488
1772698661381846800,4.8978466796875,-0.5868248328667134,7.605516504529118,-0.01699793308470398
1772698661391803600,4.9078037109375,-0.5070715702593326,7.5802698350697755,-0.30550979106016457
1772698661401760800,4.9177607421875,-0.613411226497218,7.3495976236552,-0.6231610516171902
1772698661411718000,4.9277177734375,-1.1017372528195382,6.880871858403086,-0.939505467359349
1772698661421674800,4.9376748046875,-1.4248644605696201,6.496351147535443,-1.2283714360021054
1772698661431632000,4.9476318359375,-1.1486146662633865,5.873097668394446,-1.4956439239308237
1772698661441589000,4.957589111328125,-0.5337527295012027,4.942929865157604,-1.4484817752614616
1772698661451545600,4.967545654296875,0.05929156240224838,3.8422523505240678,-1.1412968175306915
1772698661461502700,4.977502685546875,0.18372706649675966,2.272515308639407,-0.6635392392348498
1772698661471459800,4.9874599609375,0.21573555824123322,0.17049217574000358,-0.2562130415149033
1772698661481416700,4.997416748046875,-0.003710544955730438,-2.3809417810887097,0.27349408412361514
1772698661491373800,5.007373779296875,-0.22588030096292494,-4.523456498852372,0.8945293574921787
1772698661501331000,5.0173310546875,0.5858943470835686,-5.964540272817016,1.100936969287321
1772698661511287800,5.027287841796875,2.643434779655933,-6.985281496426463,1.2559332505360246
1772698661521244700,5.03724462890625,5.096490779840946,-7.660998737776279,1.45839731233716
1772698661531201800,5.047201904296875,6.920842049741744,-8.404364450985193,1.547712549342215
1772698661541159000,5.057158935546875,7.599651996409893,-9.644992872622609,1.3382291102983057
1772698661551115800,5.06711572265625,7.364272045695781,-11.57691195231676,1.003213896355778
1772698661561073000,5.077072998046875,5.380404752099514,-14.317150571167469,0.6599936025172471
1772698661571030000,5.087030029296875,1.3177543314158915,-17.52545912171006,0.7375782158486545
1772698661580986600,5.096986572265625,-3.511014901554584,-19.64710640801191,0.9911577670548111
1772698661590943700,5.10694384765625,-7.260362758409976,-19.44787562904358,0.9462702853191644
1772698661600900900,5.11690087890625,-8.877969804972409,-17.272559880918262,0.837944423700124
1772698661610857700,5.126857666015625,-7.670353426098823,-13.475257848232983,0.7447154473174363
1772698661620814800,5.13681494140625,-4.178374064403772,-9.084990507164598,0.5461315148852766
1772698661630772000,5.14677197265625,0.5825847841441631,-5.137274625650048,0.5089322495646774
1772698661640728800,5.156728759765625,4.9858419551670545,-2.513613637000322,0.5582079197892919
1772698661650685700,5.166685791015625,7.100348722064495,-1.390246151652932,1.0796877719663083
1772698661660641800,5.176641845703125,6.019906770730018,-1.3596943615227937,1.6862182259738445
1772698661670598700,5.1865986328125,3.0109739605844017,-1.5284183585464954,1.8113963651292024
1772698661680555800,5.1965556640625,0.3633715398550033,-1.8689006057232618,1.7944892156004906
1772698661690513000,5.206512939453125,-1.4231260924696922,-2.1950813558250664,1.6818423489771783
1772698661700469800,5.2164697265625,-2.1455191602766512,-2.02388600025177,1.1633969325926155
1772698661710427000,5.226427001953125,-2.3254174622654915,-1.4482979431271552,0.3569156051812693
1772698661720384000,5.236384033203125,-2.3196856406152246,-0.7313479431569576,-0.5317589618680998
1772698661730340600,5.246340576171875,-1.974623664432764,0.2367360414981842,-1.5048402068212627
1772698661740297500,5.25629736328125,-1.3000175991952418,1.3757798194050788,-2.3625221811704336
1772698661750254600,5.266254638671875,-0.672394234406948,2.2262363725453613,-2.6891417610809207
1772698661760211500,5.27621142578125,-0.6606254706799983,2.715739552888274,-2.3494920192055404
1772698661770168600,5.28616845703125,-1.0969850898563862,2.8804169048696755,-1.7466361620575188
1772698661780125700,5.296125732421875,-1.3602315371394156,3.09093012535274,-1.172635666385293
1772698661790082600,5.30608251953125,-1.2742296624660492,3.3119910433351993,-0.7359989107679575
1772698661800039400,5.316039306640625,-0.9309668446600436,3.2170763788878918,-0.29298527706246824
1772698661809996500,5.32599658203125,-0.5732102220773696,3.1162334934353826,0.00229964839463355
1772698661819953700,5.33595361328125,-0.40828269472718237,3.2441876731753347,0.15781227025119587
1772698661829910500,5.34591064453125,-0.4496247954735532,3.465259112551808,0.23992972297295925
1772698661839867600,5.35586767578125,-0.13026077618189155,3.925011297753453,0.1969882972711697
1772698661849824800,5.36582470703125,0.40269229084160174,4.105313504368066,0.2700055844207294
1772698661859781400,5.375781494140625,0.8530104023415594,3.7879993668109178,0.2462661046539433
1772698661869738500,5.385738525390625,1.0980021579444408,3.4986680456787345,-0.17904943007454274
1772698661879695600,5.395695556640625,1.2567349223077295,2.9939520986348387,-0.7695712177630514
1772698661889652500,5.405652587890625,1.6897510762751102,2.247111987313628,-1.2595745296478271
1772698661899609600,5.415609619140625,2.2591478775441645,1.3956746064424514,-1.480750452312082
1772698661909566700,5.425566650390625,2.607056475329399,0.5677689078062772,-1.424634012814611
1772698661919523600,5.435523681640625,2.5066718550384044,-0.07278817283511162,-1.1732111281856894
1772698661929480400,5.44548046875,2.268759755498171,-0.9191741155356168,-0.7989307293687016
1772698661939437600,5.4554375,1.4847522352993487,-1.8889952992469072,-0.25546755690984424
1772698661949394400,5.46539453125,-0.001491736395098269,-2.717064079490304,0.20263452299721538
1772698661959351600,5.4753515625,-1.7563316266417501,-3.1933389449477194,0.30888745079971847
1772698661969308700,5.48530859375,-3.28988910164237,-2.9646009164661167,0.08800879404898733
1772698661979265500,5.495265625,-3.860716812497377,-2.0657693317353725,-0.5242829634316265
1772698661989222400,5.505222412109375,-3.5935037996709345,-1.0971522631168364,-1.1641419788062572
1772698661999178800,5.5151787109375,-5.465048197901249,0.2775005980849266,-2.817261360515654
1772698662009135400,5.52513525390625,-5.6932525578975675,0.21900515449643135,-4.124250844550133
1772698662019092500,5.535092529296875,-0.5057341841757297,0.2551888130337,-3.3681901926800606
1772698662029049600,5.545049560546875,1.9521628262996673,1.5250708016842602,-2.278909831982106
1772698662039006500,5.55500634765625,1.9927333216190337,2.5017870056062934,-1.0726265283431857
1772698662048963600,5.564963623046875,0.510080615882203,2.919751136392355,1.8316965180970728
1772698662058920700,5.574920654296875,0.368066419672966,3.0834996830910444,3.662146543264389
1772698662068877600,5.584877685546875,1.3188614158749579,2.9305238748192783,5.741128992316127
1772698662078834400,5.59483447265625,1.1309282759904862,2.9569249750107525,3.5594679668173193
1772698662088791600,5.60479150390625,-0.6522797402042895,1.9996657512307165,2.4023848204813896
1772698662098748700,5.614748779296875,0.02212057332806289,0.9414075746536255,0.23316720656808465
1772698662108705500,5.62470556640625,1.1618599322836844,0.12585925328731537,-1.4381161563307046
1772698662118662700,5.63466259765625,1.3923707425914704,-0.09078852442800998,-2.191804087720066
1772698662128619800,5.644619873046875,1.307440881063789,-0.07897007634043693,-2.2219468586578963
1772698662138576400,5.654576416015625,1.3057996897280215,-0.004080547311902046,-2.0718802158311007
1772698662148533500,5.664533447265625,1.2327519891738892,0.376048650598526,-1.7754022378146648
1772698662158490600,5.67449072265625,1.115578585036844,0.8259148170799017,-0.7050560024283826
1772698662168447500,5.684447509765625,0.6499532700181007,0.7781558715611696,0.16694785419665276
1772698662178404600,5.694404541015625,0.300643061806634,0.6026572658360004,0.37586032495219257
1772698662188361700,5.70436181640625,-0.16864618254713712,0.01733750376999378,0.5591807468768208
1772698662198318600,5.714318603515625,0.6057587389826774,0.1455430279225111,0.47449174490030854
1772698662208275500,5.724275390625,-0.06089892453365028,0.6044277826398611,0.2128657018933445
1772698662218232600,5.734232666015625,0.06741992380023003,0.4011223015785217,0.34799992933049795
1772698662228189400,5.744189453125,-0.3479050906538963,-0.6801058316975832,0.5912264288265258
1772698662238146600,5.754146484375,-0.39629652538988736,-0.9954928005844355,0.27628092009685934
1772698662248103700,5.764103759765625,-0.2913806548774242,-0.933666751268506,0.244215327870287
1772698662258060500,5.774060546875,-0.37249837423842397,-2.677805251291394,0.8000332837831229
1772698662268017400,5.784017333984375,0.22749124329090117,-2.538283967876434,-0.7479642199803144
1772698662277974500,5.793974609375,0.3264251533169299,-1.9324311208695173,-0.7036334222793579
1772698662287931600,5.803931640625,0.31946923323180526,-1.60703830627501,-0.3025358350169845
1772698662297888500,5.813888427734375,0.26945045302230863,-1.3560241485774516,-0.17791476348880678
1772698662307845600,5.823845703125,0.22395254777073859,-1.0914642806082964,-0.1140609712049365
1772698662317802800,5.833802734375,0.29076113473959264,-0.6790788267374038,-0.19190438160300255
1772698662327759600,5.843759521484375,0.37721648880150166,-0.41372167091071604,-0.23497593649048357
1772698662337715700,5.8537158203125,0.33625549632720647,-0.2839934672355652,-0.10808321196958422
1772698662347672600,5.863672607421875,0.25991346693541856,-0.2891507038682699,-0.21682938135992735
1772698662357629400,5.87362939453125,0.23330606704950332,-0.31976153070926666,-0.25705312733454627
1772698662367586600,5.883586669921875,0.11517189158890395,-0.3000222264945507,-0.31162739715762433
1772698662377543400,5.89354345703125,-0.00017771292077377437,-0.1633019719749689,-0.3563631954628974
1772698662387500500,5.90350048828125,-0.06202478675842285,0.04325052818357944,-0.4029699022065848
1772698662397457700,5.913457763671875,-0.11559038186245597,0.2761491834759712,-0.43135640406161546
1772698662407414800,5.923414794921875,-0.22204466832280156,0.4732184004962444,-0.3663781743250787
1772698662417371400,5.933371337890625,-0.2628361129164696,0.6038824237167835,-0.3123234896630049
1772698662427328500,5.94332861328125,-0.3083528324663639,0.7454501182675362,-0.2493716877201572
1772698662437285600,5.95328564453125,-0.40817572722136974,0.8651935190230607,-0.25643300440851596
1772698662447242500,5.963242431640625,-0.41237084082365033,1.114464047923684,-0.232721983551234
1772698662457199600,5.97319970703125,-0.5391138912081718,1.2078192079693078,-0.056116256834380325
1772698662467156700,5.98315673828125,-0.49620059562232344,1.2091191846519709,-0.081736435781233
1772698662477113600,5.993113525390625,-0.44686406205594537,1.0901292326122523,0.044245804564934224
1772698662487070500,6.003070556640625,-0.5179202965319156,0.7362444830268621,0.20397793696280567
1772698662497027600,6.013027587890625,-0.5715028701702133,0.3355325158149004,0.25526622565146534
1772698662506984400,6.022984375,-0.4326748297164216,0.03536006719470024,0.180988581443578
1772698662516941600,6.032941650390625,-0.33517592092957343,-0.047776481175422665,-0.021308398428652436
1772698662526898700,6.042898681640625,-0.16113803540673105,0.08151099299490451,-0.16063534658160059
1772698662536855600,6.05285546875,-0.12464921991042792,0.1569236691147089,-0.03983077373481356
1772698662546812400,6.0628125,-0.14320841096248477,0.11154197412133217,0.29575587428696454
1772698662556769500,6.07276953125,-0.17400160863306371,0.012400631889700888,0.44514447172172367
1772698662566726700,6.0827265625,-0.12688446814920754,-0.028246435797214507,0.38383583387602116
1772698662576683500,6.09268359375,-0.024597850161790846,-0.010361819538474083,0.2739737573993392
1772698662586640600,6.102640625,0.03084635262992233,0.001914309188723564,0.2307520351851359
1772698662596597800,6.11259765625,0.08717201443128288,-0.012849544700980186,0.18192434619003905
1772698662606554600,6.1225546875,0.07120415504667907,-0.027231705796718596,0.1132434808095917
1772698662616511500,6.132511474609375,0.057175593161582945,0.09804244107902049,-0.005230849858187139
1772698662626468600,6.142468505859375,0.05984806377384811,0.26048984205126763,-0.038156054588779804
1772698662636425500,6.152425537109375,0.05366258007194846,0.3833545896977186,0.0331812983835116
1772698662646382600,6.162382568359375,0.10508826793730258,0.502962381374836,0.09605584297222085
1772698662656339700,6.172339599609375,0.08883037609755992,0.5026707049518824,0.22286208565291016
1772698662666295600,6.182295654296875,0.06513152060210704,0.39438042610287666,0.39053525844942777
1772698662676252700,6.192252685546875,0.08049330385234206,0.20522388190329074,0.3776064744997769
1772698662686209800,6.202209716796875,0.08761866222023963,0.03460778752267361,0.24298869041847063
1772698662696166400,6.21216650390625,0.10064531705379486,0.030369419300556182,0.17363924159407615
1772698662706123500,6.22212353515625,0.13007774776518344,0.12447861258387564,0.11875506557160988
1772698662716080600,6.23208056640625,0.06150511026587337,0.23204583785533903,0.1460762945489958
1772698662726037500,6.24203759765625,-0.008032536340691149,0.26819968577623365,0.2683795358551666
1772698662735994400,6.251994384765625,-0.023618191474676132,0.2685936535298824,0.33390476848259565
1772698662745951200,6.261951171875,0.023072796018980442,0.30856384486854077,0.3118846233217045
1772698662755908400,6.271908447265625,0.047873475276492536,0.3153004596471786,0.30808040873315184
1772698662765865200,6.281865234375,0.04169394639134407,0.293145326462388,0.2954457488918677
1772698662775822000,6.291822021484375,0.04119421670828014,0.2888625345766544,0.20523875067885963
1772698662785779200,6.301779296875,0.1249778673429042,0.27250001331865786,0.08434208823498338
1772698662795736300,6.311736328125,0.18111878369450568,0.2065799726873636,0.010945099319145083
1772698662805693400,6.321693359375,0.1874345061799511,0.26591186710000037,-0.09109609253983944
1772698662815650300,6.331650390625,0.17727613679170606,0.2757663216382265,-0.05081049684276804
1772698662825607400,6.341607421875,0.1698462790518999,0.06791910549402237,0.01929020874034613
1772698662835564300,6.351564208984375,0.2470791563361883,-0.08172200539708137,0.1430496584705077
1772698662845521200,6.361521240234375,0.2726017383937724,-0.02678746916055679,0.30173500349549576
1772698662855478300,6.371478271484375,0.2113432415664196,-0.08120762613415718,0.38569910699725146
1772698662865435400,6.381435302734375,0.18521040038969366,-0.121182493647933,0.3011719810515642
1772698662875392300,6.391392333984375,0.2497580201566219,-0.0937900443315506,0.13780664325049147
1772698662885349400,6.401349365234375,0.3019856355220079,-0.10112228691577911,-0.10167780190669
1772698662895306200,6.41130615234375,0.3317652722358703,-0.2502081020116806,-0.2603215180133469
1772698662905263000,6.42126318359375,0.29434655547831207,-0.5476467417538166,-0.2403391805566847
1772698662915220200,6.43122021484375,0.2766548314431682,-0.7092033313661813,-0.16886634637014938
1772698662925177300,6.44117724609375,0.2796586529016495,-0.490783867803216,-0.035641971142310644
1772698662935134200,6.45113427734375,0.19823066201508044,-0.04592471582889557,0.24348346993178127
1772698662945091300,6.46109130859375,0.10078677135109901,0.04301555038392543,0.39725083044003695
