time,seconds_elapsed,z,y,x
1772698656552719000,0.068718994140625,0.4320324957370758,0.08871280401945114,0.23838406801223755
1772698656562676000,0.078676025390625,0.43585309386253357,0.20307984948158264,0.12418468296527863
1772698656572633000,0.088633056640625,0.4716947078704834,0.24182617664337158,0.039695367217063904
1772698656582590200,0.098590087890625,0.4903551936149597,0.19163544476032257,0.0698966532945633
1772698656592546800,0.108546875,0.466082364320755,0.1495351344347,0.14255939424037933
1772698656602504000,0.11850390625,0.44418904185295105,0.1452825963497162,0.19189289212226868
1772698656612461000,0.1284609375,0.42917439341545105,0.2358204871416092,0.25538745522499084
1772698656622418000,0.13841796875,0.4207178056240082,0.2532620429992676,0.36412909626960754
1772698656632375000,0.148375,0.38332808017730713,0.22377820312976837,0.4484882056713104
1772698656642332200,0.158332275390625,0.3407135605812073,0.2106482833623886,0.5038405656814575
1772698656652289000,0.1682890625,0.2982427775859833,0.20049764215946198,0.5238321423530579
1772698656662246000,0.178245849609375,0.24598515033721924,0.1952698677778244,0.48429250717163086
1772698656672203000,0.188203125,0.19002173840999603,0.17763946950435638,0.39561936259269714
1772698656682160000,0.19816015625,0.14153441786766052,0.1653503030538559,0.27440711855888367
1772698656692117000,0.208116943359375,0.09923462569713593,0.17134320735931396,0.15752549469470978
1772698656702074000,0.21807421875,0.08079379796981812,0.16573487222194672,0.05000550299882889
1772698656712031200,0.22803125,0.07769281417131424,0.13018620014190674,-0.043634701520204544
1772698656721987800,0.23798779296875,0.08693084865808487,0.09834010899066925,-0.12267144024372101
1772698656731944200,0.247944091796875,0.10893255472183228,0.0852445438504219,-0.17354048788547516
1772698656741901000,0.257901123046875,0.13015630841255188,0.10480280965566635,-0.21843460202217102
1772698656751858000,0.26785791015625,0.12510348856449127,0.11678863316774368,-0.2354322224855423
1772698656761815000,0.27781494140625,0.10276860743761063,0.1319095343351364,-0.22155091166496277
1772698656771772200,0.287772216796875,0.04322165250778198,0.15062490105628967,-0.16295656561851501
1772698656781729000,0.29772900390625,-0.03717276453971863,0.09047021716833115,-0.05662630498409271
1772698656791686100,0.30768603515625,-0.0569818913936615,0.044589005410671234,0.017575489357113838
1772698656801642200,0.317642333984375,-0.013645075261592865,0.052356913685798645,0.05620701238512993
1772698656811599000,0.32759912109375,0.04589681327342987,0.05050814896821976,0.06574032455682755
1772698656821556000,0.337555908203125,0.10456523299217224,0.054931651800870895,0.03195036202669144
1772698656831513000,0.34751318359375,0.14109474420547485,0.0705161988735199,-0.02213897556066513
1772698656841470000,0.357469970703125,0.15928137302398682,0.0934942439198494,-0.08677938580513
1772698656851427000,0.367427001953125,0.17226801812648773,0.08401445299386978,-0.13107600808143616
1772698656861384200,0.37738427734375,0.18114306032657623,0.08554549515247345,-0.14591513574123383
1772698656871341000,0.387341064453125,0.17364174127578735,0.0711447149515152,-0.13104218244552612
1772698656881298200,0.397298095703125,0.1528662145137787,0.04909772053360939,-0.0935635045170784
1772698656891255000,0.407255126953125,0.12040254473686218,0.04656345769762993,-0.033296167850494385
1772698656901212000,0.4172119140625,0.066883884370327,0.03713347762823105,0.027835724875330925
1772698656911169000,0.4271689453125,-0.010570153594017029,0.0006484389305114746,0.07024549692869186
1772698656921126100,0.437126220703125,-0.08031518012285233,-0.03968406468629837,0.11290519684553146
1772698656931083000,0.4470830078125,-0.13347825407981873,-0.043556567281484604,0.16007563471794128
1772698656941040000,0.4570400390625,-0.1552077829837799,-0.04189901426434517,0.20247720181941986
1772698656950997000,0.4669970703125,-0.1419851928949356,-0.026549620553851128,0.23524634540081024
1772698656960953900,0.476953857421875,-0.11078677326440811,-0.013236217200756073,0.2648315131664276
1772698656970911000,0.486910888671875,-0.06720760464668274,-0.0026296458672732115,0.2753877341747284
1772698656980868000,0.4968681640625,-0.02588149532675743,-0.00155744981020689,0.27461475133895874
1772698656990825200,0.5068251953125,0.0102261733263731,-0.02571924403309822,0.2517075538635254
1772698657000782000,0.516781982421875,0.030246727168560028,-0.04007953405380249,0.2247527837753296
1772698657010739200,0.5267392578125,0.04246264696121216,-0.024728544056415558,0.20062774419784546
1772698657020696000,0.536696044921875,0.02971838414669037,-0.007456351537257433,0.18889503180980682
1772698657030653000,0.54665283203125,-0.015120994299650192,0.00044072000309824944,0.19599449634552002
1772698657040610000,0.556610107421875,-0.08296749740839005,-0.011092349886894226,0.2263917177915573
1772698657050567200,0.566567138671875,-0.132276713848114,-0.0739341601729393,0.26723209023475647
1772698657060524000,0.57652392578125,-0.08323343843221664,-0.07476562261581421,0.2879312336444855
1772698657070481200,0.586481201171875,0.051982708275318146,-0.04073122516274452,0.2815156877040863
1772698657080438000,0.59643798828125,0.1694187968969345,-0.02567264810204506,0.2647992968559265
1772698657090395000,0.606394775390625,0.1791800707578659,-0.05076388642191887,0.25674402713775635
1772698657100351000,0.61635107421875,0.10663313418626785,-0.04846770316362381,0.20878060162067413
1772698657110308000,0.62630810546875,0.020838603377342224,-0.008012952283024788,0.13005942106246948
1772698657120265000,0.636264892578125,-0.03535939007997513,0.013328281231224537,0.04641154408454895
1772698657130222000,0.64622216796875,-0.03266187384724617,0.016019407659769058,0.011021859012544155
1772698657140179200,0.65617919921875,-0.013766229152679443,-0.010755212977528572,0.011125651188194752
1772698657150136000,0.666135986328125,-0.02663062885403633,0.006928976159542799,0.03984384983778
1772698657160093200,0.67609326171875,-0.06445018202066422,0.044708311557769775,0.09627383202314377
1772698657170050000,0.686050048828125,-0.09757298231124878,0.05123039335012436,0.1382540464401245
1772698657180007000,0.6960068359375,-0.1233648955821991,0.07965350896120071,0.17483758926391602
1772698657189964000,0.705964111328125,-0.13409851491451263,0.08870533108711243,0.23509986698627472
1772698657199921200,0.715921142578125,-0.10655979812145233,0.05340752378106117,0.31141313910484314
1772698657209878000,0.7258779296875,-0.06201682984828949,-0.010407142341136932,0.38266679644584656
1772698657219835100,0.735835205078125,-0.04997294023633003,-0.08553705364465714,0.41303277015686035
1772698657229792000,0.7457919921875,-0.0804235190153122,-0.16486942768096924,0.39580076932907104
1772698657239748900,0.755748779296875,-0.13108943402767181,-0.2219366878271103,0.3412133753299713
1772698657249706000,0.7657060546875,-0.18972983956336975,-0.22554899752140045,0.2509111762046814
1772698657259663000,0.7756630859375,-0.2415725290775299,-0.14324693381786346,0.14830170571804047
1772698657269620200,0.7856201171875,-0.26919645071029663,0.022420059889554977,0.00841571670025587
1772698657279577000,0.7955771484375,-0.3279161751270294,0.16438251733779907,-0.12607358396053314
1772698657289534200,0.8055341796875,-0.35236719250679016,0.36861100792884827,-0.16254717111587524
1772698657299491000,0.815490966796875,-0.30713149905204773,0.29329973459243774,-0.0059313396923244
1772698657309448000,0.825447998046875,-0.22199159860610962,0.19690582156181335,0.2374163269996643
1772698657319405000,0.835405029296875,-0.12826058268547058,0.14625942707061768,0.24842476844787598
1772698657329362200,0.845362060546875,-0.013808834366500378,0.11598248779773712,0.07446976006031036
1772698657339319000,0.855319091796875,0.1506173461675644,0.09413951635360718,-0.12391438335180283
1772698657349276200,0.865276123046875,0.342949241399765,0.06325110793113708,-0.2354254573583603
1772698657359233000,0.87523291015625,0.49025431275367737,0.03351158648729324,-0.2412337064743042
1772698657369190000,0.88518994140625,0.5507506728172302,-0.005999868735671043,-0.17648985981941223
1772698657379147000,0.89514697265625,0.5349414348602295,-0.02224542573094368,-0.06749767065048218
1772698657389104000,0.905104248046875,0.4629526734352112,0.000794644933193922,0.020025789737701416
1772698657399061000,0.91506103515625,0.35543307662010193,0.04223291203379631,0.0814736858010292
1772698657409018000,0.92501806640625,0.2399890422821045,0.057363659143447876,0.12426882237195969
1772698657418974200,0.93497412109375,0.1087583601474762,0.03667169064283371,0.1760009080171585
1772698657428931000,0.94493115234375,-0.03047116845846176,0.009110102429986,0.2195313423871994
1772698657438888200,0.95488818359375,-0.15060903131961823,-0.013229024596512318,0.27969908714294434
1772698657448845000,0.964844970703125,-0.25218677520751953,-0.053559668362140656,0.33302542567253113
1772698657458802000,0.974802001953125,-0.29773008823394775,-0.1085486114025116,0.3503163158893585
1772698657468759000,0.984759033203125,-0.24208572506904602,-0.1782320886850357,0.3164486289024353
1772698657478716200,0.994716064453125,-0.09198139607906342,-0.22211167216300964,0.24348492920398712
1772698657488673000,1.004673095703125,0.0991978868842125,-0.20501044392585754,0.17252686619758606
1772698657498630100,1.014630126953125,0.23135404288768768,-0.15535126626491547,0.14569997787475586
1772698657508587000,1.0245869140625,0.25755926966667175,-0.044703591614961624,0.1195107102394104
1772698657518544000,1.0345439453125,0.18285974860191345,0.04348485544323921,0.02449898049235344
1772698657528501000,1.0445009765625,0.0658377856016159,0.05383230000734329,-0.15721754729747772
1772698657538458000,1.0544580078125,-0.03688932582736015,-0.0009382842108607292,-0.34433358907699585
1772698657548415200,1.064415283203125,-0.10430778563022614,-0.06673353910446167,-0.4740380644798279
1772698657558372000,1.0743720703125,-0.1028953343629837,-0.13321880996227264,-0.521864116191864
1772698657568329200,1.0843291015625,-0.05007898807525635,-0.1901654452085495,-0.48002874851226807
1772698657578286000,1.0942861328125,0.0039337025955319405,-0.18144254386425018,-0.3664292097091675
1772698657588243000,1.104242919921875,-0.0030493722297251225,-0.07114718854427338,-0.16282549500465393
1772698657598200000,1.114199951171875,-0.15771062672138214,0.1130514144897461,0.12386095523834229
1772698657608157200,1.1241572265625,-0.3871616721153259,0.28815343976020813,0.40957820415496826
1772698657618114000,1.134114013671875,-0.561023473739624,0.3879988193511963,0.5694241523742676
1772698657628071200,1.1440712890625,-0.6265209913253784,0.36010485887527466,0.5486701726913452
1772698657638028000,1.154028076171875,-0.5811335444450378,0.2273271381855011,0.36494460701942444
1772698657647985000,1.16398486328125,-0.4642479419708252,0.0658349096775055,0.08618486672639847
1772698657657942000,1.17394189453125,-0.3163233697414398,-0.06582166999578476,-0.19672028720378876
1772698657667899100,1.183899169921875,-0.19762124121189117,-0.14509518444538116,-0.41855016350746155
1772698657677856000,1.19385595703125,-0.10108647495508194,-0.13751369714736938,-0.4940807521343231
1772698657687813000,1.203813232421875,-0.06951363384723663,-0.06074833869934082,-0.38330283761024475
1772698657697770200,1.213770263671875,-0.11141342669725418,0.04751049354672432,-0.14785631000995636
1772698657707726800,1.223726806640625,-0.18032512068748474,0.14430202543735504,0.0024096323177218437
1772698657717684000,1.23368408203125,-0.20005062222480774,0.19936607778072357,-0.025879530236124992
1772698657727639600,1.2436396484375,-0.15074938535690308,0.19553884863853455,-0.18274877965450287
1772698657737596700,1.2535966796875,-0.0738927572965622,0.15971028804779053,-0.3920794427394867
1772698657747553500,1.263553466796875,0.0031138744670897722,0.1216406598687172,-0.6017079949378967
1772698657757510700,1.2735107421875,0.06202548369765282,0.04921437427401543,-0.74653559923172
1772698657767467800,1.2834677734375,0.10891415923833847,-0.041226040571928024,-0.8014177680015564
1772698657777424600,1.293424560546875,0.1057354062795639,-0.1373768150806427,-0.7869078516960144
1772698657787381800,1.3033818359375,0.03736913204193115,-0.23973700404167175,-0.7161039710044861
1772698657797338600,1.313338623046875,-0.09766430407762527,-0.34564292430877686,-0.6314274072647095
1772698657807295700,1.323295654296875,-0.28400835394859314,-0.47091615200042725,-0.577671229839325
1772698657817252600,1.333252685546875,-0.4790710508823395,-0.5899655818939209,-0.5745982527732849
1772698657827209700,1.343209716796875,-0.6848537921905518,-0.679760217666626,-0.6001040935516357
1772698657837166800,1.353166748046875,-0.8601227402687073,-0.6864660382270813,-0.5720553994178772
1772698657847123700,1.363123779296875,-1.001482367515564,-0.6297862529754639,-0.4247082769870758
1772698657857080600,1.37308056640625,-1.1127101182937622,-0.5666200518608093,-0.23839494585990906
1772698657867037700,1.38303759765625,-1.1483831405639648,-0.5040386915206909,-0.09134131669998169
1772698657876994600,1.39299462890625,-1.1136032342910767,-0.450756311416626,0.023348156362771988
1772698657886951700,1.40295166015625,-1.0033694505691528,-0.4196540415287018,0.12327714264392853
1772698657896908800,1.41290869140625,-0.8402996063232422,-0.3979218602180481,0.2043546885251999
1772698657906865700,1.42286572265625,-0.6554892659187317,-0.3430767059326172,0.2526913285255432
1772698657916822800,1.43282275390625,-0.4721277356147766,-0.29063957929611206,0.2932257056236267
1772698657926779600,1.442779541015625,-0.3209906816482544,-0.21535280346870422,0.3411162793636322
1772698657936736500,1.452736572265625,-0.21813246607780457,-0.09443092346191406,0.40886688232421875
1772698657946693600,1.462693603515625,-0.13473637402057648,0.018969139084219933,0.5072131752967834
1772698657956650800,1.472650634765625,-0.0545426569879055,0.10561159998178482,0.5921995639801025
1772698657966608000,1.48260791015625,0.05271508917212486,0.20209260284900665,0.6575301289558411
1772698657976564700,1.492564697265625,0.16563686728477478,0.306351900100708,0.695012629032135
1772698657986521600,1.502521484375,0.27011638879776,0.4034222662448883,0.6830888390541077
1772698657996478700,1.512478759765625,0.39083027839660645,0.4638856053352356,0.6227210164070129
1772698658006435600,1.522435546875,0.5154960751533508,0.48640766739845276,0.5108951330184937
1772698658016392700,1.532392822265625,0.6115897297859192,0.49575647711753845,0.3638789653778076
1772698658026349800,1.542349853515625,0.6713888645172119,0.4884631335735321,0.22852835059165955
1772698658036305700,1.5523056640625,0.6955705285072327,0.4834268093109131,0.16502225399017334
1772698658046262800,1.5622626953125,0.7096772789955139,0.44422242045402527,0.17914073169231415
1772698658056219600,1.5722197265625,0.7240518927574158,0.39609163999557495,0.2428872138261795
1772698658066176800,1.5821767578125,0.7053977847099304,0.34194132685661316,0.3123595118522644
1772698658076133600,1.592133544921875,0.6477264761924744,0.2876562476158142,0.3659226596355438
1772698658086090800,1.6020908203125,0.5542857646942139,0.22825735807418823,0.4043313264846802
1772698658096047600,1.612047607421875,0.4586828351020813,0.18123792111873627,0.4270499646663666
1772698658106004700,1.622004638671875,0.37553998827934265,0.14300504326820374,0.44614163041114807
1772698658115961900,1.6319619140625,0.2987229526042938,0.12847618758678436,0.4516148865222931
1772698658125918700,1.641918701171875,0.23663429915905,0.13987265527248383,0.43898963928222656
1772698658135875600,1.65187548828125,0.25064146518707275,0.15653230249881744,0.3962419331073761
1772698658145832700,1.661832763671875,0.3411700427532196,0.15649209916591644,0.3473321795463562
1772698658155789600,1.67178955078125,0.4797678291797638,0.12709666788578033,0.3617568910121918
1772698658165746700,1.68174658203125,0.568401575088501,0.08568290621042252,0.44490692019462585
1772698658175703800,1.691703857421875,0.515219509601593,0.05234626680612564,0.5546441078186035
1772698658185660700,1.70166064453125,0.28952065110206604,-0.005047515034675598,0.6236932277679443
1772698658195617800,1.71161767578125,-0.0620458759367466,-0.07230885326862335,0.676857054233551
1772698658205574700,1.72157470703125,-0.4388192594051361,-0.13898001611232758,0.7897370457649231
1772698658215531500,1.731531494140625,-0.7519324421882629,-0.19408588111400604,0.9467645883560181
1772698658225488600,1.741488525390625,-0.9072805047035217,-0.18070296943187714,1.0377120971679688
1772698658235445800,1.75144580078125,-0.8280613422393799,-0.05717409402132034,0.9419775009155273
1772698658245402600,1.761402587890625,-0.48913365602493286,0.1295238882303238,0.6349241137504578
1772698658255359700,1.77135986328125,0.01612110063433647,0.34981122612953186,0.23313476145267487
1772698658265316600,1.781316650390625,0.5540207624435425,0.50592041015625,-0.09642209112644196
1772698658275273700,1.791273681640625,0.963425874710083,0.5235622525215149,-0.3013744652271271
1772698658285230600,1.801230712890625,1.1830639839172363,0.43844014406204224,-0.5321482419967651
1772698658295187700,1.811187744140625,1.1594414710998535,0.318640798330307,-0.9351519346237183
1772698658305144800,1.821144775390625,0.9126958250999451,0.31186676025390625,-1.2897156476974487
1772698658315101700,1.831101806640625,0.5540375113487244,0.3951987028121948,-1.277321219444275
1772698658325058800,1.841058837890625,0.2168424278497696,0.4740557074546814,-0.7972052693367004
1772698658335014700,1.8510146484375,0.011319944635033607,0.45253226161003113,-0.105063296854496
1772698658344971800,1.8609716796875,-0.037734951823949814,0.3520203232765198,0.40322843194007874
1772698658354928600,1.8709287109375,-0.043031468987464905,0.24159128963947296,0.44972869753837585
1772698658364885800,1.8808857421875,-0.02170141413807869,0.12811799347400665,0.16338588297367096
1772698658374842600,1.890842529296875,0.026109809055924416,0.04082649201154709,-0.2267492562532425
1772698658384799700,1.9007998046875,0.06492644548416138,-0.023531194776296616,-0.49364086985588074
1772698658394756900,1.9107568359375,0.04320116713643074,-0.04522210732102394,-0.555433988571167
1772698658404713700,1.920713623046875,-0.02263270691037178,-0.08064267784357071,-0.4909902811050415
1772698658414670600,1.930670654296875,-0.06419166922569275,-0.15095597505569458,-0.3999274969100952
1772698658424627700,1.940627685546875,-0.11140631884336472,-0.2255396693944931,-0.3264021575450897
1772698658434584600,1.95058447265625,-0.17936831712722778,-0.28092435002326965,-0.2835811674594879
1772698658444541700,1.960541748046875,-0.2515229284763336,-0.30413779616355896,-0.28384825587272644
1772698658454498800,1.970498779296875,-0.3061283528804779,-0.3000165522098541,-0.33901819586753845
1772698658464455700,1.98045556640625,-0.3253161609172821,-0.3057468831539154,-0.408692330121994
1772698658474412800,1.990412841796875,-0.29752013087272644,-0.326090544462204,-0.38336849212646484
1772698658484369700,2.00036962890625,-0.24116100370883942,-0.35243532061576843,-0.2742590308189392
1772698658494326500,2.010326416015625,-0.1885494887828827,-0.39173105359077454,-0.16357530653476715
1772698658504283600,2.02028369140625,-0.14283712208271027,-0.4053081274032593,-0.10942606627941132
1772698658514240800,2.03024072265625,-0.09824495017528534,-0.3933049738407135,-0.07656744867563248
1772698658524197600,2.04019775390625,-0.048700034618377686,-0.35742446780204773,-0.029185017570853233
1772698658534154800,2.05015478515625,-0.003162095323204994,-0.30379852652549744,0.024249782785773277
1772698658544111600,2.060111572265625,0.01637192629277706,-0.24858054518699646,0.09558308869600296
1772698658554068700,2.07006884765625,0.023571550846099854,-0.20866429805755615,0.16248318552970886
1772698658564025600,2.080025634765625,0.03804982453584671,-0.18031547963619232,0.21575093269348145
1772698658573982700,2.089982666015625,0.06882000714540482,-0.16442574560642242,0.2613871991634369
1772698658583939800,2.09993994140625,0.11575581878423691,-0.1553046852350235,0.3342811167240143
1772698658593896700,2.109896728515625,0.15183787047863007,-0.13594694435596466,0.4115607440471649
1772698658603853800,2.119853759765625,0.14555387198925018,-0.11261845380067825,0.4614987373352051
1772698658613810700,2.129810791015625,0.11019102483987808,-0.08101949840784073,0.47909608483314514
1772698658623767600,2.139767578125,0.090507872402668,-0.049174752086400986,0.4689808785915375
1772698658633723600,2.1497236328125,0.12885348498821259,-0.013208243995904922,0.4422398805618286
1772698658643680500,2.159680419921875,0.203057661652565,0.0127413310110569,0.4286958575248718
1772698658653637600,2.1696376953125,0.26401767134666443,0.03891647979617119,0.4404909312725067
1772698658663594800,2.1795947265625,0.3001501262187958,0.06048888340592384,0.46612438559532166
1772698658673552000,2.1895517578125,0.2993554174900055,0.06364738941192627,0.5104919075965881
1772698658683508700,2.1995087890625,0.2565147578716278,0.04345157369971275,0.5706260800361633
1772698658693465600,2.209465576171875,0.19581283628940582,0.02163734659552574,0.6644592881202698
1772698658703422700,2.219422607421875,0.1019372045993805,0.023842711001634598,0.7633917331695557
1772698658713379600,2.229379638671875,-0.021438242867588997,0.05494816228747368,0.8034598231315613
1772698658723336700,2.239336669921875,-0.11486992239952087,0.10953071713447571,0.7483347654342651
1772698658733294000,2.249294189453125,-0.05984345078468323,0.18786361813545227,0.6370305418968201
1772698658743251200,2.259251220703125,0.16813938319683075,0.22822807729244232,0.4876019060611725
1772698658753207800,2.269207763671875,0.4770282804965973,0.2374391406774521,0.30083364248275757
1772698658763165000,2.2791650390625,0.6772409677505493,0.22365301847457886,0.04676995798945427
1772698658773122000,2.2891220703125,0.7238579392433167,0.21673333644866943,-0.13739582896232605
1772698658783079000,2.299078857421875,0.614518940448761,0.2131897360086441,-0.1699276864528656
1772698658793036000,2.3090361328125,0.40650802850723267,0.15301001071929932,-0.08814486861228943
1772698658802993200,2.3189931640625,0.1945129781961441,0.02288290113210678,0.030113866552710533
1772698658812950000,2.328949951171875,0.022384073585271835,-0.1261630356311798,0.11699092388153076
1772698658822907000,2.338906982421875,-0.10644102096557617,-0.2724885642528534,0.12200059741735458
1772698658832864000,2.348864013671875,-0.2042323499917984,-0.4091601073741913,-0.008201077580451965
1772698658842821000,2.358821044921875,-0.25274476408958435,-0.4895976781845093,-0.25762927532196045
1772698658852778000,2.368778076171875,-0.3120307922363281,-0.455999493598938,-0.5767763257026672
1772698658862735000,2.378735107421875,-0.3849979341030121,-0.3379223942756653,-0.8057522773742676
1772698658872692200,2.388692138671875,-0.386880487203598,-0.1308102309703827,-0.7575982809066772
1772698658882648800,2.39864892578125,-0.25361937284469604,0.058344777673482895,-0.4601181447505951
1772698658892606000,2.40860595703125,0.07747045904397964,0.20497308671474457,-0.0963047668337822
1772698658902563000,2.41856298828125,0.44636300206184387,0.3214152753353119,0.13126420974731445
1772698658912520000,2.42852001953125,0.7005841135978699,0.404051810503006,0.1807820349931717
1772698658922476000,2.43847607421875,0.7958695888519287,0.44948962330818176,0.11906088143587112
1772698658932433200,2.44843310546875,0.7450842261314392,0.44385355710983276,0.026349851861596107
1772698658942390000,2.45839013671875,0.6004074215888977,0.39854946732521057,-0.01960698701441288
1772698658952347100,2.46834716796875,0.3732999563217163,0.332649827003479,-0.028972424566745758
1772698658962304000,2.478303955078125,0.08331873267889023,0.2679917514324188,-0.048446524888277054
1772698658972260900,2.4882607421875,-0.19529956579208374,0.1969604343175888,-0.10805971175432205
1772698658982218000,2.498218017578125,-0.3660462498664856,0.11073873192071915,-0.1610957682132721
1772698658992175000,2.508175048828125,-0.38666895031929016,0.007934583351016045,-0.11829008162021637
1772698659002132000,2.518132080078125,-0.3163534998893738,-0.08781511336565018,0.015508994460105896
1772698659012089000,2.528089111328125,-0.2705807089805603,-0.14404934644699097,0.14771223068237305
1772698659022046200,2.538046142578125,-0.2975209951400757,-0.17088255286216736,0.11394840478897095
1772698659032002800,2.5480029296875,-0.3462182581424713,-0.14629492163658142,-0.07443071901798248
1772698659041960000,2.5579599609375,-0.37026527523994446,-0.09966350346803665,-0.29026901721954346
1772698659051917000,2.5679169921875,-0.34415319561958313,-0.04289264231920242,-0.4534827768802643
1772698659061874000,2.5778740234375,-0.2799992561340332,-0.01230490580201149,-0.5433724522590637
1772698659071831000,2.5878310546875,-0.20147830247879028,-0.006703221704810858,-0.5896598696708679
1772698659081788200,2.5977880859375,-0.12065376341342926,-0.017659999430179596,-0.5653516054153442
1772698659091745000,2.6077451171875,-0.07973857969045639,-0.04257892444729805,-0.46703290939331055
1772698659101702000,2.617701904296875,-0.10190460830926895,-0.0726390853524208,-0.3256555497646332
1772698659111659000,2.627658935546875,-0.1779528558254242,-0.09504317492246628,-0.18736496567726135
1772698659121616100,2.6376162109375,-0.2701363265514374,-0.11065196245908737,-0.08021081984043121
1772698659131573000,2.647572998046875,-0.3253190517425537,-0.1236514076590538,-0.005405583418905735
1772698659141530000,2.657530029296875,-0.3272024393081665,-0.10957340151071548,0.0466938391327858
1772698659151487200,2.6674873046875,-0.29346391558647156,-0.07580398768186569,0.0809391587972641
1772698659161443800,2.67744384765625,-0.24098125100135803,-0.05010661855340004,0.09502248466014862
1772698659171401000,2.68740087890625,-0.154507115483284,-0.027148567140102386,0.10484252870082855
1772698659181358000,2.697358154296875,-0.0383852943778038,0.00018958142027258873,0.12132669985294342
1772698659191314000,2.70731396484375,0.0849997028708458,0.011958369985222816,0.13136973977088928
1772698659201271000,2.71727099609375,0.19304493069648743,0.007261085323989391,0.12042706459760666
1772698659211228200,2.727228271484375,0.2609572112560272,0.00899478979408741,0.10170348733663559
1772698659221185000,2.73718505859375,0.26361316442489624,0.00543068116530776,0.10436398535966873
1772698659231142100,2.74714208984375,0.2190084159374237,-0.005035005509853363,0.14008089900016785
1772698659241099000,2.75709912109375,0.14933480322360992,-0.04255042225122452,0.2316875159740448
1772698659251055900,2.767055908203125,0.05566925182938576,-0.10596533864736557,0.3560311496257782
1772698659261013000,2.777012939453125,-0.06044883280992508,-0.1920616179704666,0.4703606367111206
1772698659270970000,2.78697021484375,-0.21181777119636536,-0.25900977849960327,0.53465336561203
1772698659280927000,2.796927001953125,-0.4023195505142212,-0.27963700890541077,0.575445830821991
1772698659290884000,2.806884033203125,-0.6383824944496155,-0.2514799237251282,0.6018007397651672
1772698659300841200,2.81684130859375,-0.8229967951774597,-0.18013888597488403,0.6084895730018616
1772698659310797800,2.8267978515625,-0.8503053188323975,-0.10808948427438736,0.563481330871582
1772698659320755000,2.8367548828125,-0.6695438027381897,-0.015794705599546432,0.44635632634162903
1772698659330712000,2.846712158203125,-0.3498675525188446,0.08162611722946167,0.25119441747665405
1772698659340669000,2.8566689453125,-0.026304656639695168,0.15700876712799072,0.059019673615694046
1772698659350626000,2.8666259765625,0.2365855723619461,0.22626584768295288,-0.03259246051311493
1772698659360583200,2.876583251953125,0.40255802869796753,0.30196115374565125,0.02739710547029972
1772698659370540000,2.8865400390625,0.46516335010528564,0.3309943974018097,0.12426719069480896
1772698659380497000,2.896496826171875,0.4171854555606842,0.2730831503868103,0.04943982511758804
1772698659390454000,2.9064541015625,0.278299480676651,0.12238738685846329,-0.19555693864822388
1772698659400411100,2.9164111328125,0.0811869204044342,-0.06994343549013138,-0.35919061303138733
1772698659410368000,2.926367919921875,-0.12224160879850388,-0.15389931201934814,-0.33858615159988403
1772698659420325000,2.9363251953125,-0.2909826934337616,-0.17594389617443085,-0.16656619310379028
1772698659430282200,2.9462822265625,-0.3718370199203491,-0.21968339383602142,0.13542407751083374
1772698659440238800,2.95623876953125,-0.33529341220855713,-0.27006348967552185,0.4336778521537781
1772698659450196000,2.966196044921875,-0.2380765974521637,-0.3242579996585846,0.5255358219146729
1772698659460153000,2.976153076171875,-0.13552120327949524,-0.3725155293941498,0.4051539897918701
1772698659470110000,2.98610986328125,-0.047770507633686066,-0.4008209705352783,0.13758143782615662
1772698659480067000,2.996067138671875,-0.002511685248464346,-0.4017743766307831,-0.1563766747713089
1772698659490024200,3.006024169921875,0.001613290049135685,-0.3835892379283905,-0.3525458872318268
1772698659499980000,3.01597998046875,-0.038496844470500946,-0.3621649146080017,-0.41006189584732056
1772698659509937200,3.025937255859375,-0.10369612276554108,-0.3441595435142517,-0.3849591314792633
1772698659519894000,3.03589404296875,-0.17104986310005188,-0.33889341354370117,-0.3343515992164612
1772698659529851000,3.045850830078125,-0.22313888370990753,-0.3319748044013977,-0.271081805229187
1772698659539808000,3.05580810546875,-0.24900883436203003,-0.3093978464603424,-0.26072263717651367
1772698659549765000,3.06576513671875,-0.2490839660167694,-0.2776724100112915,-0.28393062949180603
1772698659559722000,3.075721923828125,-0.23483845591545105,-0.24652858078479767,-0.31325364112854004
1772698659569679000,3.08567919921875,-0.21690577268600464,-0.20413239300251007,-0.32610565423965454
1772698659579636200,3.09563623046875,-0.21419814229011536,-0.152769073843956,-0.32056334614753723
1772698659589592800,3.1055927734375,-0.2155131995677948,-0.11129593849182129,-0.28528839349746704
1772698659599550000,3.115550048828125,-0.2077394276857376,-0.06373267620801926,-0.20164914429187775
1772698659609507000,3.125507080078125,-0.1871955394744873,-0.012929152697324753,-0.08071023970842361
1772698659619464000,3.1354638671875,-0.13905782997608185,0.0274699367582798,0.03864997997879982
1772698659629421000,3.145421142578125,-0.05758831650018692,0.05848405510187149,0.13458377122879028
1772698659639378200,3.155378173828125,0.022895077243447304,0.09372885525226593,0.19252802431583405
1772698659649334800,3.165334716796875,0.08959448337554932,0.12841413915157318,0.22065503895282745
1772698659659292000,3.1752919921875,0.16854868829250336,0.1607353240251541,0.234063521027565
1772698659669249000,3.1852490234375,0.2546878159046173,0.17595848441123962,0.24774307012557983
1772698659679206100,3.1952060546875,0.3332494795322418,0.18733923137187958,0.2564670741558075
1772698659689163000,3.2051630859375,0.3793342113494873,0.20334374904632568,0.24113312363624573
1772698659699120000,3.2151201171875,0.35734793543815613,0.22516223788261414,0.2218600958585739
1772698659709077000,3.225076904296875,0.2902766764163971,0.2477053999900818,0.22013738751411438
1772698659719033900,3.235033935546875,0.20183230936527252,0.23303669691085815,0.23771904408931732
1772698659728990700,3.24499072265625,0.10642729699611664,0.19129987061023712,0.2753503918647766
1772698659738947800,3.25494775390625,0.011069617234170437,0.12024834007024765,0.319364994764328
1772698659748904700,3.26490478515625,-0.07751856744289398,0.05458890274167061,0.39500975608825684
1772698659758861800,3.27486181640625,-0.15387405455112457,-0.009928038343787193,0.4760473370552063
1772698659768819000,3.28481884765625,-0.227152019739151,-0.04117170348763466,0.5352091193199158
1772698659778775800,3.29477587890625,-0.3172350525856018,-0.06068601831793785,0.550886332988739
1772698659788732000,3.30473193359375,-0.40096670389175415,-0.06637345999479294,0.5196202397346497
1772698659798688800,3.314688720703125,-0.43131181597709656,-0.0217394158244133,0.45875874161720276
1772698659808645600,3.324645751953125,-0.39842846989631653,0.07137561589479446,0.3929900527000427
1772698659818602800,3.334602783203125,-0.2521796226501465,0.18094445765018463,0.36194053292274475
1772698659828560000,3.344559814453125,0.01363690011203289,0.2539193034172058,0.3380449116230011
1772698659838516700,3.354516845703125,0.319331556558609,0.25283434987068176,0.3351537883281708
1772698659848473900,3.364473876953125,0.5654029250144958,0.2416168451309204,0.3502000868320465
1772698659858431000,3.374430908203125,0.6726862192153931,0.23430326581001282,0.25993970036506653
1772698659868387600,3.3843876953125,0.6768787503242493,0.2523895800113678,0.058663222938776016
1772698659878344700,3.3943447265625,0.669861376285553,0.27190205454826355,-0.13018286228179932
1772698659888301800,3.4043017578125,0.6757216453552246,0.26237377524375916,-0.24679237604141235
1772698659898259000,3.414259033203125,0.6866192817687988,0.21937279403209686,-0.28959202766418457
1772698659908215800,3.4242158203125,0.6556879878044128,0.10255111008882523,-0.26682427525520325
1772698659918173000,3.4341728515625,0.4960482716560364,-0.07624739408493042,-0.21817046403884888
1772698659928129800,3.4441298828125,0.20581941306591034,-0.22159609198570251,-0.2294977754354477
1772698659938086700,3.454086669921875,-0.12393292784690857,-0.27488380670547485,-0.34036996960639954
1772698659948043800,3.464043701171875,-0.3254855275154114,-0.20942968130111694,-0.48824670910835266
1772698659958001000,3.4740009765625,-0.3354358971118927,-0.11542036384344101,-0.5397743582725525
1772698659967957800,3.483957763671875,-0.20565152168273926,-0.05640711635351181,-0.47042208909988403
1772698659977915000,3.493914794921875,-0.013384336605668068,-0.049643222242593765,-0.34507614374160767
1772698659987872000,3.5038720703125,0.15845003724098206,-0.04015970975160599,-0.208445206284523
1772698659997828600,3.51382861328125,0.2619279623031616,0.039457350969314575,-0.064859539270401
1772698660007785700,3.52378564453125,0.2948334515094757,0.1498485654592514,0.028746066614985466
1772698660017742800,3.533742919921875,0.2951173186302185,0.22794950008392334,0.03910735994577408
1772698660027699700,3.54369970703125,0.2573648691177368,0.24623717367649078,-0.03206389769911766
1772698660037656800,3.55365673828125,0.15533332526683807,0.20946477353572845,-0.1402721256017685
1772698660047614000,3.563614013671875,-0.02339193783700466,0.1631113737821579,-0.24676358699798584
1772698660057570800,3.57357080078125,-0.2561231851577759,0.14578405022621155,-0.3321107029914856
1772698660067527700,3.583527587890625,-0.47978663444519043,0.09724155068397522,-0.3914475440979004
1772698660077484800,3.59348486328125,-0.5558701753616333,0.036274075508117676,-0.3707188367843628
1772698660087440600,3.603440673828125,-0.4802617132663727,-0.031928952783346176,-0.27454474568367004
1772698660097397800,3.613397705078125,-0.34406259655952454,-0.08833150565624237,-0.15061239898204803
1772698660107355000,3.62335498046875,-0.2188461571931839,-0.11720894277095795,-0.045443955808877945
1772698660117311700,3.633311767578125,-0.1550605148077011,-0.1059110164642334,-0.02218044549226761
1772698660127268900,3.643268798828125,-0.17045143246650696,-0.08940581977367401,-0.10738974064588547
1772698660137226000,3.65322607421875,-0.2108667641878128,-0.06944888830184937,-0.23019050061702728
1772698660147182600,3.6631826171875,-0.2490120679140091,-0.062122784554958344,-0.3614473342895508
1772698660157139700,3.6731396484375,-0.26780813932418823,-0.07165583968162537,-0.4668765366077423
1772698660167096800,3.683096923828125,-0.2553708553314209,-0.08668459951877594,-0.5249830484390259
1772698660177054000,3.693053955078125,-0.23498010635375977,-0.10057272017002106,-0.5063084363937378
1772698660187010800,3.7030107421875,-0.22460228204727173,-0.10618293285369873,-0.41962751746177673
1772698660196968000,3.712968017578125,-0.24090348184108734,-0.10057671368122101,-0.3344801366329193
1772698660206924800,3.7229248046875,-0.2565958797931671,-0.09542962908744812,-0.26276591420173645
1772698660216881700,3.732881591796875,-0.23719848692417145,-0.08054335415363312,-0.13789452612400055
1772698660226838800,3.7428388671875,-0.21431851387023926,-0.07111948728561401,0.02804308943450451
1772698660236796000,3.7527958984375,-0.19338446855545044,-0.06309298425912857,0.17661231756210327
1772698660246752800,3.762752685546875,-0.17168369889259338,-0.06499874591827393,0.25419554114341736
1772698660256710000,3.7727099609375,-0.16155463457107544,-0.0602700337767601,0.2660852372646332
1772698660266667000,3.7826669921875,-0.16276372969150543,-0.043428998440504074,0.2376747727394104
1772698660276623600,3.79262353515625,-0.1530812680721283,-0.01661655865609646,0.21715618669986725
1772698660286580700,3.802580810546875,-0.11433463543653488,0.008651504293084145,0.22611765563488007
1772698660296537900,3.812537841796875,-0.07109422236680984,0.0217936709523201,0.23744380474090576
1772698660306494700,3.82249462890625,-0.023938478901982307,0.04375144839286804,0.21998919546604156
1772698660316451800,3.832451904296875,-0.008783228695392609,0.048339009284973145,0.19261083006858826
1772698660326409000,3.842408935546875,-0.015379847958683968,0.040670428425073624,0.18014872074127197
1772698660336365800,3.85236572265625,-0.01954236999154091,0.024479743093252182,0.23726606369018555
1772698660346322700,3.86232275390625,-0.042312394827604294,-0.012135794386267662,0.41266030073165894
1772698660356279800,3.87227978515625,-0.08512909710407257,-0.10097618401050568,0.6183998584747314
1772698660366237000,3.88223681640625,-0.15335607528686523,-0.18076635897159576,0.7882856130599976
1772698660376192800,3.89219287109375,-0.2539673447608948,-0.2203177660703659,0.9066194295883179
1772698660386150000,3.90214990234375,-0.3489471971988678,-0.20540378987789154,0.972922682762146
1772698660396106800,3.912106689453125,-0.4388113021850586,-0.12977586686611176,0.8862437009811401
1772698660406063900,3.92206396484375,-0.5083726644515991,-0.005735174287110567,0.6775120496749878
1772698660416021000,3.93202099609375,-0.5055225491523743,0.15373145043849945,0.4431546628475189
1772698660425977600,3.9419775390625,-0.38779231905937195,0.35566461086273193,0.1712225079536438
1772698660435934700,3.951934814453125,-0.16859498620033264,0.5272773504257202,-0.07425250113010406
1772698660445891800,3.961891845703125,0.133250892162323,0.669255256652832,-0.15524956583976746
1772698660455849000,3.971848876953125,0.46872955560684204,0.7946352958679199,-0.053876083344221115
1772698660465805800,3.981805908203125,0.7273182272911072,0.7851437926292419,-0.015333288349211216
1772698660475763000,3.991762939453125,0.8707446455955505,0.6178381443023682,-0.27882832288742065
1772698660485719800,4.0017197265625,0.8690255880355835,0.3842722475528717,-0.7592331767082214
1772698660495676700,4.0116767578125,0.6819731593132019,0.168289914727211,-1.079314947128296
1772698660505633800,4.0216337890625,0.35101544857025146,0.12884770333766937,-1.0435892343521118
1772698660515591000,4.0315908203125,-0.05900934711098671,0.18113912642002106,-0.7197362780570984
1772698660525547800,4.0415478515625,-0.4397340714931488,0.22300028800964355,-0.234640434384346
1772698660535505000,4.0515048828125,-0.659870982170105,0.1755526214838028,0.20581737160682678
1772698660545462000,4.0614619140625,-0.6916331648826599,0.13103067874908447,0.34647631645202637
1772698660555418600,4.071418701171875,-0.5542310476303101,0.07865722477436066,0.22169414162635803
1772698660565375700,4.081375732421875,-0.3052947521209717,0.06498482078313828,-0.029928067699074745
1772698660575332900,4.091332763671875,-0.032266415655612946,0.08393987268209457,-0.2890051603317261
1772698660585289700,4.101289794921875,0.18183468282222748,0.12696510553359985,-0.47615641355514526
1772698660595246800,4.111246826171875,0.308164119720459,0.15913982689380646,-0.5562129020690918
1772698660605204000,4.121203857421875,0.36819782853126526,0.15163636207580566,-0.5449591875076294
1772698660615160600,4.13116064453125,0.4034983217716217,0.09765409678220749,-0.47482219338417053
1772698660625117700,4.14111767578125,0.42619144916534424,0.006422172300517559,-0.35001489520072937
1772698660635074800,4.15107470703125,0.40023308992385864,-0.09108787029981613,-0.19639204442501068
1772698660645032000,4.161031982421875,0.30106496810913086,-0.17807817459106445,-0.05805683135986328
1772698660654988800,4.17098876953125,0.14193283021450043,-0.23857159912586212,0.01047908328473568
1772698660664946000,4.18094580078125,-0.026888422667980194,-0.2530099153518677,0.04404418542981148
1772698660674903000,4.190903076171875,-0.17218755185604095,-0.22164800763130188,0.03339660167694092
1772698660684859600,4.200859619140625,-0.24645568430423737,-0.1703547239303589,0.0020860107615590096
1772698660694816000,4.21081591796875,-0.22712725400924683,-0.13167549669742584,-0.047011226415634155
1772698660704772600,4.220772705078125,-0.13930414617061615,-0.11034359782934189,-0.07609669864177704
1772698660714729700,4.230729736328125,0.004751297645270824,-0.10619785636663437,-0.07535527646541595
1772698660724686800,4.240686767578125,0.15693704783916473,-0.11573115736246109,-0.04361441358923912
1772698660734643700,4.250643798828125,0.285447895526886,-0.1265646368265152,0.01559724472463131
1772698660744600800,4.260600830078125,0.34843456745147705,-0.12292488664388657,0.05284101888537407
1772698660754558000,4.270557861328125,0.35389775037765503,-0.09998761117458344,0.06523191183805466
1772698660764514800,4.280514892578125,0.31753477454185486,-0.06099255755543709,0.07934615015983582
1772698660774471700,4.2904716796875,0.24415349960327148,-0.018451225012540817,0.09702980518341064
1772698660784428800,4.3004287109375,0.16966143250465393,0.01660209894180298,0.12124864757061005
1772698660794386000,4.310385986328125,0.12835979461669922,0.030610060319304466,0.12817925214767456
1772698660804342800,4.3203427734375,0.13414286077022552,0.028717081993818283,0.1010131686925888
1772698660814300000,4.3302998046875,0.17310117185115814,0.014772770926356316,0.05474820360541344
1772698660824257000,4.340257080078125,0.2215762734413147,-0.017536688596010208,0.027291109785437584
1772698660834213600,4.350213623046875,0.25445884466171265,-0.03763929754495621,0.0654294416308403
1772698660844170800,4.360170654296875,0.2476664036512375,-0.04959075152873993,0.14664264023303986
1772698660854127900,4.3701279296875,0.17978882789611816,-0.09237203747034073,0.23796004056930542
1772698660864084700,4.380084716796875,0.06261058896780014,-0.1571800708770752,0.30605509877204895
1772698660874041900,4.390041748046875,-0.07655822485685349,-0.23062632977962494,0.36016443371772766
1772698660883999000,4.3999990234375,-0.2161363661289215,-0.2884976267814636,0.3985481858253479
1772698660893955600,4.40995556640625,-0.3460102379322052,-0.3132604956626892,0.3342549502849579
1772698660903912700,4.41991259765625,-0.42770498991012573,-0.30412691831588745,0.16618694365024567
1772698660913869800,4.429869873046875,-0.39286500215530396,-0.2660762071609497,0.026230374351143837
1772698660923827000,4.439826904296875,-0.27878162264823914,-0.22829633951187134,0.04470261186361313
1772698660933783800,4.44978369140625,-0.1851976215839386,-0.15216533839702606,0.2943316102027893
1772698660943741000,4.459740966796875,-0.16869214177131653,-0.08153723925352097,0.6015554666519165
1772698660953697800,4.46969775390625,-0.1370479315519333,0.011925860308110714,0.7046738266944885
1772698660963654700,4.479654541015625,-0.03444994240999222,0.11015363037586212,0.46790677309036255
1772698660973611800,4.48961181640625,0.1728462427854538,0.07844363898038864,-0.012777309864759445
1772698660983569000,4.49956884765625,0.43037718534469604,-0.06351218372583389,-0.6196557283401489
1772698660993525800,4.50952587890625,0.6086633205413818,-0.1545795053243637,-1.1511139869689941
1772698661003481900,4.51948193359375,0.6016506552696228,-0.07895772159099579,-1.3827437162399292
1772698661013440000,4.52943994140625,0.4059067666530609,0.08772128075361252,-1.1703912019729614
1772698661023395800,4.539395751953125,0.10851150751113892,0.22691379487514496,-0.6161908507347107
1772698661033353000,4.54935302734375,-0.12788105010986328,0.31435441970825195,0.006100143771618605
1772698661043309800,4.559309814453125,-0.2135283201932907,0.3975755572319031,0.4451807737350464
1772698661053266700,4.5692666015625,-0.14257319271564484,0.5220061540603638,0.5785302519798279
1772698661063223800,4.579223876953125,0.06435687094926834,0.597380518913269,0.5224513411521912
1772698661073181000,4.589180908203125,0.2978748381137848,0.6461283564567566,0.41389742493629456
1772698661083137800,4.5991376953125,0.4610349237918854,0.6568704843521118,0.3360138237476349
1772698661093095000,4.609094970703125,0.4705844819545746,0.6586348414421082,0.31565287709236145
1772698661103051800,4.6190517578125,0.3115391433238983,0.6285059452056885,0.31517714262008667
1772698661113008600,4.629008544921875,0.051131270825862885,0.5735532641410828,0.27372848987579346
1772698661122965800,4.6389658203125,-0.19610700011253357,0.4713347256183624,0.19600367546081543
1772698661132923000,4.6489228515625,-0.34374916553497314,0.29328563809394836,0.10317280143499374
1772698661142879700,4.658879638671875,-0.36365658044815063,0.07976509630680084,0.027977673336863518
1772698661152836900,4.6688369140625,-0.2845441699028015,-0.12305911630392075,-0.004179464187473059
1772698661162794000,4.6787939453125,-0.17348656058311462,-0.2865774929523468,0.015330418944358826
1772698661172750600,4.68875048828125,-0.07919014990329742,-0.36356785893440247,0.0813661590218544
1772698661182707700,4.698707763671875,-0.030097531154751778,-0.3562372624874115,0.1246788427233696
1772698661192664800,4.708664794921875,-0.038869984447956085,-0.3257019817829132,0.13452722132205963
1772698661202621700,4.71862158203125,-0.0870116651058197,-0.3117179870605469,0.0572383776307106
1772698661212578800,4.728578857421875,-0.14095371961593628,-0.31735536456108093,-0.10015737265348434
1772698661222536000,4.738535888671875,-0.16465529799461365,-0.32075196504592896,-0.28466472029685974
1772698661232492800,4.748492919921875,-0.17766590416431427,-0.3407485783100128,-0.44431960582733154
1772698661242449700,4.75844970703125,-0.17232894897460938,-0.37150436639785767,-0.5467503666877747
1772698661252406800,4.76840673828125,-0.15002338588237762,-0.40020951628685,-0.6014775037765503
1772698661262364000,4.778364013671875,-0.13116177916526794,-0.41168081760406494,-0.5974026918411255
1772698661272320800,4.78832080078125,-0.13828840851783752,-0.4367928206920624,-0.5284382700920105
1772698661282278000,4.79827783203125,-0.15174353122711182,-0.45583415031433105,-0.4058457016944885
1772698661292235000,4.808235107421875,-0.17976558208465576,-0.45937350392341614,-0.2711182236671448
1772698661302191600,4.818191650390625,-0.1975213885307312,-0.454490065574646,-0.16021457314491272
1772698661312148700,4.828148681640625,-0.18482211232185364,-0.4246320128440857,-0.0969378724694252
1772698661322105900,4.83810595703125,-0.1366550624370575,-0.368347704410553,-0.0751844272017479
1772698661332061700,4.848061767578125,-0.058518990874290466,-0.31015869975090027,-0.09559622406959534
1772698661342018800,4.858018798828125,0.06284736096858978,-0.24698959290981293,-0.1281617134809494
1772698661351976000,4.867975830078125,0.2241095006465912,-0.18186518549919128,-0.1506635695695877
1772698661361932800,4.877932861328125,0.40230053663253784,-0.14133107662200928,-0.15330323576927185
1772698661371890000,4.887889892578125,0.5732725262641907,-0.12160903960466385,-0.13792961835861206
1772698661381846800,4.8978466796875,0.7213767766952515,-0.1140347272157669,-0.12364219129085541
1772698661391803600,4.9078037109375,0.8248448371887207,-0.1344502717256546,-0.11698908358812332
1772698661401760800,4.9177607421875,0.8705913424491882,-0.16314609348773956,-0.08025525510311127
1772698661411718000,4.9277177734375,0.850149393081665,-0.16144859790802002,0.07528959959745407
1772698661421674800,4.9376748046875,0.7167353630065918,-0.18356986343860626,0.2712048292160034
1772698661431632000,4.9476318359375,0.5156198740005493,-0.19583824276924133,0.4119430482387543
1772698661441589000,4.957589111328125,0.3159496784210205,-0.22083735466003418,0.4763100743293762
1772698661451545600,4.967545654296875,0.16967076063156128,-0.2630907893180847,0.4911755621433258
1772698661461502700,4.977502685546875,0.09407341480255127,-0.28896579146385193,0.5082190036773682
1772698661471459800,4.9874599609375,0.037842895835638046,-0.27947643399238586,0.5764481425285339
1772698661481416700,4.997416748046875,0.037524957209825516,-0.19084136188030243,0.7517663836479187
1772698661491373800,5.007373779296875,0.09771772474050522,-0.06941667199134827,1.0387275218963623
1772698661501331000,5.0173310546875,0.18378973007202148,0.04299962893128395,1.3134430646896362
1772698661511287800,5.027287841796875,0.2966960668563843,0.2580677270889282,1.3330825567245483
1772698661521244700,5.03724462890625,0.43455401062965393,0.4522246718406677,0.979010283946991
1772698661531201800,5.047201904296875,0.6271644830703735,0.5128139853477478,0.34308281540870667
1772698661541159000,5.057158935546875,0.8732426762580872,0.46719005703926086,-0.4299450218677521
1772698661551115800,5.06711572265625,1.0687637329101562,0.32007116079330444,-1.1878368854522705
1772698661561073000,5.077072998046875,1.1224491596221924,0.08514866232872009,-1.6848533153533936
1772698661571030000,5.087030029296875,1.0440070629119873,-0.07646074146032333,-1.739153504371643
1772698661580986600,5.096986572265625,0.7880247831344604,-0.09382375329732895,-1.3151684999465942
1772698661590943700,5.10694384765625,0.320586234331131,-0.010163472034037113,-0.5600640773773193
1772698661600900900,5.11690087890625,-0.24594801664352417,0.11766079813241959,0.299569696187973
1772698661610857700,5.126857666015625,-0.7551380395889282,0.3015643358230591,0.9904043078422546
1772698661620814800,5.13681494140625,-1.1264917850494385,0.5156883597373962,1.2372633218765259
1772698661630772000,5.14677197265625,-1.2982558012008667,0.5745900273323059,0.9741587042808533
1772698661640728800,5.156728759765625,-1.2257401943206787,0.46475884318351746,0.24140143394470215
1772698661650685700,5.166685791015625,-0.9289271831512451,0.2882850170135498,-0.6514989137649536
1772698661660641800,5.176641845703125,-0.5670384764671326,0.16552101075649261,-1.2927266359329224
1772698661670598700,5.1865986328125,-0.29514753818511963,0.17778167128562927,-1.5559691190719604
1772698661680555800,5.1965556640625,-0.12572066485881805,0.2528657615184784,-1.5388641357421875
1772698661690513000,5.206512939453125,-0.004462676588445902,0.3773709535598755,-1.385730504989624
1772698661700469800,5.2164697265625,0.061521127820014954,0.46285203099250793,-1.1739317178726196
1772698661710427000,5.226427001953125,0.0749402567744255,0.5167672038078308,-0.9399920105934143
1772698661720384000,5.236384033203125,0.029671059921383858,0.5217275619506836,-0.6820610165596008
1772698661730340600,5.246340576171875,-0.09570550918579102,0.4654936194419861,-0.43916797637939453
1772698661740297500,5.25629736328125,-0.3002605438232422,0.3679358959197998,-0.28644895553588867
1772698661750254600,5.266254638671875,-0.5083103775978088,0.2792086899280548,-0.21717612445354462
1772698661760211500,5.27621142578125,-0.6615896821022034,0.2054002434015274,-0.15373696386814117
1772698661770168600,5.28616845703125,-0.7209084033966064,0.14735504984855652,-0.03867669403553009
1772698661780125700,5.296125732421875,-0.7012865543365479,0.06464846432209015,0.10962193459272385
1772698661790082600,5.30608251953125,-0.629840612411499,-0.011558959260582924,0.23708908259868622
1772698661800039400,5.316039306640625,-0.5183939933776855,-0.06079920753836632,0.312302827835083
1772698661809996500,5.32599658203125,-0.3939516246318817,-0.061559539288282394,0.33303871750831604
1772698661819953700,5.33595361328125,-0.29302898049354553,0.0017954516224563122,0.34745147824287415
1772698661829910500,5.34591064453125,-0.21656668186187744,0.10108928382396698,0.3743824362754822
1772698661839867600,5.35586767578125,-0.1374732404947281,0.1726502925157547,0.3519512712955475
1772698661849824800,5.36582470703125,0.012225715443491936,0.20693182945251465,0.27620750665664673
1772698661859781400,5.375781494140625,0.19527487456798553,0.2083236128091812,0.18938833475112915
1772698661869738500,5.385738525390625,0.3383675813674927,0.15739625692367554,0.14027884602546692
1772698661879695600,5.395695556640625,0.41426336765289307,0.09779204428195953,0.13567087054252625
1772698661889652500,5.405652587890625,0.4085186719894409,0.05373137444257736,0.12124533206224442
1772698661899609600,5.415609619140625,0.3600763976573944,0.09237968176603317,0.03261871635913849
1772698661909566700,5.425566650390625,0.30951520800590515,0.21110793948173523,-0.07738501578569412
1772698661919523600,5.435523681640625,0.2579314112663269,0.2835216820240021,-0.2536661922931671
1772698661929480400,5.44548046875,0.2692762017250061,0.28090858459472656,-0.5059140920639038
1772698661939437600,5.4554375,0.3740345239639282,0.22452200949192047,-0.7358565330505371
1772698661949394400,5.46539453125,0.5190175771713257,0.1349220871925354,-0.8174595236778259
1772698661959351600,5.4753515625,0.6473427414894104,0.039768949151039124,-0.7148218154907227
1772698661969308700,5.48530859375,0.6808889508247375,-0.036880020052194595,-0.4342218339443207
1772698661979265500,5.495265625,0.558070719242096,-0.08117932826280594,-0.07499906420707703
1772698661989222400,5.505222412109375,0.3040666878223419,0.008152948692440987,0.2714555561542511
1772698661999178800,5.5151787109375,-0.1795269399881363,0.23138684034347534,0.9678558111190796
1772698662009135400,5.52513525390625,-0.7218437194824219,-0.17922386527061462,1.4685410261154175
1772698662019092500,5.535092529296875,-1.038661003112793,-0.21320633590221405,1.2185696363449097
1772698662029049600,5.545049560546875,-1.1302546262741089,-0.23346500098705292,0.6509644389152527
1772698662039006500,5.55500634765625,-1.0193912982940674,-0.31950506567955017,0.28529539704322815
1772698662048963600,5.564963623046875,-0.46167317032814026,-0.3569187521934509,0.19517534971237183
1772698662058920700,5.574920654296875,0.17331241071224213,-0.2872994542121887,0.10772479325532913
1772698662068877600,5.584877685546875,0.8086193203926086,-0.1453026682138443,-0.10598588734865189
1772698662078834400,5.59483447265625,1.117794156074524,-0.11904440820217133,-0.1396392583847046
1772698662088791600,5.60479150390625,1.2457633018493652,-0.08684785664081573,0.06573040038347244
1772698662098748700,5.614748779296875,1.0873912572860718,-0.005562308710068464,0.05601521581411362
1772698662108705500,5.62470556640625,0.7595496773719788,0.034860480576753616,-0.07612763345241547
1772698662118662700,5.63466259765625,0.39074406027793884,0.06427373737096786,-0.2228611558675766
1772698662128619800,5.644619873046875,0.052126847207546234,0.07692082226276398,-0.3199477791786194
1772698662138576400,5.654576416015625,-0.25739943981170654,0.06878036260604858,-0.37328317761421204
1772698662148533500,5.664533447265625,-0.4916830360889435,0.03628154471516609,-0.3805256485939026
1772698662158490600,5.67449072265625,-0.5708491206169128,0.003486563917249441,-0.37943312525749207
1772698662168447500,5.684447509765625,-0.5653926134109497,0.0063345483504235744,-0.35588040947914124
1772698662178404600,5.694404541015625,-0.5756521821022034,0.07322249561548233,-0.3359839916229248
1772698662188361700,5.70436181640625,-0.5119796991348267,0.19400350749492645,0.1381569355726242
1772698662198318600,5.714318603515625,-0.47805503010749817,0.005477012135088444,0.3020399510860443
1772698662208275500,5.724275390625,-0.40566205978393555,0.0037965569645166397,0.21266531944274902
1772698662218232600,5.734232666015625,-0.33546698093414307,-0.1394391655921936,0.045594919472932816
1772698662228189400,5.744189453125,-0.2748347818851471,-0.2112068235874176,0.1450653225183487
1772698662238146600,5.754146484375,-0.20778657495975494,-0.33554530143737793,0.12368647754192352
1772698662248103700,5.764103759765625,0.0025139255449175835,-0.25749310851097107,0.009693596512079239
1772698662258060500,5.774060546875,0.29494503140449524,-0.142269566655159,0.07510571926832199
1772698662268017400,5.784017333984375,0.37868732213974,-0.19814695417881012,0.05573362484574318
1772698662277974500,5.793974609375,0.3934447467327118,-0.11552132666110992,-0.009342195466160774
1772698662287931600,5.803931640625,0.34167370200157166,-0.044148076325654984,-0.10787782818078995
1772698662297888500,5.813888427734375,0.26413336396217346,0.0062136342748999596,-0.20373627543449402
1772698662307845600,5.823845703125,0.16440090537071228,0.05112757906317711,-0.30166390538215637
1772698662317802800,5.833802734375,0.05182531848549843,0.0923040509223938,-0.4082164168357849
1772698662327759600,5.843759521484375,-0.05490991845726967,0.11382453143596649,-0.49934497475624084
1772698662337715700,5.8537158203125,-0.13674190640449524,0.15073619782924652,-0.5670892596244812
1772698662347672600,5.863672607421875,-0.20723044872283936,0.16850854456424713,-0.6012826561927795
1772698662357629400,5.87362939453125,-0.2541646361351013,0.1839386224746704,-0.6055472493171692
1772698662367586600,5.883586669921875,-0.2695651650428772,0.19634787738323212,-0.5782016515731812
1772698662377543400,5.89354345703125,-0.24970649182796478,0.1915920078754425,-0.5284343361854553
1772698662387500500,5.90350048828125,-0.20377495884895325,0.16197872161865234,-0.47126132249832153
1772698662397457700,5.913457763671875,-0.1295473724603653,0.13521769642829895,-0.4119822084903717
1772698662407414800,5.923414794921875,-0.03888298571109772,0.11562827229499817,-0.3457414209842682
1772698662417371400,5.933371337890625,0.026347419247031212,0.07596687972545624,-0.3289496600627899
1772698662427328500,5.94332861328125,0.061923518776893616,0.0702701210975647,-0.34361061453819275
1772698662437285600,5.95328564453125,0.008511179126799107,0.021160360425710678,-0.40668752789497375
1772698662447242500,5.963242431640625,-0.09602615237236023,0.07351703941822052,-0.5119103193283081
1772698662457199600,5.97319970703125,-0.07954941689968109,0.05438515543937683,-0.6101866960525513
1772698662467156700,5.98315673828125,-0.060007672756910324,0.04607502743601799,-0.6494696736335754
1772698662477113600,5.993113525390625,-0.07268942892551422,0.030796747654676437,-0.635600745677948
1772698662487070500,6.003070556640625,-0.05765482410788536,0.02005275897681713,-0.5552438497543335
1772698662497027600,6.013027587890625,-0.001033635577186942,-0.0016962089575827122,-0.42534318566322327
1772698662506984400,6.022984375,0.03800138086080551,-0.0009076469577848911,-0.2731376886367798
1772698662516941600,6.032941650390625,0.038496505469083786,0.0329672172665596,-0.12278043478727341
1772698662526898700,6.042898681640625,0.01710519939661026,0.057604387402534485,-0.00482077756896615
1772698662536855600,6.05285546875,0.009375047869980335,0.08497504144906998,0.07759630680084229
1772698662546812400,6.0628125,0.028434228152036667,0.08318566530942917,0.12586744129657745
1772698662556769500,6.07276953125,0.04648865386843681,0.07146348059177399,0.1501363068819046
1772698662566726700,6.0827265625,0.04753447696566582,0.05879642069339752,0.13774648308753967
1772698662576683500,6.09268359375,0.04287842661142349,0.05682835355401039,0.08907859772443771
1772698662586640600,6.102640625,0.034647129476070404,0.06793560087680817,0.018825478851795197
1772698662596597800,6.11259765625,0.0256352536380291,0.08293026685714722,-0.05425567924976349
1772698662606554600,6.1225546875,0.020865000784397125,0.10009593516588211,-0.09733417630195618
1772698662616511500,6.132511474609375,0.015616191551089287,0.12773367762565613,-0.10560455173254013
1772698662626468600,6.142468505859375,0.016407150775194168,0.14856146275997162,-0.06411809474229813
1772698662636425500,6.152425537109375,0.022107696160674095,0.16164156794548035,0.013952184468507767
1772698662646382600,6.162382568359375,0.03207697346806526,0.14989729225635529,0.10486690700054169
1772698662656339700,6.172339599609375,0.07279771566390991,0.13517720997333527,0.16747279465198517
1772698662666295600,6.182295654296875,0.13914132118225098,0.11154139786958694,0.17675843834877014
1772698662676252700,6.192252685546875,0.19941319525241852,0.0805552527308464,0.13795487582683563
1772698662686209800,6.202209716796875,0.22204233705997467,0.05909736454486847,0.0706152468919754
1772698662696166400,6.21216650390625,0.21406352519989014,0.06059965118765831,-0.01551900990307331
1772698662706123500,6.22212353515625,0.1632237732410431,0.07215243577957153,-0.10256549715995789
1772698662716080600,6.23208056640625,0.10703722387552261,0.08910985291004181,-0.15929420292377472
1772698662726037500,6.24203759765625,0.06466260552406311,0.09570543467998505,-0.1680738478899002
1772698662735994400,6.251994384765625,0.025912489742040634,0.08450152724981308,-0.11558748036623001
1772698662745951200,6.261951171875,-0.008963469415903091,0.07357138395309448,-0.019805828109383583
1772698662755908400,6.271908447265625,-0.03618726506829262,0.07401051372289658,0.06373375654220581
1772698662765865200,6.281865234375,-0.04564681276679039,0.07545553892850876,0.10464630275964737
1772698662775822000,6.291822021484375,-0.03920625522732735,0.07432743161916733,0.10517799109220505
1772698662785779200,6.301779296875,-0.013765078037977219,0.06716059893369675,0.07401181757450104
1772698662795736300,6.311736328125,-0.0009617253672331572,0.07372477650642395,0.03805752098560333
1772698662805693400,6.321693359375,0.009984400123357773,0.08109800517559052,0.010715377517044544
1772698662815650300,6.331650390625,0.01495919469743967,0.09496428072452545,0.0011261822655797005
1772698662825607400,6.341607421875,0.02419663593173027,0.0847523957490921,0.1251288205385208
1772698662835564300,6.351564208984375,-0.0007478432962670922,0.0678437128663063,0.2337201088666916
1772698662845521200,6.361521240234375,-0.03441286087036133,0.060499515384435654,0.20931009948253632
1772698662855478300,6.371478271484375,-0.07437069714069366,0.04334050416946411,0.12820608913898468
1772698662865435400,6.381435302734375,-0.09550926089286804,0.027770334854722023,0.03130509704351425
1772698662875392300,6.391392333984375,-0.08886630088090897,0.024837134405970573,-0.06438533216714859
1772698662885349400,6.401349365234375,-0.06588961184024811,0.029366374015808105,-0.1545485109090805
1772698662895306200,6.41130615234375,-0.0409664548933506,0.056153520941734314,-0.24391530454158783
1772698662905263000,6.42126318359375,-0.01973147504031658,0.09068326652050018,-0.3127713203430176
1772698662915220200,6.43122021484375,-0.027554946020245552,0.12073195725679398,-0.3546898365020752
1772698662925177300,6.44117724609375,-0.04986504837870598,0.1410771906375885,-0.4023588299751282
1772698662935134200,6.45113427734375,-0.04219784960150719,0.13809151947498322,-0.3981965184211731
1772698662945091300,6.46109130859375,-0.009357611648738384,0.09660479426383972,-0.30063295364379883
