time,seconds_elapsed,z,y,x
1772615938256494000,0.081494140625,0.47521571179330346,-1.0110352376312017,-0.8342670503616333
1772615938266562000,0.09156201171875,0.1360790340065956,-0.8637368904739617,-0.8212582234457134
1772615938276630800,0.101630859375,-0.12597440409958363,-0.6445598865419626,-0.9001872371233999
1772615938286699000,0.111698974609375,-0.3093617172479629,-0.37685119915306564,-0.8490535544745623
1772615938296767000,0.12176708984375,-0.43633390021324153,-0.26201602870523927,-0.7255633684061468
1772615938306835000,0.1318349609375,-0.49590311051309105,-0.10108487751483916,-0.6489312334939837
1772615938316903000,0.14190283203125,-0.48339083494246005,0.14202946684360504,-0.5541103482773527
1772615938326971100,0.15197119140625,-0.3534253153800964,0.28666356322765346,-0.4743390020240098
1772615938337039000,0.1620390625,-0.19127952770292758,0.3641127136111259,-0.36640345489680765
1772615938347106800,0.17210693359375,0.026343817046284673,0.40456104385554786,-0.3243552882403135
1772615938357174800,0.1821748046875,0.1936135236084461,0.39283261213898657,-0.34372736657783387
1772615938367243000,0.192242919921875,0.37430735988914965,0.36981647821068764,-0.3641206777218729
1772615938377311000,0.20231103515625,0.4948626615494489,0.30059856507778165,-0.3692919428799301
1772615938387379000,0.21237890625,0.5666933875292539,0.2617003868848085,-0.400430300726369
1772615938397447000,0.222447021484375,0.597389554566145,0.2120049203455448,-0.4775356061082333
1772615938407515100,0.23251513671875,0.6087970837652683,0.13678805905878544,-0.5954182544931769
1772615938417583900,0.242583984375,0.5920154603123664,0.08370411912500858,-0.6836280144743621
1772615938427651800,0.25265185546875,0.5760428151547908,0.023226561808586118,-0.6622061640001833
1772615938437720000,0.262719970703125,0.5404986235648394,0.02067979993522167,-0.5772019220620394
1772615938447788000,0.2727880859375,0.4851332946956157,0.09773907421827316,-0.42909350063093005
1772615938457856000,0.28285595703125,0.4223275866925716,0.22286942870914936,-0.2675245812599547
1772615938467924000,0.292924072265625,0.33222353739738464,0.3290396466642618,-0.1372964287060313
1772615938477992000,0.302991943359375,0.20622458337843416,0.45796354821920393,-0.03904156871903688
1772615938488060000,0.313059814453125,0.12628712331056594,0.58296355432868,0.018850063757412133
1772615938498128000,0.3231279296875,0.11894377481043338,0.7010024892538785,0.14406053427979348
1772615938508195800,0.33319580078125,0.10816694473028182,0.7480611775487661,0.25973230168223377
1772615938518264000,0.34326416015625,0.13446341550350188,0.8243921375572681,0.32895982289370146
1772615938528332000,0.35333203125,0.17360533932447433,0.9027204088628291,0.4506156331418082
1772615938538400000,0.36339990234375,0.2181003146111965,1.0216343730568884,0.474658260573633
1772615938548469000,0.373468994140625,0.21118074448108673,1.1482219406187533,0.5066859319426119
1772615938558537000,0.383536865234375,0.14643676189184188,1.2047487144827842,0.6097412692802027
1772615938568605000,0.39360498046875,0.07182897241413592,1.195118131828308,0.7993981276847422
1772615938578673000,0.4036728515625,-0.021081366473436353,1.1482482441037893,0.9661617113556712
1772615938588741000,0.4137412109375,-0.06714344494640827,1.060007650592923,1.0358207193195819
1772615938598809000,0.42380908203125,-0.11502338649630546,0.8492682201385497,0.9568750467680394
1772615938608877000,0.433876953125,-0.13559680344760416,0.5711047742307186,0.6823940887652337
1772615938618944800,0.44394482421875,-0.19085925646424293,0.18630933807492256,0.3800501047922298
1772615938629013000,0.454012939453125,-0.29527883135974403,-0.05476210227906703,0.34782687431853265
1772615938639081000,0.4640810546875,-0.4324754712194204,-0.3900719152539968,0.21734394328594206
1772615938649149000,0.47414892578125,-0.5863467670261859,-0.6241220786690712,0.13644750199280678
1772615938659217000,0.484216796875,-0.8627700912684202,-0.7882195849359035,-0.022849910515919326
1772615938669285000,0.49428515625,-1.1720119815289973,-0.8347235619574784,-0.2790539650067687
1772615938679353000,0.50435302734375,-1.4196142849564553,-0.8093167335003614,-0.6367920290194451
1772615938689421800,0.514421875,-1.558662105640769,-0.7293699210822582,-0.8824939787182956
1772615938699490000,0.524489990234375,-1.5330325743436812,-0.576221678853035,-0.8426947600323706
1772615938709558000,0.53455810546875,-1.326502286016941,-0.2796574838578701,-0.4056846410579979
1772615938719626000,0.5446259765625,-1.0085422517716884,-0.035032150414586065,0.2518163043932989
1772615938729694000,0.55469384765625,-0.5603735368579625,0.2567202603846788,0.7803842151351272
1772615938739762200,0.56476220703125,-0.155175948664546,0.5015092599570751,1.1131053267911075
1772615938749830000,0.574829833984375,0.2256032375872135,0.6251794787675142,1.2919384837664663
1772615938759897900,0.58489794921875,0.5669201820224523,0.6754477767586707,1.5111303930066524
1772615938769965800,0.5949658203125,0.8159376129448414,0.6711106243371963,1.591113007390499
1772615938780033800,0.60503369140625,0.997116017872095,0.6463467699587345,1.5692209090560674
1772615938790101800,0.615101806640625,1.0867530341774225,0.5284779309034348,1.4690215822041033
1772615938800169700,0.625169677734375,1.076412257426977,0.3567804710268974,1.4164210418730974
1772615938810238000,0.635238037109375,0.9642004212200641,0.20000059429705142,1.362464264627546
1772615938820306000,0.645305908203125,0.8005302004545927,0.028251111972332,1.2563459229901432
1772615938830374700,0.655374755859375,0.619931641241908,-0.11458850221037864,1.136948559193313
1772615938840443000,0.66544287109375,0.4119757040262222,-0.23058862478435038,0.9956887615479528
1772615938850510800,0.6755107421875,0.1681646095752716,-0.3006529256135225,0.8938285157464444
1772615938860578800,0.685578857421875,-0.07481120309531689,-0.36993338258862496,0.8000668207265437
1772615938870646800,0.695646728515625,-0.28136194968819617,-0.3943120370417833,0.7317810738772154
1772615938880715000,0.705715087890625,-0.46892508721649645,-0.37418519481420515,0.7016170409556478
1772615938890782700,0.71578271484375,-0.5635013134896755,-0.33472704465091224,0.7014002563998103
1772615938900850700,0.7258505859375,-0.5319990907669067,-0.2997597761660814,0.7702836038161068
1772615938910918700,0.735918701171875,-0.4146703499376774,-0.3160696904540062,0.8506319097071886
1772615938920987000,0.74598681640625,-0.28593349538743495,-0.30127894855737686,0.9103298609532415
1772615938931054800,0.756054931640625,-0.16221066960692404,-0.2557499540477991,0.9466438678719102
1772615938941122800,0.766122802734375,-0.06037585050761699,-0.2255506306171417,0.9559206686526537
1772615938951190800,0.776190673828125,0.013194997137784957,-0.1995475898325443,0.9671705961372703
1772615938961259800,0.786259765625,0.05345744942128658,-0.19788696314394472,0.9564411853954196
1772615938971327700,0.79632763671875,0.08872574667930602,-0.20710838047564029,0.9301856311544775
1772615938981395700,0.806395751953125,0.08011340115666389,-0.2514116325825453,0.8689435922715812
1772615938991464000,0.8164638671875,0.06989186687171459,-0.2888806547552347,0.7993988583371042
1772615939001532000,0.826531982421875,0.06629413464069366,-0.39431437512934203,0.7133536559786647
1772615939011600000,0.836599853515625,0.052794017076492304,-0.49885260796844955,0.5735632002335042
1772615939021667800,0.846667724609375,0.011451952862739562,-0.565533111578226,0.4265408204734325
1772615939031735800,0.85673583984375,-0.019480945539474485,-0.6314373701184988,0.3083282094817608
1772615939041803800,0.8668037109375,-0.04159808480143547,-0.6682032124578953,0.2307115935768932
1772615939051871700,0.876871826171875,-0.03812251764535904,-0.7013818439602851,0.16101561460345984
1772615939061939700,0.886939697265625,-0.04679857605397701,-0.7186883680701255,0.10510565746352075
1772615939072008000,0.897008056640625,-0.0246346750408411,-0.7142325577050447,0.09804777484126388
1772615939082076000,0.907075927734375,0.05794540849030017,-0.73561436842978,0.18299166489429772
1772615939092143900,0.917143798828125,0.16559622039198874,-0.7732716066509485,0.35847638822458683
1772615939102212900,0.927212890625,0.27392566220760345,-0.7699152819603681,0.5099395269110798
1772615939112280800,0.93728076171875,0.35398119569718833,-0.7754740851312876,0.5736599386062473
1772615939122348800,0.947348876953125,0.38948271718919275,-0.83714523614645,0.4768137215744704
1772615939132416800,0.957416748046875,0.33084172765016556,-0.8826385748207568,0.261109654450044
1772615939142485000,0.967485107421875,0.21959376803934572,-0.8998059827208519,0.06860102334357798
1772615939152553000,0.977552978515625,0.02509352472424507,-0.8894383179634809,-0.05553155228160321
1772615939162620700,0.98762060546875,-0.21123627406060694,-0.7793810294419526,-0.10587992977164686
1772615939172688600,0.997688720703125,-0.4441255770027637,-0.6522288137346506,-0.18966179030798375
1772615939182756900,1.0077568359375,-0.6341629956901073,-0.4690402380287647,-0.23348098522499203
1772615939192824800,1.017824951171875,-0.7352613172084093,-0.2139654067635536,-0.178340770348534
1772615939202892800,1.027892822265625,-0.7718629088968038,0.035597967603802676,0.01124663954898715
1772615939212960800,1.037960693359375,-0.7571925785094499,0.19925415984392164,0.25032646769434214
1772615939223029000,1.048029052734375,-0.6579501139909029,0.3497176930338144,0.3326342370901257
1772615939233097000,1.058096923828125,-0.5416811113476753,0.4998357737869024,0.34993791165575383
1772615939243165700,1.068165771484375,-0.43272973824143407,0.5328057309746742,0.3705992991514504
1772615939253234000,1.07823388671875,-0.2999789718747139,0.5554325733244418,0.3430535589694977
1772615939263302000,1.088302001953125,-0.1460445477038622,0.5534855309098958,0.2411127222124487
1772615939273369900,1.098369873046875,-0.001844166561961174,0.4707920501321554,0.018531755055859685
1772615939283437800,1.108437744140625,0.1392465581268072,0.42727205735743046,-0.2913734579516575
1772615939293505800,1.118505859375,0.2797130134373903,0.44291152503788467,-0.5344911267783492
1772615939303573800,1.12857373046875,0.3772679632604122,0.4394558316260576,-0.5937868173664436
1772615939313641700,1.138641845703125,0.4803741174697876,0.4545493558615446,-0.5247695413721725
1772615939323709700,1.148709716796875,0.5835936689257621,0.48874037927687164,-0.35734036993198093
1772615939333778000,1.15877783203125,0.6634592328011989,0.5403945786684751,-0.19744400514941662
1772615939343846000,1.168845947265625,0.7153694527804851,0.5434487055420876,-0.06799195153452456
1772615939353913900,1.178913818359375,0.7048001279711723,0.5194271939635277,0.0016046221850439905
1772615939363981800,1.18898193359375,0.5428922407031059,0.44003392377495765,-0.08390661942716687
1772615939374049800,1.1990498046875,0.3063531830817461,0.38412849667966364,-0.23843930175211278
1772615939384118800,1.209118896484375,0.05551379742920398,0.21896248439848423,-0.4632711165754124
1772615939394186800,1.219186767578125,-0.2338900044173002,0.05999532675743103,-0.6617791707597672
1772615939404255000,1.2292548828125,-0.5106085122138262,-0.014491466689109802,-0.7870964991901069
1772615939414323000,1.239322998046875,-0.7967617878317832,-0.08293313475251197,-0.9242898511141538
1772615939424391000,1.249390869140625,-1.0374725781798362,-0.05071370367109775,-1.0056808709912002
1772615939434458600,1.259458740234375,-1.1696762320578098,0.07023322765529155,-0.9468268232233822
1772615939444526800,1.26952685546875,-1.1729144833266734,0.2444131519973278,-0.6890379106938839
1772615939454594800,1.2795947265625,-1.0490554639458656,0.4084767559945583,-0.3587021963370964
1772615939464662800,1.289662841796875,-0.8003291249245404,0.5118383462697267,-0.08007730692997575
1772615939474730800,1.299730712890625,-0.4305412882864475,0.5678121624261141,0.03613116116505116
1772615939484799000,1.309799072265625,-0.011274842730164528,0.7047305698662996,0.08078530906885861
1772615939494867000,1.319866943359375,0.3098603144198656,0.7419698749363421,0.19651037756111472
1772615939504935000,1.329934814453125,0.6023357787966728,0.7086480355709791,0.28382234845235943
1772615939515003600,1.340003662109375,0.9685247141599654,0.7076701304495334,0.28424002587515856
1772615939525072000,1.35007177734375,1.256963470366597,0.6449912636965512,0.2901930159954354
1772615939535139800,1.360139892578125,1.4160720823049544,0.5882891332656145,0.32809845682401206
1772615939545207800,1.370207763671875,1.4631179111182688,0.4605997419416904,0.3692924908692017
1772615939555276000,1.380276123046875,1.4292168105602263,0.3419353685945272,0.29937143443562086
1772615939565343700,1.39034375,1.331780518680811,0.3106657855838537,0.20848938650526105
1772615939575411700,1.40041162109375,1.2122001995325087,0.2217120753675699,0.20119159417990595
1772615939585479700,1.410479736328125,1.0336761085063217,0.11038345173597335,0.17709760188702492
1772615939595548000,1.4205478515625,0.8012205208063126,0.025929975548386573,0.041851913432031866
1772615939605615900,1.430615966796875,0.5423801995277404,-0.03694061438441276,-0.1164595202466473
1772615939615683800,1.440683837890625,0.3152174575388431,-0.0734422528296709,-0.21261457667648792
1772615939625751800,1.450751708984375,0.14966332272291183,-0.10379530551731586,-0.19307905140556395
1772615939635820000,1.460820068359375,0.048315410357713695,-0.12312778249680995,-0.1288433836646378
1772615939645887700,1.4708876953125,0.0039040217012166973,-0.12757657859921454,-0.008201207438483835
1772615939655956700,1.480956787109375,0.009418401208519936,-0.1399479843944311,0.1311583095435053
1772615939666024700,1.491024658203125,0.030834114202857015,-0.13632920937538145,0.23466917209625243
1772615939676093000,1.501093017578125,0.022246903121471404,-0.17055822671353815,0.277400937102735
1772615939686161000,1.511160888671875,0.012910919499397277,-0.22848025432825086,0.22485512263365087
1772615939696228900,1.521228759765625,0.027670097213983533,-0.30100013161599637,0.09885112711340188
1772615939706296600,1.531296630859375,0.07317746441364288,-0.3787625857323408,-0.06227744634523987
1772615939716364800,1.54136474609375,0.18209551977217198,-0.4356459179490804,-0.22004903752617536
1772615939726432800,1.551432861328125,0.3052677259325981,-0.480934673961997,-0.2646330062706023
1772615939736500700,1.561500732421875,0.4348497991353273,-0.5042758020609617,-0.24071210552230476
1772615939746569000,1.57156884765625,0.5424550183296203,-0.47460605546236034,-0.19685221326872704
1772615939756637000,1.581636962890625,0.646957595333457,-0.41943128072917457,-0.10255575378499925
1772615939766705000,1.591704833984375,0.7186492051035165,-0.3788835817635059,-0.0012863865487277508
1772615939776772900,1.60177294921875,0.768436441579461,-0.3249491624802351,0.07745777208134531
1772615939786841300,1.61184130859375,0.8232704400509595,-0.26040041020214555,0.14837138321623206
1772615939796910300,1.621910400390625,0.8620973065733909,-0.2340349658459425,0.2711225874856114
1772615939806978300,1.631978271484375,0.864348300370574,-0.2464128013819456,0.4063731347788125
1772615939817046500,1.642046630859375,0.8394196108192205,-0.30608138040304184,0.45716567583978174
1772615939827114200,1.6521142578125,0.7783820815324782,-0.3830751882344484,0.40273287858031687
1772615939837182200,1.66218212890625,0.667284344047308,-0.47132513409554955,0.2707451690079644
1772615939847250200,1.672250244140625,0.5687257701396942,-0.5447814154505729,0.1555317032996565
1772615939857318400,1.682318359375,0.545480503630638,-0.664881959080696,0.0788429793620482
1772615939867386400,1.692386474609375,0.5092027370691299,-0.8505535837739705,0.04390216049272567
1772615939877454300,1.702454345703125,0.5683294642984866,-0.9905062443435192,0.06627740270160139
1772615939887522300,1.712522216796875,0.6442115114957094,-1.0757155073344706,0.25902433607596903
1772615939897590300,1.72259033203125,0.5392483312427997,-1.310560035997629,0.47337764617856587
1772615939907658200,1.732658203125,0.30567163055837154,-1.4754484003812074,0.3958730392808094
1772615939917726200,1.742726318359375,0.005797872623801231,-1.5185229874759911,0.1839299686577171
1772615939927794200,1.752794189453125,-0.4601368006050586,-1.6381833861231803,0.02399137216862291
1772615939937863400,1.762863525390625,-0.9423322882831097,-1.6594091295033693,-0.10188727993890642
1772615939947931400,1.772931396484375,-1.3155185351878405,-1.6199597471684217,-0.29855288459435103
1772615939957999000,1.7829990234375,-1.5733791977792977,-1.5480062715917824,-0.5774408819170669
1772615939968067300,1.7930673828125,-1.733493187367916,-1.4289549447536467,-0.9444882242079824
1772615939978135300,1.80313525390625,-1.7598937030375004,-1.1995949849814176,-1.2352869144789873
1772615939988203300,1.813203369140625,-1.712403637588024,-0.9297510391294955,-1.3750003594651818
1772615939998271200,1.823271240234375,-1.5107330642521382,-0.5369803863108158,-1.2492328761145473
1772615940008339500,1.83333935546875,-1.1327788722932337,-0.13150105856657027,-0.8951698473528027
1772615940018407400,1.843407470703125,-0.60717152839005,0.2443301498889923,-0.4657221995219588
1772615940028475400,1.853475341796875,-0.12214227859079838,0.5694745426803827,-0.072520059950836
1772615940038543000,1.863543212890625,0.27870880483090876,0.7810217823863029,0.12410166903026401
1772615940048611300,1.873611328125,0.6044833122193813,0.9610007483959198,0.17347168474113567
1772615940058679300,1.88367919921875,0.8180664416670799,1.096881044960022,0.12716911204317585
1772615940068747300,1.893747314453125,0.9593038813501595,1.178704172644019,0.0864936767783016
1772615940078816500,1.90381640625,1.0915198101878165,1.177839080247283,0.03206608541691676
1772615940088884500,1.913884521484375,1.189912964400649,1.2248106747806071,-0.002320259641110897
1772615940098952200,1.9239521484375,1.2358844419807196,1.23991179780066,0.0773813458442688
1772615940109020200,1.934020263671875,1.2286141587167978,1.2271043386757372,0.2155730794222094
1772615940119088400,1.94408837890625,1.1195330217510462,1.180571135559678,0.23962900472702456
1772615940129156400,1.95415625,0.9304548034846782,1.1731851169615983,0.21127125404244287
1772615940139224300,1.964224365234375,0.6946218483060598,1.0888263333201407,0.18962050844952463
1772615940149292300,1.974292236328125,0.43357671045958995,0.9693021282732486,0.14313629557434468
1772615940159360500,1.984360595703125,0.15146598823070526,0.8568483000040054,0.10728944950969889
1772615940169428200,1.99442822265625,-0.1279845748782158,0.6747375826627016,0.06949917775969952
1772615940179496200,2.00449609375,-0.4156342265337705,0.5441255818903445,0.025641605327371506
1772615940189564200,2.014564208984375,-0.694686730235815,0.4621007941544056,0.008000131908431648
1772615940199632400,2.02463232421875,-0.9810019184172153,0.3242594266504049,-0.04977930889781564
1772615940209700400,2.034700439453125,-1.194133796966076,0.2327045940250158,-0.1820247926235199
1772615940219769300,2.044769287109375,-1.3855208766967058,0.15123159495294095,-0.3441046023923903
1772615940229837300,2.05483740234375,-1.5566636252999304,-0.006972761622071266,-0.4588660134842619
1772615940239905300,2.0649052734375,-1.6991694774836301,-0.12250760477185249,-0.52556576978378
1772615940249973200,2.07497314453125,-1.746122951838374,-0.22246026338636873,-0.5298156457806006
1772615940260041200,2.085041259765625,-1.7090829687327145,-0.30207331380546093,-0.5058264290364459
1772615940270109400,2.095109375,-1.6319968064427375,-0.29092589684724807,-0.5151318348571657
1772615940280177400,2.105177490234375,-1.5346838486820458,-0.1973264066517353,-0.5995659852897748
1772615940290245400,2.115245361328125,-1.3398802385061979,-0.008300210833549499,-0.6486937714762986
1772615940300313300,2.125313232421875,-1.0456962166458368,0.18729951815605161,-0.5216243752142414
1772615940310381300,2.13538134765625,-0.7092454169422387,0.3851011411041021,-0.1989379700342193
1772615940320449300,2.14544921875,-0.3694821316897869,0.6144780520111323,0.2015828585198149
1772615940330517200,2.155517333984375,-0.018344634985923765,0.7743956422448158,0.5121249446587637
1772615940340585200,2.165585205078125,0.32754853132367134,0.906931889078021,0.707058282161504
1772615940350653400,2.1756533203125,0.6435282054066658,0.9758967042326927,0.8733936304830014
1772615940360721400,2.185721435546875,0.8992021716088056,0.9271230287134646,0.9972118794620036
1772615940370790100,2.1957900390625,1.0809253509372472,0.8586983117848634,0.9922944429345428
1772615940380858000,2.205858154296875,1.1964222001641989,0.7589899833202362,0.8653418414525688
1772615940390926300,2.21592626953125,1.171365500319004,0.5966185701936483,0.6710369745790958
1772615940400994300,2.225994384765625,1.0455834039211274,0.4328367057472467,0.4448773086855188
1772615940411062300,2.236062255859375,0.9601835867941378,0.32507717277407644,0.2567874804019928
1772615940421130500,2.246130615234375,0.8525842128187417,0.2334206333398819,0.22635193706266582
1772615940431198500,2.256198486328125,0.686743662276864,0.11872867075502871,0.33320257502999157
1772615940441266200,2.26626611328125,0.5131827466160058,0.03547346444129944,0.43113213031906633
1772615940451334100,2.276334228515625,0.3172439949303865,0.004838087680935859,0.40501744585353877
1772615940461402400,2.28640234375,0.11124152987003326,-0.050341363227367396,0.2890708435650915
1772615940471470300,2.29647021484375,-0.059167059239745134,-0.14328209725320337,0.16789682548455892
1772615940481538300,2.306538330078125,-0.1697942566037178,-0.2013946790039539,0.09492255549281835
1772615940491606300,2.316606201171875,-0.2226315283000469,-0.26054887876212596,0.04002838779930025
1772615940501675300,2.32667529296875,-0.21273323462009427,-0.30990941425859925,0.02636573661714792
1772615940511743200,2.3367431640625,-0.1505143865942955,-0.32914953677952286,0.05480382252894342
1772615940521811200,2.346811279296875,-0.03299509162902832,-0.3585667699217796,0.10999255272224545
1772615940531879200,2.356879150390625,0.09716565824449062,-0.3674550097763538,0.1758371169645339
1772615940541947400,2.366947509765625,0.16686930906772612,-0.3664747665673494,0.2827542808294296
1772615940552015400,2.377015380859375,0.15141922647953032,-0.38468086986541744,0.3160507665578276
1772615940562083300,2.387083251953125,0.10557400562763214,-0.3323527167350054,0.2891433242794126
1772615940572151300,2.3971513671875,0.08971066606342792,-0.30824586496055123,0.3279921103727072
1772615940582219300,2.40721923828125,0.04477379222810268,-0.31045477318167686,0.43166707744598387
1772615940592287200,2.417287353515625,0.03785129948854446,-0.26186229944825173,0.5467147216007113
1772615940602355200,2.427355224609375,0.01983282771706581,-0.2611480136990547,0.6865840878009796
1772615940612423200,2.437423095703125,0.031982699716091155,-0.3230968126118183,0.7744858047462999
1772615940622491400,2.447491455078125,0.017783493971824646,-0.4030085537165403,0.7405275671735405
1772615940632559400,2.457559326171875,-0.0029565117180347443,-0.4252309069186449,0.6156910810627043
1772615940642627300,2.46762744140625,-0.022474282136559484,-0.4423854553371668,0.5072000189445912
1772615940652696300,2.4776962890625,-0.060415013474225995,-0.4590051662266254,0.4524829979162663
1772615940662764300,2.487764404296875,-0.08979133008420467,-0.45630584414005276,0.4279353435717523
1772615940672832300,2.497832275390625,-0.05443360097706318,-0.40590369063615794,0.44859205489233134
1772615940682900200,2.507900146484375,0.02986146977841854,-0.3704384095013141,0.6395502416864037
1772615940692968400,2.517968505859375,0.12034779638946055,-0.35205110441744325,0.9391218018040061
1772615940703036400,2.528036376953125,0.15903437765836714,-0.3359223919153213,1.2168448104679583
1772615940713104100,2.538104248046875,0.1308773737102747,-0.3613824118643999,1.2774687905177473
1772615940723172000,2.548172119140625,0.04892974286377429,-0.4330646692842245,1.0718402002710847
1772615940733240300,2.558240234375,-0.08184884664714336,-0.5342980153590441,0.6705492641273886
1772615940743308300,2.568308349609375,-0.28701018470823764,-0.6425105527967214,0.27096133250929416
1772615940753376300,2.578376220703125,-0.547726236730814,-0.7250561495363712,-0.04189304916001856
1772615940763444200,2.5884443359375,-0.7496879019677638,-0.7399795779019593,-0.2550925861176103
1772615940773512400,2.598512451171875,-0.9399217200100421,-0.6674257983446121,-0.39184798501580953
1772615940783580400,2.608580322265625,-1.1051917771875857,-0.46195875533521175,-0.4413366038713604
1772615940793649200,2.618649169921875,-1.207800503268838,-0.11946925998926163,-0.3347127969298512
1772615940803717400,2.62871728515625,-1.277221245497465,0.22776772214472293,-0.06790003546737135
1772615940813785300,2.638785400390625,-1.2235329099297523,0.5083627791136502,0.3163350633919239
1772615940823853300,2.648853271484375,-1.0500602570742368,0.7330243519365787,0.6154291421908885
1772615940833921300,2.65892138671875,-0.8185574400544167,0.8506658119767904,0.794828847007826
1772615940843989200,2.6689892578125,-0.5638830062836409,0.8620406079500913,0.8586997730895877
1772615940854057200,2.67905712890625,-0.3404635424762964,0.8124117769062519,0.7807775253016501
1772615940864125200,2.689125244140625,-0.12902151671051978,0.7236492053478956,0.5782504082016646
1772615940874193200,2.699193115234375,0.03207563869655132,0.6185048233091831,0.33883886388391254
1772615940884261400,2.709261474609375,0.18467618391513824,0.4987924022138118,0.11385675386972725
1772615940894329300,2.719329345703125,0.3364841174513101,0.4389548963665962,-0.00273600083515048
1772615940904397300,2.729397216796875,0.4497691358476877,0.36254736399054527,-0.01720255227871239
1772615940914465300,2.73946533203125,0.5644084914624691,0.31455987041294575,0.025967604145035145
1772615940924534300,2.7495341796875,0.6671738694101572,0.2826332847982645,0.05700147870369255
1772615940934602200,2.759602294921875,0.7052227372974157,0.23159224886894225,0.14731208342164753
1772615940944670200,2.769670166015625,0.6767524296164512,0.18580840281546115,0.21390096322521565
1772615940954738400,2.779738525390625,0.6094868195950984,0.1925806734293699,0.24254370486363766
1772615940964806400,2.789806396484375,0.4476175107717514,0.1766951220333576,0.2571298640988767
1772615940974874400,2.799874267578125,0.20932313391566276,0.18950725733339785,0.20483524791188537
1772615940984942000,2.809942138671875,-0.04528407983779907,0.21622049221396444,0.044506081202626224
1772615940995010300,2.82001025390625,-0.3022352263689041,0.25327625741064547,-0.16076178597286342
1772615941005078300,2.830078369140625,-0.5005886379808188,0.31732641251683236,-0.28805187578089536
1772615941015146200,2.840146240234375,-0.6266022050470114,0.3871943139910698,-0.34705198095589873
1772615941025214200,2.850214111328125,-0.6680927378207445,0.46048049947619435,-0.3671208093859255
1772615941035282400,2.860282470703125,-0.6253297008931636,0.5600450355559587,-0.3395250195171684
1772615941045350400,2.870350341796875,-0.5246154102563858,0.6044301207274199,-0.23810404191575943
1772615941055418400,2.88041845703125,-0.3348386883318424,0.6059685823410749,-0.11622099878303706
1772615941065487400,2.8904873046875,-0.15924071388542652,0.619765637025237,0.00578092148900032
1772615941075555300,2.900555419921875,-0.10631284129619598,0.5196107338368893,0.0793283882588148
1772615941085623300,2.910623291015625,-0.08119009047746657,0.4111608805119991,0.04297185737267136
1772615941095691300,2.920691162109375,-0.09732640176415443,0.30538346126675603,-0.12985774833895267
1772615941105759500,2.930759521484375,-0.18204758897721765,0.18699848938286304,-0.37416561333090065
1772615941115827200,2.9408271484375,-0.2821224126666784,0.08787409828603267,-0.5713202436123043
1772615941125895200,2.950895263671875,-0.3394043888121843,-0.024357027143239972,-0.6650372957728803
1772615941135963100,2.960963134765625,-0.36562954791486263,-0.09884323606789111,-0.6803386906053871
1772615941146031400,2.97103125,-0.4001175084501505,-0.15451543892920017,-0.6619668022863566
1772615941156099300,2.981099365234375,-0.4256611150294542,-0.15047697719335554,-0.6550428482420743
1772615941166167300,2.991167236328125,-0.43250469731390473,-0.08564999249577522,-0.6530292433973401
1772615941176235300,3.0012353515625,-0.4224281244575977,0.009493804532289504,-0.6238870278041809
1772615941186303500,3.011303466796875,-0.3850280758678913,0.13843348817825316,-0.526171261396259
1772615941196371200,3.02137109375,-0.27352351114749907,0.27085049254596233,-0.36313195894546807
1772615941206439200,3.031439208984375,-0.11663140621483326,0.37194939858615395,-0.20027787686847148
1772615941216508400,3.04150830078125,0.04663900157809257,0.48073242938816546,-0.09555778465643525
1772615941226576400,3.051576416015625,0.2581160986572504,0.5614245072156191,0.004423807791620492
1772615941236644400,3.061644287109375,0.46785015146136283,0.5641618232250213,0.07510076062642038
1772615941246712300,3.07171240234375,0.6445972959429025,0.5940548571854829,0.13296185183413325
1772615941256780300,3.0817802734375,0.7475707636833191,0.5895645600289106,0.1812025895204395
1772615941266848300,3.09184814453125,0.7978536747217178,0.5450467883884906,0.21905454659610984
1772615941276916200,3.101916259765625,0.7986158912658691,0.4880968206763267,0.2446576282776892
1772615941286984200,3.111984130859375,0.7575362773805856,0.45582828975617884,0.23082192208357155
1772615941297052400,3.122052490234375,0.684572747978568,0.39137364550232884,0.26530257609523833
1772615941307120400,3.132120361328125,0.5807745198518037,0.302350961703062,0.32051446796841915
1772615941317188400,3.142188232421875,0.47054129024147984,0.24564415509700774,0.31896964967921376
1772615941327256300,3.15225634765625,0.2967980037510395,0.1461608675599098,0.267200299475342
1772615941337324300,3.16232421875,0.09931669879853725,0.06660510028600693,0.14654942848607896
1772615941347393300,3.172393310546875,-0.09053893358111381,0.02684942848086357,-0.022850787298753856
1772615941357461200,3.182461181640625,-0.2869417956471443,-0.05715396585166454,-0.2219449342753738
1772615941367529500,3.192529541015625,-0.4428583335459232,-0.15389701476991174,-0.3744157886996865
1772615941377597400,3.202597412109375,-0.5029407540649176,-0.17624796278774738,-0.3979287662342191
1772615941387665200,3.2126650390625,-0.439770304402709,-0.16930910343527794,-0.2750131651833653
1772615941397733000,3.222733154296875,-0.29533143832981584,-0.19212591539919374,-0.08550481187142431
1772615941407801300,3.23280126953125,-0.15289046807587145,-0.19078794479370115,0.07955408677347003
1772615941417869300,3.242869384765625,-0.03563420796096325,-0.1653811163365841,0.1483434722959995
1772615941427937300,3.252937255859375,0.07527122182250022,-0.1600298184365034,0.12217208920717239
1772615941438005200,3.263005126953125,0.14299334343969822,-0.19952596252262592,0.043437063731625675
1772615941448073500,3.273073486328125,0.2022235310435295,-0.18202596166729926,-0.03991941099949181
1772615941458141400,3.283141357421875,0.30415947242975233,-0.16203765112757681,-0.08988141952045262
1772615941468209200,3.293209228515625,0.4421194978773594,-0.0993406641960144,-0.04470993321165442
1772615941478277000,3.303277099609375,0.5717004020363092,-0.07637129201889038,0.027970030008628962
1772615941488346400,3.313346435546875,0.65601593105793,-0.037113632863759995,0.029161870141699908
1772615941498414300,3.323414306640625,0.7312959207087755,0.013462123641371726,-0.06781206492297351
1772615941508482300,3.333482421875,0.7998112385302781,0.07488660641908645,-0.14080240926668047
1772615941518550300,3.34355029296875,0.8471399759382009,0.09700608376860619,-0.15252075798064468
1772615941528618200,3.3536181640625,0.8984089754045009,0.06725918028056621,-0.11209325132854282
1772615941538686200,3.363686279296875,0.9359259283721446,0.0437140540421009,-0.06858706788346171
1772615941548754200,3.373754150390625,0.8626748142004013,0.02501636783480644,-0.03420592872351408
1772615941558822400,3.383822509765625,0.7197334932088851,-0.01440612649321556,0.006241159411892294
1772615941568890400,3.393890380859375,0.5312976644992828,-0.0952624549716711,0.009434548625722527
1772615941578958300,3.403958251953125,0.3038999447107315,-0.13871639677286146,-0.02666384278088808
1772615941589026300,3.4140263671875,0.07314473118782043,-0.25293255853950974,-0.12034421619288622
1772615941599094300,3.42409423828125,-0.12101590490937232,-0.3795861770749092,-0.2440350393999368
1772615941609162200,3.434162353515625,-0.2555973938345909,-0.48467152240276334,-0.37358825183436273
1772615941619230200,3.444230224609375,-0.29360592971146104,-0.5822258877038955,-0.5053345173336565
1772615941629298200,3.454298095703125,-0.259474527528882,-0.6922662250906229,-0.6511481788910926
1772615941639367400,3.464367431640625,-0.11376607991158962,-0.7399842540770769,-0.7589682098798454
1772615941649435400,3.474435302734375,0.11532967596650123,-0.759437727087736,-0.624709815429151
1772615941659503000,3.484503173828125,0.34798750824034214,-0.7678074960261583,-0.25119740530997514
1772615941669571300,3.4945712890625,0.48539749858975406,-0.7457341959059238,0.18662044985070825
1772615941679639300,3.504639404296875,0.564013354665041,-0.8024000859797,0.3760284115280956
1772615941689707300,3.514707275390625,0.5932979013383388,-0.7617699694275856,0.3165370157048106
1772615941699775200,3.524775146484375,0.4067477402448654,-0.8551011640757322,0.17614114141240714
1772615941709843500,3.534843505859375,0.0444026208281517,-0.9934440513610839,-0.10392148918025194
1772615941719911400,3.544911376953125,-0.3200374250411987,-1.0421674579977989,-0.468685798567906
1772615941729979400,3.5549794921875,-0.6458242073893546,-1.059970825713873,-0.7914828975807875
1772615941740047000,3.565047119140625,-0.90342768034935,-0.9627525604993105,-1.0053419944256543
1772615941750115300,3.575115234375,-1.0318506466448307,-0.7699877626746893,-1.1021879191964865
1772615941760183300,3.585183349609375,-1.019348892468214,-0.4505804522305727,-1.0729909046761692
1772615941770252300,3.595252197265625,-0.8692582842439412,-0.11747311773598193,-0.9198005768708885
1772615941780320500,3.605320556640625,-0.528358103916049,0.1938666215866804,-0.6458438619378953
1772615941790388000,3.615387939453125,-0.030032150170207023,0.4606137704670429,-0.3145888773117214
1772615941800456000,3.6254560546875,0.40409634895324703,0.6269476574838161,0.08234897818900644
1772615941810523600,3.635523681640625,0.7122083584010601,0.7105348722308874,0.36873471085596826
1772615941820591600,3.645591552734375,0.9079062870681285,0.7100473809748887,0.5093614347621799
1772615941830659800,3.655659912109375,0.9405997654020786,0.5657955619066953,0.46450537107810375
1772615941840727800,3.665727783203125,0.8617869254499674,0.5226286203533411,0.3196863100485876
1772615941850795800,3.675795654296875,0.6807809544801712,0.4076227695137262,0.13763543313574045
1772615941860863700,3.68586376953125,0.5056412451952695,0.29644319896399973,-0.06467577619124204
1772615941870932000,3.695931884765625,0.39179567030668255,0.30725334679186345,-0.1668704050462693
1772615941880999700,3.705999755859375,0.30265199047625063,0.26781273228526115,-0.15802626006174833
1772615941891067600,3.716067626953125,0.3191623957723379,0.284995337754488,-0.08544544636700302
1772615941901135600,3.726135498046875,0.3919283567756414,0.2812912225395441,0.04050152173638344
1772615941911204900,3.736204833984375,0.42750060541629786,0.2723117972701788,0.2906610718986019
1772615941921272800,3.74627294921875,0.3790057468384504,0.260638310611248,0.5636020339177921
1772615941931340800,3.7563408203125,0.259454069262743,0.24456395864486694,0.7017354797035456
1772615941941408800,3.76640869140625,0.14487491940259933,0.27962884228527546,0.71762388064377
1772615941951476700,3.776476806640625,-0.016499883902072906,0.26845804445147514,0.6937091904405505
1772615941961544700,3.786544677734375,-0.20512275961637497,0.2327227142035961,0.6211477390334009
1772615941971612700,3.79661279296875,-0.46539106787145135,0.22251287035644052,0.477699418367818
1772615941981681000,3.806680908203125,-0.7236094578593969,0.2619739431291818,0.32766145364623517
1772615941991748900,3.816748779296875,-0.954502618548274,0.31547815430164333,0.26473021956738085
1772615942001816800,3.82681689453125,-1.104962060084939,0.41494916687905786,0.29718934115618467
1772615942011884800,3.836884765625,-1.1637427503556013,0.5500999801248312,0.42394492222871627
1772615942021952800,3.846952880859375,-1.1664479176610707,0.6454582966864109,0.5796884051155299
1772615942032020700,3.857020751953125,-1.164410858875513,0.7394950092554092,0.6929918359514325
1772615942042088700,3.867088623046875,-1.142437511998415,0.8048895647078752,0.7799799451831728
1772615942052158000,3.877157958984375,-1.1263421172440051,0.7706593783259391,0.8879590391911566
1772615942062226000,3.887225830078125,-1.1240098749041556,0.7083768174141645,0.9581003507792949
1772615942072293600,3.897293701171875,-1.1034750363975763,0.6609656624197959,0.9595078794896602
1772615942082361600,3.907361572265625,-1.0947703364163637,0.5926075809866189,0.9145128457263112
1772615942092429800,3.917429931640625,-1.1418167497515679,0.5414654227703809,0.8137053238481283
1772615942102497800,3.927497802734375,-1.254684419518709,0.4636345795929432,0.6420308064557612
1772615942112565800,3.937565673828125,-1.4267027819126843,0.36820728944838044,0.41411731916479766
1772615942122633700,3.9476337890625,-1.615977399533987,0.39521629240512846,0.14231182744894175
1772615942132702000,3.957701904296875,-1.7605939602613447,0.49507133586406704,-0.04857143094539642
1772615942142770000,3.96777001953125,-1.7587381032615899,0.6131137779206037,-0.0655538011347875
1772615942152837600,3.977837646484375,-1.59702310821712,0.7959960641562939,0.09958835534676909
1772615942162905600,3.987905517578125,-1.3143600128024815,0.9608937808901071,0.43355720204152165
1772615942172973800,3.997973876953125,-0.9666635964632033,1.080049152624607,0.7412257785707712
1772615942183041800,4.008041748046875,-0.6426572677910327,1.1719552829056978,0.9165965931978076
1772615942193110800,4.01811083984375,-0.33436756368875503,1.157626313301921,0.9964270857598632
1772615942203179000,4.028178955078125,-0.031245617613196372,1.074062479430437,1.0344362792238593
1772615942213246700,4.038246826171875,0.17320026565492153,0.978898808658123,1.0034619528327136
1772615942223314700,4.048314697265625,0.22703356265127658,0.868583745983243,0.9819977975867689
1772615942233382700,4.058382568359375,0.15771335818767546,0.7674000842690467,0.9561583498660474
1772615942243451000,4.068450927734375,0.056281274670362466,0.6144143391251564,0.940014220599085
1772615942253518800,4.078518798828125,-0.2023451115965843,0.5694242737978696,1.0650251864939928
1772615942263586800,4.0885869140625,-0.43797816028892994,0.4158434853702783,1.1248747481051833
1772615942273654800,4.09865478515625,-0.5683458309113979,0.23746669386029243,1.0319212276630103
1772615942283722800,4.10872265625,-0.6761901195585728,0.22202362553477287,0.8519126702327281
1772615942293790700,4.118790771484375,-0.8610282160371542,0.08726210386753082,0.7742872134342789
1772615942303858700,4.128858642578125,-1.015900213319063,0.02913432454764843,0.6618174569435418
1772615942313926700,4.1389267578125,-1.0485720643430947,-0.016435586494207382,0.4003737482335418
1772615942323996000,4.148995849609375,-0.9785498490899801,-0.08982523235380649,0.1303839276375249
1772615942334063900,4.15906396484375,-0.7885346422344446,-0.08854337584972381,-0.06564221007060259
1772615942344131600,4.169131591796875,-0.4862497315049171,-0.0584802460193634,-0.09613415977228432
1772615942354199800,4.17919970703125,-0.1480477042198181,0.035193478456139564,0.03993376831840723
1772615942364267800,4.189267822265625,0.13065525539219378,0.16025427484214305,0.2494993326878175
1772615942374335700,4.199335693359375,0.323938524132967,0.2777490198880434,0.4836720630366355
1772615942384403700,4.20940380859375,0.38658115052878855,0.3698398590862751,0.6580385229267179
1772615942394472000,4.219471923828125,0.3141004362076521,0.496919594079256,0.7366784905299544
1772615942404540000,4.229539794921875,0.18206570915579795,0.5945978780210018,0.7485489610657096
1772615942414608000,4.23960791015625,0.06026069969534874,0.6793038676649331,0.759541333592683
1772615942424675600,4.249675537109375,0.025658172869682312,0.6719201871544123,0.7939841398119926
1772615942434743800,4.259743896484375,0.024133155259490013,0.6213795019626617,0.7922269939463585
1772615942444811800,4.269811767578125,0.04227963732481003,0.558595421269536,0.7403591518040746
1772615942454879700,4.279879638671875,0.12484919946193694,0.4607908805996179,0.6971898721631616
1772615942464949000,4.289948974609375,0.2033352916777134,0.3525292433232069,0.665272492768243
1772615942475017000,4.300016845703125,0.2131985140442848,0.2419026304811239,0.6525437249027192
1772615942485084700,4.310084716796875,0.1930173112809658,0.1475040988624096,0.7002789972849189
1772615942495152600,4.320152587890625,0.1304980190038681,0.052631519991159434,0.7698192742399871
1772615942505220900,4.330220947265625,0.04209025223255157,-0.039079379978775974,0.7978812203157692
1772615942515288800,4.340288818359375,-0.05786708255708217,-0.12606500499248505,0.7762235152591019
1772615942525356800,4.350356689453125,-0.16377368113994598,-0.19746201573014258,0.721728320287913
1772615942535424800,4.3604248046875,-0.26518004569411274,-0.28423429025411606,0.7192312427751719
1772615942545493000,4.370492919921875,-0.30884149276614187,-0.39472997019290923,0.7838545946594327
1772615942555560700,4.380560791015625,-0.2606003166884184,-0.5232821158260107,0.8725214507583529
1772615942565628700,4.390628662109375,-0.2147626946210861,-0.6639069765686988,0.8681422858260571
1772615942575696600,4.400696533203125,-0.2322258705973625,-0.7889233492910861,0.7692826831452548
1772615942585764900,4.410764892578125,-0.38447161102890964,-0.9420791903048753,0.556120920914784
1772615942595833900,4.420833740234375,-0.5812649337172507,-0.9807809691429138,0.19902659816574303
1772615942605901800,4.43090185546875,-0.7176397358000278,-0.8927753534317016,-0.1449833482131362
1772615942615969800,4.4409697265625,-0.8477882107138633,-0.7927455379277467,-0.27820107450447973
1772615942626037800,4.451037841796875,-0.9132260207861661,-0.5635317086279392,-0.27451471414193507
1772615942636105700,4.461105712890625,-0.9013678252100944,-0.19154665420651434,-0.20222108335811645
1772615942646173700,4.471173583984375,-0.8508031746208667,0.11693126594424247,0.09839808611627668
1772615942656242000,4.481241943359375,-0.7302806061863899,0.28902561618387695,0.4131299886278808
1772615942666310000,4.491309814453125,-0.5792553474605083,0.481503413760662,0.6080092943884432
1772615942676377900,4.5013779296875,-0.5007897135108709,0.5680097308248281,0.6568783931061625
1772615942686445800,4.51144580078125,-0.44615036082863807,0.5427583851903677,0.5758410820376128
1772615942696513800,4.521513671875,-0.384129665723443,0.4267261139124632,0.3315656580105424
1772615942706581800,4.531581787109375,-0.352463776871562,0.285112826654315,0.12880034824050962
1772615942716649700,4.541649658203125,-0.36424949173331256,0.009844517666101456,-0.03242540198229253
1772615942726717700,4.5517177734375,-0.45740357624888417,-0.16937632345259188,-0.1968706987734884
1772615942736787000,4.561786865234375,-0.6058855802327394,-0.31308629072904587,-0.2684286722265184
1772615942746854700,4.571854736328125,-0.8303414013504982,-0.47427463155090804,-0.2976238601159304
1772615942756922600,4.581922607421875,-1.0051286439359188,-0.5316413633704186,-0.3753605952691287
1772615942766990800,4.591990966796875,-1.1003455062001943,-0.5010153389602899,-0.45313832001984117
1772615942777058800,4.602058837890625,-1.1144488503545522,-0.46790685008466243,-0.48335766332522034
1772615942787127600,4.61212744140625,-1.0489993498444556,-0.3731611124634743,-0.5398592296827585
1772615942797195500,4.622195556640625,-0.850860457766056,-0.19337737676501274,-0.6467292664702982
1772615942807263500,4.632263427734375,-0.57261284070611,0.04474164352416992,-0.6314912922628223
1772615942817331200,4.642331298828125,-0.2935007157713175,0.2668026784598827,-0.403431601434201
1772615942827399400,4.6523994140625,-0.07563070278465747,0.5321475593268871,-0.16571860466264188
1772615942837467400,4.66246728515625,0.0521060348123312,0.727135878419876,-0.09896905440464615
1772615942847535400,4.672535400390625,0.22148411183059213,0.9408569550335407,-0.04817490590848028
1772615942857603300,4.682603271484375,0.40296763718426226,1.1198755515784025,0.056768181404471395
1772615942867671600,4.692671630859375,0.4841115504324436,1.1924433596611022,0.16139208323303608
1772615942877740300,4.702740234375,0.6169587629109621,1.2623843263715504,0.3086721275486052
1772615942887808300,4.712808349609375,0.6994172658890485,1.2391975120514631,0.5053159222310408
1772615942897876500,4.72287646484375,0.6762503253132105,1.1890975563645363,0.5854569785796105
1772615942907944400,4.7329443359375,0.6536766744554042,1.1418459758460522,0.5217343749273569
1772615942918012400,4.743012451171875,0.5923907233655452,1.041339190480113,0.46170163876898584
1772615942928080400,4.753080322265625,0.355369435185194,0.8911965598076581,0.26653401758633555
1772615942938148600,4.763148681640625,0.09544248771369457,0.7406178758054971,-0.13415577432643622
1772615942948216300,4.77321630859375,-0.13108897063434125,0.5757406173378229,-0.47355289314761756
1772615942958284300,4.7832841796875,-0.3409036874592304,0.36227439226806163,-0.6512266509547829
1772615942968352300,4.793352294921875,-0.5241957235395908,0.12152677704095839,-0.7188476502850651
1772615942978420500,4.80342041015625,-0.6899801599800587,-0.013788871377706527,-0.7487145999561995
1772615942988488400,4.813488525390625,-0.929235490822792,-0.09636427873373031,-0.8291811253994703
1772615942998556400,4.823556396484375,-1.0995172386825085,-0.11079495514631271,-0.8932922169126569
1772615943008624400,4.833624267578125,-1.2246645443081856,-0.13974106364548206,-0.8871100211463868
1772615943018693400,4.843693359375,-1.2941589362949133,-0.13363807059526442,-0.8017735515791923
1772615943028761300,4.85376123046875,-1.2704407915771008,-0.09163958829939364,-0.6572394815035164
1772615943038829300,4.863829345703125,-1.1771359004139899,-0.11872282553613185,-0.5659324130941182
1772615943048897500,4.8738974609375,-0.9819202023059129,-0.05777355905473232,-0.4733563111295923
1772615943058965500,4.883965576171875,-0.8105781317383051,-0.01953004537820816,-0.2763901891576126
1772615943069033500,4.894033447265625,-0.5835802249222993,0.1329331371963024,-0.059906187169253826
1772615943079101400,4.904101318359375,-0.2588175249248743,0.32893618628978727,0.09268416544888168
1772615943089169400,4.91416943359375,0.04994271929860115,0.47347325204014773,0.16210622285176068
1772615943099237400,4.9242373046875,0.2795429175674915,0.6367734704494475,0.21915362305641173
1772615943109305300,4.934305419921875,0.4529249695301056,0.7187544190436601,0.2678433466192335
1772615943119373300,4.944373291015625,0.6082178225725889,0.7509177360236644,0.2618804561594501
1772615943129441500,4.954441650390625,0.6828723738014698,0.7559393635779619,0.21480050588082522
1772615943139509500,4.964509521484375,0.7180898176550865,0.7497644743353128,0.17759528574347494
1772615943149578200,4.974578125,0.6840782424598932,0.7901496762156486,0.1791429535768926
1772615943159646500,4.984646484375,0.565934093594551,0.7500503055393696,0.14828290121518076
1772615943169714400,4.99471435546875,0.5079062675178051,0.6596002192854881,0.1271077555110678
1772615943179782400,5.004782470703125,0.45674248199164863,0.6351134282827376,0.21732505592238158
1772615943189850400,5.014850341796875,0.41873160802721976,0.5997966157078742,0.2739491161484271
1772615943199918600,5.024918701171875,0.31286358788907526,0.5163625456959009,0.22954550893958656
1772615943209986600,5.034986572265625,0.19878245067894457,0.49276247439980503,0.1477127001117915
1772615943220054300,5.04505419921875,0.13574527200758457,0.44106618943214415,0.14343202711790798
1772615943230122200,5.055122314453125,0.09648585928678512,0.32928923751115796,0.1981725020870566
1772615943240190500,5.0651904296875,0.07161503740251064,0.21188626240193842,0.25405973593853415
1772615943250258400,5.075258544921875,0.084949150750041,0.06350596522688866,0.23869214400202035
1772615943260326400,5.085326416015625,0.13946341574788093,-0.07586977223753928,0.1812376608338207
1772615943270394400,5.095394287109375,0.1984755766868591,-0.2266401794195175,0.12107618372924625
1772615943280463400,5.10546337890625,0.23178221848309039,-0.3865741362661123,0.0890388312164694
1772615943290531300,5.11553125,0.2153027928471565,-0.46847500536143777,0.057857584076374764
1772615943300599300,5.125599365234375,0.19225275664925573,-0.4936737440258264,0.017054449044913052
1772615943310667500,5.13566748046875,0.1336702192991972,-0.4830091421484947,0.003872092192992568
1772615943320735500,5.145735595703125,0.09430500811636447,-0.45998482491374015,0.006564692277833819
1772615943330803500,5.155803466796875,0.0636649551808834,-0.4363011669874191,0.01453844763599336
1772615943340871400,5.165871337890625,0.10210369916856288,-0.41242344779372214,0.05336312220133841
1772615943350939400,5.175939453125,0.19768121143877504,-0.3860439749121666,0.1757302955891937
1772615943361007400,5.18600732421875,0.32590368672609327,-0.39220658919513224,0.3230286427464336
1772615943371075300,5.196075439453125,0.4733224453926086,-0.4132938008874655,0.4527695597726851
1772615943381143300,5.206143310546875,0.631278380164504,-0.4640893376231193,0.5022612473681569
1772615943391211500,5.21621142578125,0.7401601951658725,-0.5034276607990265,0.5464254563305526
1772615943401279500,5.226279541015625,0.7028752973884344,-0.5737643488287926,0.6573794014308602
1772615943411347500,5.236347412109375,0.5329512769252062,-0.709495007789135,0.6742346015766263
1772615943421416400,5.24641650390625,0.31804420539736744,-0.8506482763200998,0.5952072420910001
1772615943431484400,5.256484375,0.054772039151191707,-0.9651140289336443,0.4543381242636591
1772615943441552400,5.266552490234375,-0.2387836216777563,-1.0399258165508507,0.31910861975848676
1772615943451620400,5.276620361328125,-0.4938187054544687,-1.1292249792039393,0.2094808086954057
1772615943461688600,5.2866884765625,-0.6503542520344257,-1.1775883203566073,0.07977306328639387
1772615943471756500,5.296756591796875,-0.7362941673874854,-1.165166061156988,-0.06634250382706522
1772615943481824500,5.306824462890625,-0.7584089685618877,-1.119570431151986,-0.22142080080341547
1772615943491892200,5.316892333984375,-0.6720534581452607,-1.023692474630475,-0.3950653030944988
1772615943501960400,5.32696044921875,-0.4548509691566229,-0.8849047661870717,-0.5294110470350831
1772615943512028400,5.3370283203125,-0.157777655595541,-0.7540145329952239,-0.4258487830886617
1772615943522095400,5.347095458984375,-0.19140636895298957,-0.7282131522625684,-0.45235016531683503
1772615943532163300,5.357163330078125,0.16641162842810153,-0.6793249104529618,-0.10903181793130934
1772615943542231300,5.367231201171875,0.5260825601994991,-0.6321592546522617,0.25079839605502785
1772615943552299500,5.377299560546875,0.7890081049650907,-0.6340080973893404,0.4380583128530532
1772615943562368500,5.387368408203125,0.8789923272728919,-0.743234780305624,0.35296522358767685
1772615943572436200,5.397436279296875,0.7796037322819233,-0.8197229767024516,0.0037563203262165187
1772615943582504400,5.40750439453125,0.5138859264492989,-0.8443342708677053,-0.4190317600175738
1772615943592572400,5.417572509765625,0.1780897912621498,-0.8442933543354272,-0.7366890119239687
1772615943602640400,5.427640380859375,-0.11631810248196124,-0.7901707190036773,-0.9368561218943446
1772615943612708400,5.437708251953125,-0.30342823554575443,-0.6606885990440845,-1.0234570584394038
1772615943622776600,5.447776611328125,-0.3472860819727182,-0.5108686244547367,-0.9929704424999654
1772615943632844500,5.457844482421875,-0.2940080807715654,-0.3306348069012165,-0.897500993714109
1772615943642912500,5.46791259765625,-0.1552279711127281,-0.08654548003077507,-0.749594378465414
1772615943652980200,5.477980224609375,0.06243862825632095,0.17247487398982048,-0.5133334801983088
1772615943663048400,5.48804833984375,0.31641923454403875,0.43083179566562174,-0.25062081099841743
1772615943673116400,5.498116455078125,0.5535667794525623,0.663110273233056,0.006978899101912975
1772615943683184400,5.508184326171875,0.7280529932647943,0.795199360820651,0.1865296662947163
1772615943693252400,5.51825244140625,0.7564473131000995,0.8624602946668862,0.2720822445643134
1772615943703321300,5.5283212890625,0.6790677208214998,0.8842699754148721,0.2833150382510386
1772615943713389300,5.538389404296875,0.5023293441683053,0.8333025892436504,0.22984993524625896
1772615943723457300,5.548457275390625,0.3125532067656517,0.7873287735760212,0.08013650803761556
1772615943733525500,5.558525390625,0.133595985019207,0.7368202370882034,-0.024040782534610478
1772615943743593500,5.568593505859375,0.0030558804392814636,0.6231891817331314,-0.10494878640137612
1772615943753661400,5.578661376953125,-0.04814999066293239,0.5865706389099359,-0.22014281675685196
1772615943763729400,5.5887294921875,-0.02705810279548168,0.6360545085251331,-0.23673131052413954
1772615943773797600,5.598797607421875,-0.054337154865264886,0.6072247198820114,-0.11246475152205675
1772615943783865300,5.608865234375,-0.12419979564249514,0.6216127261966466,0.0003505122044123709
1772615943793933000,5.61893310546875,-0.19004326390624046,0.7001116778939962,0.08500953916776925
1772615943804001000,5.6290009765625,-0.24094284553825854,0.730431412833929,0.21652100953049958
1772615943814069000,5.639069091796875,-0.3065390610426664,0.756599288791418,0.3303616890482604
1772615943824137000,5.649136962890625,-0.42859716848134993,0.775184162274003,0.37177404201924796
1772615943834206200,5.659206298828125,-0.5974029985696077,0.8015624661117792,0.33214798794314265
1772615943844274000,5.66927392578125,-0.7418436182081699,0.8602408650517464,0.3080107775630429
1772615943854342000,5.679341796875,-0.8142132733702659,0.9143044636726378,0.3201763220552355
1772615943864410000,5.68941015625,-0.8777776907861232,0.9386591527283191,0.4378241387709975
1772615943874478000,5.69947802734375,-0.875305163192749,0.9202192406743764,0.6102701885251328
1772615943884546000,5.709546142578125,-0.8715840968430042,0.9058060999184846,0.7058041173819453
1772615943894614000,5.719614013671875,-0.9852548996865749,0.8850935667574406,0.7087034190200269
1772615943904682200,5.72968212890625,-1.168448736089468,0.816428611332178,0.7496472046311944
1772615943914750200,5.739750244140625,-1.389146081456542,0.7879606417387723,0.6726336691860109
1772615943924818000,5.74981787109375,-1.5864403394043445,0.7511316710352898,0.5398400135256349
1772615943934886000,5.759885986328125,-1.726519841223955,0.6605822160601615,0.3825609185693785
1772615943944954000,5.7699541015625,-1.875850570991635,0.5600806913912296,0.14911279443437234
1772615943955022000,5.78002197265625,-1.994758105444908,0.5572942755430936,-0.1834014878042042
1772615943965091000,5.790091064453125,-1.9787164867043494,0.629469284915924,-0.4809987521741539
1772615943975159300,5.8001591796875,-1.784557019650936,0.7645370960533618,-0.5829043349547312
1772615943985227000,5.81022705078125,-1.383006263527274,0.9313678266763686,-0.44964547293540086
1772615943995295000,5.820294921875,-0.8310971881538629,0.9743933139324188,-0.13633243337892925
1772615944005363000,5.830363037109375,-0.22220891897380352,1.0427373668402433,0.2084841988734901
1772615944015431200,5.84043115234375,0.29584172593951225,1.0863251641541718,0.4970549108967185
1772615944025499100,5.8504990234375,0.6461527086913585,1.0360042591929435,0.631605858553201
1772615944035567000,5.860567138671875,0.8475871351838111,0.9068874654144048,0.6253371535472572
1772615944045635000,5.870635009765625,0.9584405425190925,0.7919096716254949,0.5756963398046792
1772615944055703000,5.880703125,0.9458189613550901,0.6270972950875758,0.5034620014600455
1772615944065771000,5.89077099609375,0.7812877398461103,0.5108353067070246,0.4650470036741346
1772615944075839000,5.9008388671875,0.601354366543889,0.42757191708683967,0.4660368184290826
1772615944085907000,5.910906982421875,0.43692718993127344,0.2911901007413864,0.5410635639712215
1772615944095976200,5.92097607421875,0.24917232922315596,0.16313830584585665,0.5766428999397903
1772615944106044200,5.931044189453125,0.016461889979243277,0.08683715645372866,0.5567497203376144
1772615944116112000,5.94111181640625,-0.25910277160704137,0.011086626681685446,0.5149310515880584
1772615944126179800,5.951179931640625,-0.48953766713440416,-0.07087386364638805,0.43956623319797217
1772615944136248000,5.961248046875,-0.6825812819004058,-0.1436088449895382,0.32732341733090575
1772615944146316000,5.97131591796875,-0.8518979841202498,-0.17979659518003463,0.17558109637685118
1772615944156384000,5.981384033203125,-0.9486275890350341,-0.18103811967372893,0.07201605595145374
1772615944166452000,5.991451904296875,-0.9318775297641754,-0.17473697370290756,0.05286288106162101
1772615944176520200,6.001520263671875,-0.908390271192789,-0.10918810447156428,0.10877261900585145
1772615944186588200,6.011588134765625,-0.9021738808959722,0.008764905735850334,0.1652245740680024
1772615944196655900,6.02165576171875,-0.8488222299367189,0.1267027183741331,0.2726459976606071
1772615944206724000,6.03172412109375,-0.7195563830763101,0.23152327528595923,0.35819435641281305
1772615944216792000,6.0417919921875,-0.6163485220581293,0.30532384003400803,0.469619462688826
1772615944226861000,6.051861083984375,-0.5121428821742534,0.3423755135774612,0.546717717275396
1772615944236929000,6.061928955078125,-0.4006441626727581,0.34118367344439027,0.5925012345353141
1772615944246997000,6.0719970703125,-0.289290404599905,0.3111667208433151,0.6688748281091451
1772615944257065000,6.08206494140625,-0.18879180254042147,0.30355916844904424,0.780142223072797
1772615944267133000,6.0921328125,-0.11937339839935301,0.22518355087041853,0.8507884885083884
1772615944277201000,6.102200927734375,-0.11038929695487022,0.14436054013967514,0.8395495208092033
1772615944287269000,6.11226904296875,-0.13834230276346207,0.08592997848093509,0.7791147797212005
1772615944297337000,6.122337158203125,-0.1446761819601059,0.009143675920367241,0.7404304634746164
1772615944307405000,6.132405029296875,-0.1290904902935028,-0.039892449927330015,0.723043567604944
1772615944317473000,6.14247314453125,-0.12674363490641116,-0.05154430927634239,0.7073395102556794
1772615944327541000,6.152541015625,-0.13589315604567526,-0.05755903952121734,0.7435450152985751
1772615944337609000,6.16260888671875,-0.12877017229795454,-0.05038812497854232,0.7793825638119131
1772615944347677000,6.172677001953125,-0.17082535321712494,-0.009360533541440964,0.7910622610159218
1772615944357745000,6.182744873046875,-0.2286316454976797,-0.007419920867681503,0.8138409329265356
1772615944367814100,6.192814208984375,-0.22017127566635608,-0.039296237599849695,0.8713780528768896
1772615944377882000,6.202882080078125,-0.1580512118399143,-0.13177519933283327,0.9577539484944194
1772615944387949800,6.21294970703125,-0.1030178914040327,-0.24477906270027158,0.9542625261820852
1772615944398018000,6.22301806640625,-0.08988602263033389,-0.33018297148048875,0.9090684627152978
1772615944408086000,6.2330859375,-0.2042880623579025,-0.49184302146732806,0.8104833661269396
1772615944418154000,6.243154052734375,-0.34442660088837146,-0.5545125358700752,0.6155875476229935
1772615944428222000,6.253221923828125,-0.47633214860260487,-0.6456307306438684,0.43796983085200186
1772615944438290200,6.263290283203125,-0.6233692144751548,-0.7603583490639925,0.30479280189722774
1772615944448358100,6.273358154296875,-0.8006500274419784,-0.8555337102741003,0.18029676325451582
1772615944458426000,6.283426025390625,-0.9819073428243398,-0.8337783900618553,0.03439776150118559
1772615944468493800,6.293493896484375,-1.2007348026663065,-0.7427689163595438,-0.17831103279739619
1772615944478562000,6.30356201171875,-1.4678577991217374,-0.5748609118938446,-0.3394333226457238
1772615944488630000,6.313630126953125,-1.6619827793836592,-0.36259587930738924,-0.40396811946369704
1772615944498699000,6.323698974609375,-1.6497183410942553,-0.06118015262782573,-0.34446850380133837
1772615944508767200,6.333767333984375,-1.5092852035313844,0.20929975304007528,-0.16159041881673036
1772615944518835000,6.3438349609375,-1.314224988245964,0.44643794559836386,0.09833035464230924
1772615944528903000,6.35390283203125,-1.095869822090864,0.6573872194111346,0.25462770855221895
1772615944538971000,6.363970947265625,-0.8842828348964452,0.8454495386332272,0.28360395646132525
1772615944549039000,6.3740390625,-0.7122557046741247,0.9503045823365449,0.25877390497885644
1772615944559107000,6.384107177734375,-0.5856564466744661,0.9454758470058441,0.1547655047001317
1772615944569175000,6.394175048828125,-0.4043243124902248,0.9698334586709737,-0.05299968658327125
1772615944579243000,6.404242919921875,-0.18014964640140532,0.9807628489643335,-0.2803402967565693
1772615944589311200,6.414311279296875,0.04465454976260662,0.9792565360546112,-0.43982112127449363
1772615944599379000,6.42437890625,0.25194413202404975,0.9838865339428186,-0.5742118368679657
1772615944609447000,6.434447021484375,0.44885085195899005,0.9750234285295009,-0.6657507047392428
1772615944619515000,6.444514892578125,0.6216986509144306,0.9335019160956144,-0.768980193067342
1772615944629584100,6.454584228515625,0.7101262914299965,0.8890665620416403,-0.8510016928676515
1772615944639652000,6.464652099609375,0.719162999844551,0.8738619786471128,-0.9170422911386936
1772615944649720000,6.474719970703125,0.7427934662789106,0.9033891019046306,-0.8805760162677615
1772615944659788000,6.4847880859375,0.8178589363962412,0.900838832899928,-0.7014660881776362
1772615944669856000,6.49485595703125,0.8848644341766834,0.9105003952145576,-0.44910435179602354
1772615944679924000,6.504924072265625,0.960009983792901,0.9259341111898421,-0.19450113836424424
1772615944689992000,6.514991943359375,1.014292778122425,0.8491869715958833,0.09533680798267014
1772615944700060200,6.52506005859375,1.010361283892393,0.7226105099499225,0.3610887992126867
1772615944710128000,6.535128173828125,0.9160989458739757,0.5445943684458733,0.4931923171844333
1772615944720196000,6.545196044921875,0.7028875723481178,0.33358255079090593,0.3914028350641951
1772615944730264000,6.55526416015625,0.400543624907732,0.1253390288054943,0.1372896427722182
1772615944740332000,6.56533203125,0.06702654056847095,-0.14340426232814787,-0.07432131895283237
1772615944750400000,6.57539990234375,-0.29749767645299435,-0.36257542104125023,-0.24352190224602818
1772615944760469000,6.585468994140625,-0.6152876148283482,-0.4988327342242002,-0.36708803962748493
1772615944770537200,6.595537109375,-0.8762538422197103,-0.5513415046185255,-0.37460623323787
1772615944780605200,6.605605224609375,-1.0925637662827967,-0.4819546646595001,-0.256098584822379
1772615944790673000,6.6156728515625,-1.1954290974736212,-0.34971418590247627,0.006858451060019433
1772615944800740900,6.625740966796875,-1.175175998517871,-0.20321546469032764,0.37940029911398887
1772615944810808800,6.635808837890625,-1.057847842210531,-0.10240589698553085,0.7205695787068456
1772615944820876800,6.645876708984375,-0.8902128094673156,0.016864625561237336,0.8969087999746203
1772615944830944800,6.65594482421875,-0.7001461646854877,0.08033201234340667,0.9326312707409262
1772615944841013000,6.666012939453125,-0.6096569154649972,0.16729074935019014,0.8931280393268912
1772615944851081000,6.6760810546875,-0.5113789120644331,0.2854477576971054,0.8403842180676758
1772615944861149000,6.68614892578125,-0.3318231399029493,0.2572586050450802,0.6856577667362987
1772615944871217000,6.696216796875,-0.1614858624637127,0.35579029094576836,0.6257043794244528
1772615944881284900,6.706284912109375,0.04184299947321415,0.4463017519980669,0.6008897081742063
1772615944891353900,6.716353759765625,0.27130700414180753,0.4311602969676256,0.6385317122936248
1772615944901421800,6.726421875,0.4990075062692165,0.4375011904269457,0.7104455134470016
1772615944911489800,6.73648974609375,0.6776145994037389,0.3981839100390672,0.7214356209516525
1772615944921558000,6.74655810546875,0.7931190474152564,0.4063654629290104,0.677103800337389
1772615944931625700,6.756625732421875,0.8498843062102794,0.39220600467324257,0.6238906080007552
1772615944941693700,6.766693603515625,0.8168179029107093,0.3241507055789232,0.5528523475728929
1772615944951761700,6.77676171875,0.6218880360066891,0.17386954321861267,0.41754893758129324
1772615944961830000,6.786829833984375,0.3333171778529882,0.09452186573743819,0.19987992705944924
1772615944971897900,6.79689794921875,0.03834054431021213,0.0014449381113052367,0.06164404381252825
1772615944981965800,6.8069658203125,-0.2276736141204834,-0.12689151894450187,-0.01865093358927406
1772615944992034000,6.817033935546875,-0.3965606927514076,-0.14028116187155246,-0.05680628492515534
1772615945002102000,6.82710205078125,-0.47801790973246094,-0.18282851022183894,-0.03320066980426199
1772615945012169700,6.837169677734375,-0.44451603762507436,-0.20496318514049053,-0.040254762167390434
1772615945022238700,6.84723876953125,-0.2834036846488714,-0.08482055593430995,-0.05640543077299371
1772615945032307000,6.857306884765625,-0.1097363860040903,0.06865735664069653,0.09523352113813162
1772615945042375000,6.867375,-0.09193535637557507,0.05105038827955723,0.33616295920554545
1772615945052443000,6.87744287109375,-0.05335515809059143,0.1362017836034298,0.39920875957477836
1772615945062510800,6.8875107421875,0.05018178875148296,0.27395956447720526,0.23633087649708612
1772615945072578800,6.897578857421875,0.05921031385958194,0.33873978742361066,0.10411060027787461
1772615945082646800,6.907646728515625,0.0652554392427206,0.3078291008532047,-0.06353144672801718
1772615945092714800,6.91771484375,0.14612521172463894,0.2832195602536201,-0.21817854921286925
1772615945102782700,6.92778271484375,0.22240181119740007,0.24242402400672433,-0.31618034775424747
1772615945112851000,6.937850830078125,0.3366039444386959,0.1525882702589035,-0.4774707607110962
1772615945122919000,6.9479189453125,0.45421500934064385,0.24074293905198574,-0.3676830829111859
1772615945132987000,6.95798681640625,0.562998624664545,0.1611059232354164,-0.28929880710206923
1772615945143054800,6.968054931640625,0.6148854637682437,0.07780044803917407,-0.18272041020486504
1772615945153123800,6.978123779296875,0.6518535506814718,0.05931026710271835,-0.16757347528170793
1772615945163191800,6.98819189453125,0.6410626920759678,0.004670914420485496,-0.14637904035523533
1772615945173259800,6.998259765625,0.567407673278451,-0.07063362514972686,-0.11106498599303885
1772615945183328000,7.008327880859375,0.44275896482467647,-0.1827688889890909,-0.10921164974393323
1772615945193396000,7.01839599609375,0.2739315074265003,-0.3057581397980451,-0.1763348556199111
1772615945203463700,7.028463623046875,0.17230244003236292,-0.42724458482861516,-0.27991233540177346
1772615945213531600,7.03853173828125,0.14130115256905554,-0.5465501786887645,-0.3352914005354047
1772615945223599900,7.048599853515625,0.09439677805304526,-0.672727996405959,-0.36285935254916546
1772615945233667800,7.058667724609375,0.06597732377648353,-0.6966109762966632,-0.31161892159022386
1772615945243735800,7.06873583984375,0.10698387242555618,-0.6673305212765932,-0.16491152606345713
1772615945253803800,7.0788037109375,0.19418752410411833,-0.6423305200546979,0.0158936251046136
1772615945263872000,7.0888720703125,0.3363935165584087,-0.5301122541069984,0.15802841548621654
1772615945273940000,7.09893994140625,0.5112637612521648,-0.41689036407470703,0.2988050692571327
1772615945284007700,7.109007568359375,0.7177016951203345,-0.41016193260252476,0.4214978213375434
1772615945294077000,7.119076904296875,0.8876344834119081,-0.4726917462736368,0.5777339465795085
1772615945304145000,7.129144775390625,0.9950257675945758,-0.6169990949213504,0.8078832666311413
1772615945314212900,7.139212890625,1.0015841031968593,-0.876185453158617,1.0343369105026126
1772615945324280800,7.14928076171875,0.8640326585501432,-1.1474106242358684,1.0079808915618806
1772615945334348800,7.159348876953125,0.6330933206319809,-1.3142296644210814,0.7096563358306884
1772615945344416800,7.169416748046875,0.3539735969126224,-1.4717138900279998,0.3997290205892175
1772615945354484700,7.179484619140625,-0.020932313391566277,-1.5919371832549571,0.3232536106087267
1772615945364552700,7.189552734375,-0.5143441916108131,-1.6368196965545414,0.3055985653221607
1772615945374621000,7.199620849609375,-1.0597679966181517,-1.5345014778524637,0.19725611789450048
1772615945384689000,7.20968896484375,-1.618295613348484,-1.4008084621995687,-0.05704400267116725
1772615945394756900,7.2197568359375,-2.0490175188988444,-1.1764648692846298,-0.5270747130420058
1772615945404824800,7.229824951171875,-2.19050513395071,-0.8471797234266996,-0.9014107145037501
1772615945414892800,7.239892822265625,-2.049078309175372,-0.6054892743915319,-1.0937838095970451
1772615945424961800,7.2499619140625,-1.588380952078104,-0.1546925490617752,-0.9714833447698503
1772615945435029800,7.26002978515625,-1.0105898319512605,0.33240883083641526,-0.6511566544584929
1772615945445098000,7.270097900390625,-0.3781862471491098,0.6099748953729868,-0.31204671854823823
1772615945455166000,7.280166015625,0.35779344746172426,0.9634154083222151,0.16829311305945738
1772615945465234000,7.29023388671875,0.8938754236280918,1.0153653757899999,0.4456423017086461
1772615945475301600,7.300301513671875,1.2363140655696392,1.1744506068527698,0.5973062601968646
1772615945485369900,7.310369873046875,1.42527479493618,1.0926531981319187,0.5847298333488404
1772615945495437800,7.320437744140625,1.5084505062729119,0.8851993652194737,0.47612584890816356
1772615945505505800,7.330505859375,1.438993523687124,0.6858358997821807,0.37211386843286454
1772615945515573800,7.34057373046875,1.2339853303611277,0.41163960393965243,0.18724667372396214
1772615945525642000,7.35064208984375,1.0212497576534747,0.26132044765651224,-0.0005875723632983863
1772615945535710000,7.3607099609375,0.6858563580483198,0.1406277833521366,-0.14738620810378342
1772615945545778000,7.37077783203125,0.37488194490671156,0.11486965723931788,-0.252598906138353
1772615945555847000,7.380846923828125,0.0952186158299446,0.11879998242557048,-0.18608369435919447
1772615945565915000,7.390914794921875,-0.1765478225171566,0.18822130917608737,-0.05584270972316153
1772615945575982800,7.40098291015625,-0.39432665008902545,0.3201858936011791,0.07932974909883923
1772615945586050800,7.41105078125,-0.5309171407490968,0.3920078517526388,0.19770457404805347
1772615945596119000,7.421119140625,-0.5922668047249317,0.4315571873307228,0.25136949220756066
1772615945606186800,7.431186767578125,-0.6157517252087593,0.5336959578126669,0.29201221251292153
1772615945616254700,7.441254638671875,-0.6725187375694512,0.5983464168995618,0.38547128959074617
1772615945626322700,7.45132275390625,-0.7666857985198497,0.6774070941329002,0.522324303644523
1772615945636391000,7.461390869140625,-0.8251677981048822,0.826777571389079,0.6501585833318532
1772615945646459000,7.471458984375,-0.8060650382280349,0.9816448924958705,0.753306530856341
1772615945656526800,7.48152685546875,-0.7550386153459548,1.070078962752223,0.9235601486001164
1772615945666594800,7.4915947265625,-0.71379358176589,1.0772411094665526,1.054132913340628
1772615945676663000,7.5016630859375,-0.6839455559909343,1.1138573142021895,1.0768820668958128
1772615945686731800,7.511731689453125,-0.7017758117139339,1.1300205134958028,1.1154407109361142
1772615945696799700,7.5217998046875,-0.7381728207409382,1.0519792424380778,1.1503664783667773
1772615945706868000,7.531867919921875,-0.8673357917487621,0.960714917191863,1.073783808619529
1772615945716936000,7.54193603515625,-1.0155775572359562,0.8327712588459253,0.8540109576862305
1772615945727004000,7.55200390625,-1.1435223846256732,0.6249176129609346,0.6062461571734398
1772615945737071900,7.56207177734375,-1.2758937962859869,0.3937234234988689,0.36074846134241667
1772615945747139800,7.572139892578125,-1.4115069663465023,0.23841069671213624,0.10783279913878067
1772615945757207800,7.582207763671875,-1.483750364780426,0.11801204691827297,-0.12320148705383761
1772615945767275800,7.59227587890625,-1.516283099594712,0.039269934114813804,-0.4341293028410524
1772615945777343700,7.60234375,-1.5199679255872964,0.11459259386360644,-0.7813364012934267
1772615945787412000,7.612411865234375,-1.4128414298206566,0.23856793310046195,-0.9526808099485933
1772615945797480200,7.622480224609375,-1.1377128215640782,0.35676994963288305,-0.8814833403710275
1772615945807549000,7.632548828125,-0.7374088506311178,0.5273001192957163,-0.6582271773666143
1772615945817617000,7.642616943359375,-0.28820845458209515,0.6642986062347889,-0.3836381558794528
1772615945827685000,7.65268505859375,0.19239888712167738,0.7248948214948177,-0.17235787828033788
1772615945837753000,7.662753173828125,0.5755816273838281,0.7869184392094611,-0.06710661093420349
1772615945847821000,7.672821044921875,0.9133353263795375,0.8347393440485,0.007174047214677557
1772615945857889000,7.682888916015625,1.170024607104063,0.7679325837105512,0.06256946069491096
1772615945867957000,7.69295703125,1.3146511047035454,0.6970557974547147,0.1398558947973419
1772615945878025000,7.70302490234375,1.3804022185087204,0.6194277833729982,0.17488303111009298
1772615945888093000,7.713093017578125,1.3535750018596648,0.5454647215396166,0.2478973408512771
1772615945898161000,7.723160888671875,1.1860837615013122,0.4349690416008234,0.29435777099207044
1772615945908229000,7.73322900390625,0.9242974498987198,0.3363806570768356,0.2734885494319722
1772615945918297000,7.743297119140625,0.6485621079206466,0.23973171618282793,0.25642169756321237
1772615945928365000,7.753364990234375,0.42649990394115445,0.14137421780526638,0.23170217551682143
1772615945938433000,7.76343310546875,0.2410796236604452,0.05672726487219333,0.2093417290182784
1772615945948502000,7.773501953125,0.059036710858345026,-0.03467442301809787,0.15967068453421815
1772615945958570000,7.783570068359375,-0.08988952976167201,-0.0890320361495018,0.06377574034528806
1772615945968638000,7.793637939453125,-0.19380816939771175,-0.11577274355888366,-0.004671517208684236
1772615945978706200,7.8037060546875,-0.22491233271360395,-0.106059158796072,0.08476973906252533
1772615945988774100,7.813774169921875,-0.275791456079483,-0.14256371985077856,0.1995454709406942
1772615945998842000,7.823842041015625,-0.39340018289387224,-0.13119009292125702,0.23935506489016115
1772615946008909800,7.833909912109375,-0.5017249485343694,-0.10793898119330406,0.23555110602993518
1772615946018978000,7.84397802734375,-0.5926192714244127,-0.1069523082435131,0.30165158126205205
1772615946029046000,7.8540458984375,-0.7199667174428701,-0.15203531255126,0.39249008231163024
1772615946039114000,7.864114013671875,-0.7985211987197399,-0.15175357300043105,0.4074215478532016
1772615946049182000,7.874181884765625,-0.8339385490596294,-0.19123335047364234,0.39593857879769057
1772615946059250200,7.884250244140625,-0.8207377067029475,-0.26593583249747754,0.3644847983265295
1772615946069318100,7.894318115234375,-0.7432984931915998,-0.3307821064174175,0.3282175531590357
1772615946079387000,7.904386962890625,-0.6355974124073982,-0.41270051116943357,0.27311434582471844
1772615946089455000,7.914455078125,-0.5180249259501696,-0.44144028344154357,0.2218963458932936
1772615946099523000,7.924523193359375,-0.3430558970570564,-0.4223953912317753,0.22429946151226757
1772615946109591000,7.934591064453125,-0.17864391801357268,-0.41379999684393404,0.28637360383775085
1772615946119659000,7.944658935546875,-0.024995909568667412,-0.3727098615646362,0.37764381083548065
1772615946129727200,7.954727294921875,0.09403320543766021,-0.3585024725139141,0.4530815483313054
1772615946139795000,7.964794921875,0.18856617709100246,-0.38399639473259445,0.567168896086514
1772615946149863000,7.97486279296875,0.26637714652419087,-0.45376668105125423,0.7716314382284879
1772615946159931000,7.984930908203125,0.2643026783376932,-0.5822393317073583,0.9535685525685548
1772615946169999000,7.9949990234375,0.2193687271118164,-0.6567740559488534,0.8871852052744478
1772615946180067000,8.005067138671874,0.15804653566479682,-0.7081605443149804,0.5702306582773103
1772615946190135000,8.015135009765626,0.04190145166218281,-0.8424059331536292,0.32504202839545904
1772615946200203000,8.025203125,-0.156183079880476,-1.0080354712933302,0.11972109759217127
1772615946210272000,8.03527197265625,-0.39869653573632235,-1.1192717404663561,-0.16446557239424436
1772615946220340000,8.045340087890626,-0.6464438005924225,-1.1008873579919338,-0.4332408295687288
1772615946230408000,8.055407958984375,-0.8712614407598972,-0.9528945988297461,-0.5985329524476081
1772615946240476200,8.06547607421875,-1.0378080937445162,-0.7350958975136279,-0.6695356301054358
1772615946250544000,8.075544189453124,-1.1334160011529921,-0.4383499162107706,-0.6542617808669805
1772615946260612000,8.085612060546875,-1.1088269188195465,-0.0858516525477171,-0.4394640149325132
1772615946270680000,8.09568017578125,-0.8914169245600699,0.20343816753029823,-0.00552033432405442
1772615946280748000,8.105748046875,-0.5782850411236286,0.4393564629048109,0.43083782354760913
1772615946290816000,8.11581591796875,-0.2066851866275072,0.655862786322832,0.7485230229068547
1772615946300884000,8.125884033203125,0.0489776736587286,0.7428501649022102,0.9225107856776564
1772615946310952000,8.135951904296874,0.14795534976124763,0.7601151879578828,0.9197440243780612
1772615946321020200,8.146020263671875,0.21233108355998992,0.6999842521220445,0.7248349080011248
1772615946331089000,8.1560888671875,0.21438100182712078,0.5934013617128133,0.4886407913599163
1772615946341156900,8.166156982421874,0.2398731704801321,0.4872475103706121,0.1336690137227997
1772615946351225000,8.17622509765625,0.29079028776884075,0.3442962525069713,-0.15785707750730216
1772615946361293000,8.18629296875,0.3494944056719541,0.27359014664292336,-0.31235962042231114
1772615946371361000,8.196361083984375,0.37970191240906714,0.2958867341250181,-0.3617713381167501
1772615946381429000,8.206428955078126,0.3290098360478878,0.35066111136376854,-0.3481910679884255
1772615946391497200,8.216497314453125,0.2794067239671945,0.4511047683656215,-0.3502778111346066
1772615946401565200,8.226565185546875,0.2583224348843097,0.5528133307367563,-0.3971836469553411
1772615946411633000,8.2366328125,0.20152327381968496,0.703362788644433,-0.4075849582539871
1772615946421700900,8.246700927734375,0.0810018744289875,0.9773428113877772,-0.32716048185415564
1772615946431769000,8.25676904296875,0.054524201869964595,1.0553986954927443,-0.33305257210005074
1772615946441837000,8.266837158203124,0.16085691691040993,1.1214157667577267,-0.343124724509567
1772615946451905000,8.276905029296875,0.30910394309461114,0.9954799411028623,-0.2756545135605149
1772615946461973000,8.286972900390625,0.43372459449768064,0.8953437426149845,-0.19977506017917765
1772615946472042000,8.2970419921875,0.47357612789273257,0.7632125694513321,-0.2314920764300972
1772615946482110000,8.30710986328125,0.37153672613203526,0.5704249752730131,-0.29733448524791745
1772615946492178000,8.317177978515625,0.10734276886582374,0.3247539321690798,-0.35141456007957456
1772615946502246100,8.32724609375,-0.17798282375633714,0.13846388331651688,-0.4837565995149314
