time,seconds_elapsed,z,y,x
1772615938256494000,0.081494140625,0.0389605350792408,0.3101848065853119,-0.0992257222533226
1772615938266562000,0.09156201171875,0.025329643860459328,0.29528868198394775,-0.08373960852622986
1772615938276630800,0.101630859375,0.00726116169244051,0.2908097803592682,-0.047802120447158813
1772615938286699000,0.111698974609375,-0.005566935054957867,0.27757731080055237,0.01265194732695818
1772615938296767000,0.12176708984375,-0.017017994076013565,0.23759208619594574,0.08366193622350693
1772615938306835000,0.1318349609375,-0.012225027196109295,0.21242505311965942,0.15427659451961517
1772615938316903000,0.14190283203125,-0.008212442509829998,0.2016938477754593,0.2138805240392685
1772615938326971100,0.15197119140625,0.0040655434131622314,0.18397647142410278,0.2506542503833771
1772615938337039000,0.1620390625,0.019966479390859604,0.1760122925043106,0.27140718698501587
1772615938347106800,0.17210693359375,0.03959408774971962,0.14249342679977417,0.27173930406570435
1772615938357174800,0.1821748046875,0.05384599789977074,0.10256626456975937,0.26941677927970886
1772615938367243000,0.192242919921875,0.06400810927152634,0.05475076660513878,0.2532998025417328
1772615938377311000,0.20231103515625,0.08700370788574219,0.018389832228422165,0.23117296397686005
1772615938387379000,0.21237890625,0.1004917323589325,-0.00407025683671236,0.19774991273880005
1772615938397447000,0.222447021484375,0.11294733732938766,-0.005618885159492493,0.15946990251541138
1772615938407515100,0.23251513671875,0.10701953619718552,0.00466498639434576,0.12181521952152252
1772615938417583900,0.242583984375,0.0887121632695198,0.011261370033025742,0.08144436031579971
1772615938427651800,0.25265185546875,0.0645824447274208,0.011173976585268974,0.040156587958335876
1772615938437720000,0.262719970703125,0.04575761780142784,0.014682425186038017,-0.002185808727517724
1772615938447788000,0.2727880859375,0.031234553083777428,0.02832699380815029,-0.04405752196907997
1772615938457856000,0.28285595703125,0.023554261773824692,0.026129886507987976,-0.06881505995988846
1772615938467924000,0.292924072265625,0.022606048732995987,0.01393519714474678,-0.07161298394203186
1772615938477992000,0.302991943359375,0.02827751822769642,0.019266046583652496,-0.05442281812429428
1772615938488060000,0.313059814453125,0.033067502081394196,0.026996472850441933,-0.036007110029459
1772615938498128000,0.3231279296875,0.03781219199299812,0.03842516243457794,-0.018600421026349068
1772615938508195800,0.33319580078125,0.052640195935964584,0.06795565783977509,-0.0060101402923464775
1772615938518264000,0.34326416015625,0.07033690065145493,0.09986485540866852,-0.008502326905727386
1772615938528332000,0.35333203125,0.08905691653490067,0.11873635649681091,-0.011415285058319569
1772615938538400000,0.36339990234375,0.11028391122817993,0.11366037279367447,-0.006777389906346798
1772615938548469000,0.373468994140625,0.12583042681217194,0.11697480827569962,-0.00023357453756034374
1772615938558537000,0.383536865234375,0.15037944912910461,0.10565504431724548,0.01699095219373703
1772615938568605000,0.39360498046875,0.18859441578388214,0.07582482695579529,0.030052512884140015
1772615938578673000,0.4036728515625,0.23957477509975433,0.030837910249829292,0.049185995012521744
1772615938588741000,0.4137412109375,0.2882861793041229,-0.042238593101501465,0.058378566056489944
1772615938598809000,0.42380908203125,0.32246866822242737,-0.09760598093271255,0.050627436488866806
1772615938608877000,0.433876953125,0.3215118646621704,-0.19237051904201508,0.03680972382426262
1772615938618944800,0.44394482421875,0.30725330114364624,-0.24599513411521912,0.01524344552308321
1772615938629013000,0.454012939453125,0.29185283184051514,-0.2810876667499542,-0.047617074102163315
1772615938639081000,0.4640810546875,0.2872689962387085,-0.28346267342567444,-0.14738495647907257
1772615938649149000,0.47414892578125,0.2759101390838623,-0.2680787742137909,-0.2547997534275055
1772615938659217000,0.484216796875,0.25532394647598267,-0.2263294756412506,-0.3561609983444214
1772615938669285000,0.49428515625,0.20224109292030334,-0.14485155045986176,-0.4335765540599823
1772615938679353000,0.50435302734375,0.10957586020231247,-0.03351198136806488,-0.4706408381462097
1772615938689421800,0.514421875,-0.02322464995086193,0.06870672851800919,-0.46108436584472656
1772615938699490000,0.524489990234375,-0.1463359296321869,0.13657498359680176,-0.39572611451148987
1772615938709558000,0.53455810546875,-0.2232368290424347,0.1700291782617569,-0.31074440479278564
1772615938719626000,0.5446259765625,-0.24114686250686646,0.17331606149673462,-0.2199079692363739
1772615938729694000,0.55469384765625,-0.21084852516651154,0.17124523222446442,-0.13837413489818573
1772615938739762200,0.56476220703125,-0.15126802027225494,0.17581255733966827,-0.07257488369941711
1772615938749830000,0.574829833984375,-0.10155527293682098,0.11666548997163773,-0.02231075055897236
1772615938759897900,0.58489794921875,-0.041689541190862656,0.04374973475933075,-0.0025306546594947577
1772615938769965800,0.5949658203125,0.027738140895962715,0.010419134981930256,-0.005016722716391087
1772615938780033800,0.60503369140625,0.08430154621601105,-0.0188846904784441,-0.04255663976073265
1772615938790101800,0.615101806640625,0.12733903527259827,-0.03333393856883049,-0.10093951970338821
1772615938800169700,0.625169677734375,0.15832625329494476,-0.03459734469652176,-0.1599554419517517
1772615938810238000,0.635238037109375,0.18880994617938995,-0.03154614940285683,-0.23157788813114166
1772615938820306000,0.645305908203125,0.20919378101825714,-0.011612656526267529,-0.29558831453323364
1772615938830374700,0.655374755859375,0.22182805836200714,0.005181585438549519,-0.3499436378479004
1772615938840443000,0.66544287109375,0.22065013647079468,0.015104523859918118,-0.38843029737472534
1772615938850510800,0.6755107421875,0.2152535766363144,0.027340620756149292,-0.3960209786891937
1772615938860578800,0.685578857421875,0.20362569391727448,0.03792961686849594,-0.38326364755630493
1772615938870646800,0.695646728515625,0.18260876834392548,0.05071170628070831,-0.3459271192550659
1772615938880715000,0.705715087890625,0.1641557365655899,0.07724957168102264,-0.29451534152030945
1772615938890782700,0.71578271484375,0.14511403441429138,0.11070840805768967,-0.23005041480064392
1772615938900850700,0.7258505859375,0.13808250427246094,0.13577701151371002,-0.16901075839996338
1772615938910918700,0.735918701171875,0.13852418959140778,0.1394365429878235,-0.11948181688785553
1772615938920987000,0.74598681640625,0.1383305788040161,0.14549842476844788,-0.07604140043258667
1772615938931054800,0.756054931640625,0.14466917514801025,0.15196624398231506,-0.037551313638687134
1772615938941122800,0.766122802734375,0.15371140837669373,0.15416760742664337,-0.011692286469042301
1772615938951190800,0.776190673828125,0.16018539667129517,0.15214507281780243,0.017663784325122833
1772615938961259800,0.786259765625,0.17478032410144806,0.1419861763715744,0.04785018414258957
1772615938971327700,0.79632763671875,0.1852395087480545,0.13092784583568573,0.08095167577266693
1772615938981395700,0.806395751953125,0.19100098311901093,0.11768421530723572,0.11075617372989655
1772615938991464000,0.8164638671875,0.19098886847496033,0.09625954180955887,0.13792945444583893
1772615939001532000,0.826531982421875,0.18931134045124054,0.08021639287471771,0.15849518775939941
1772615939011600000,0.836599853515625,0.17124943435192108,0.06890669465065002,0.16752241551876068
1772615939021667800,0.846667724609375,0.14774437248706818,0.06037765368819237,0.16923774778842926
1772615939031735800,0.85673583984375,0.11697719246149063,0.055594753473997116,0.17565666139125824
1772615939041803800,0.8668037109375,0.08243199437856674,0.05430924519896507,0.18122799694538116
1772615939051871700,0.876871826171875,0.04336633160710335,0.04848537594079971,0.18292127549648285
1772615939061939700,0.886939697265625,0.00020527688320726156,0.04244985431432724,0.19003485143184662
1772615939072008000,0.897008056640625,-0.04492736607789993,0.03675481677055359,0.1974436193704605
1772615939082076000,0.907075927734375,-0.0845770388841629,0.018727876245975494,0.1956542432308197
1772615939092143900,0.917143798828125,-0.10427216440439224,-0.018778368830680847,0.17482031881809235
1772615939102212900,0.927212890625,-0.09355933964252472,-0.054571788758039474,0.13298152387142181
1772615939112280800,0.93728076171875,-0.07645536214113235,-0.09115776419639587,0.0743161141872406
1772615939122348800,0.947348876953125,-0.07778534293174744,-0.1398129165172577,0.006811905652284622
1772615939132416800,0.957416748046875,-0.09561468660831451,-0.19287434220314026,-0.0665341466665268
1772615939142485000,0.967485107421875,-0.12779977917671204,-0.22573721408843994,-0.14309683442115784
1772615939152553000,0.977552978515625,-0.15130579471588135,-0.21587517857551575,-0.2151033729314804
1772615939162620700,0.98762060546875,-0.1729026883840561,-0.18684673309326172,-0.27296507358551025
1772615939172688600,0.997688720703125,-0.1913384050130844,-0.1346895545721054,-0.295131653547287
1772615939182756900,1.0077568359375,-0.22041799128055573,-0.08954338729381561,-0.276829332113266
1772615939192824800,1.017824951171875,-0.23462346196174622,-0.061526764184236526,-0.21377147734165192
1772615939202892800,1.027892822265625,-0.2342759221792221,-0.04597150534391403,-0.11635837703943253
1772615939212960800,1.037960693359375,-0.21111679077148438,-0.03955945745110512,-0.014385975897312164
1772615939223029000,1.048029052734375,-0.18589851260185242,-0.027522770687937737,0.085245281457901
1772615939233097000,1.058096923828125,-0.1619577556848526,-0.017312675714492798,0.17824067175388336
1772615939243165700,1.068165771484375,-0.13847745954990387,-0.018253037706017494,0.262825608253479
1772615939253234000,1.07823388671875,-0.11125315725803375,-0.022702142596244812,0.33073994517326355
1772615939263302000,1.088302001953125,-0.10023512691259384,-0.026869190856814384,0.3717654049396515
1772615939273369900,1.098369873046875,-0.11264929175376892,-0.027846207842230797,0.37804561853408813
1772615939283437800,1.108437744140625,-0.14537209272384644,-0.0004313616082072258,0.3588753938674927
1772615939293505800,1.118505859375,-0.19643498957157135,0.032394345849752426,0.3179588317871094
1772615939303573800,1.12857373046875,-0.24548348784446716,0.06136288121342659,0.27216124534606934
1772615939313641700,1.138641845703125,-0.2799417972564697,0.06589221954345703,0.21955330669879913
1772615939323709700,1.148709716796875,-0.2974661886692047,0.04060603678226471,0.16661685705184937
1772615939333778000,1.15877783203125,-0.28672346472740173,-0.008381702937185764,0.10719621926546097
1772615939343846000,1.168845947265625,-0.2611648440361023,-0.06799229979515076,0.04858190938830376
1772615939353913900,1.178913818359375,-0.22391602396965027,-0.155734583735466,-0.018079334869980812
1772615939363981800,1.18898193359375,-0.187888503074646,-0.23331725597381592,-0.07430531829595566
1772615939374049800,1.1990498046875,-0.15938977897167206,-0.27648046612739563,-0.1326274871826172
1772615939384118800,1.209118896484375,-0.13996069133281708,-0.289235919713974,-0.20064303278923035
1772615939394186800,1.219186767578125,-0.134282648563385,-0.280191034078598,-0.2535502314567566
1772615939404255000,1.2292548828125,-0.13461501896381378,-0.2424769401550293,-0.2947804927825928
1772615939414323000,1.239322998046875,-0.13810481131076813,-0.18045079708099365,-0.30777865648269653
1772615939424391000,1.249390869140625,-0.1602891981601715,-0.0980784222483635,-0.2889293432235718
1772615939434458600,1.259458740234375,-0.17234185338020325,-0.019582699984312057,-0.23606692254543304
1772615939444526800,1.26952685546875,-0.15530376136302948,0.048070114105939865,-0.14852508902549744
1772615939454594800,1.2795947265625,-0.12341481447219849,0.07342493534088135,-0.036167606711387634
1772615939464662800,1.289662841796875,-0.07189249992370605,0.06822378188371658,0.07413014024496078
1772615939474730800,1.299730712890625,-0.020729565992951393,0.0586656779050827,0.15454740822315216
1772615939484799000,1.309799072265625,0.018976833671331406,0.04827721789479256,0.21352842450141907
1772615939494867000,1.319866943359375,0.0649709552526474,0.02730162814259529,0.24951839447021484
1772615939504935000,1.329934814453125,0.10431835800409317,0.022321518510580063,0.25246649980545044
1772615939515003600,1.340003662109375,0.13320577144622803,0.013674139976501465,0.21224407851696014
1772615939525072000,1.35007177734375,0.15978571772575378,0.02097333036363125,0.14585840702056885
1772615939535139800,1.360139892578125,0.1818602979183197,0.013341503217816353,0.06322924047708511
1772615939545207800,1.370207763671875,0.2047235369682312,-0.00678613455966115,-0.023584481328725815
1772615939555276000,1.380276123046875,0.22411170601844788,-0.0179147832095623,-0.10209518671035767
1772615939565343700,1.39034375,0.2378815859556198,-0.02698550932109356,-0.1733187586069107
1772615939575411700,1.40041162109375,0.2569197714328766,-0.04708489775657654,-0.22766144573688507
1772615939585479700,1.410479736328125,0.2663324475288391,-0.06725568324327469,-0.26357126235961914
1772615939595548000,1.4205478515625,0.26585471630096436,-0.07404127717018127,-0.2954736053943634
1772615939605615900,1.430615966796875,0.2443438321352005,-0.06598760932683945,-0.29826727509498596
1772615939615683800,1.440683837890625,0.21656547486782074,-0.05404551327228546,-0.2836260497570038
1772615939625751800,1.450751708984375,0.1887463629245758,-0.0277358777821064,-0.25531452894210815
1772615939635820000,1.460820068359375,0.17244118452072144,0.0033691609278321266,-0.2164590209722519
1772615939645887700,1.4708876953125,0.17217913269996643,0.026722952723503113,-0.18159611523151398
1772615939655956700,1.480956787109375,0.18688660860061646,0.048077307641506195,-0.14840896427631378
1772615939666024700,1.491024658203125,0.2099194973707199,0.0689447671175003,-0.1109476238489151
1772615939676093000,1.501093017578125,0.23145820200443268,0.07819399982690811,-0.07183989137411118
1772615939686161000,1.511160888671875,0.2473735213279724,0.0880034863948822,-0.022022804245352745
1772615939696228900,1.521228759765625,0.2388201802968979,0.09221667796373367,0.025369366630911827
1772615939706296600,1.531296630859375,0.2155076563358307,0.10903267562389374,0.0647178441286087
1772615939716364800,1.54136474609375,0.17693409323692322,0.14084628224372864,0.08182743936777115
1772615939726432800,1.551432861328125,0.139759823679924,0.1800573170185089,0.0792769268155098
1772615939736500700,1.561500732421875,0.10485398769378662,0.22797149419784546,0.06226612254977226
1772615939746569000,1.57156884765625,0.0743860974907875,0.27522075176239014,0.041594136506319046
1772615939756637000,1.581636962890625,0.052729278802871704,0.30540552735328674,0.022536251693964005
1772615939766705000,1.591704833984375,0.03867790848016739,0.3213687837123871,0.010128584690392017
1772615939776772900,1.60177294921875,0.02250509522855282,0.32716113328933716,0.006794811226427555
1772615939786841300,1.61184130859375,0.01189639326184988,0.32394909858703613,0.0038634699303656816
1772615939796910300,1.621910400390625,0.014547907747328281,0.3266218602657318,0.005563718266785145
1772615939806978300,1.631978271484375,0.028499409556388855,0.31694501638412476,0.011596843600273132
1772615939817046500,1.642046630859375,0.04221770912408829,0.28944873809814453,0.01928335800766945
1772615939827114200,1.6521142578125,0.052323874086141586,0.26338890194892883,0.02909550815820694
1772615939837182200,1.66218212890625,0.059470340609550476,0.26528045535087585,0.027587352320551872
1772615939847250200,1.672250244140625,0.05309393256902695,0.2708278298377991,0.027019033208489418
1772615939857318400,1.682318359375,0.03505602478981018,0.26832470297813416,0.01578722894191742
1772615939867386400,1.692386474609375,0.010455339215695858,0.2799168825149536,-0.005512467585504055
1772615939877454300,1.702454345703125,-0.010280742309987545,0.2853924036026001,-0.05947040766477585
1772615939887522300,1.712522216796875,0.008859395980834961,0.2626785635948181,-0.1321086585521698
1772615939897590300,1.72259033203125,0.03764602541923523,0.19560477137565613,-0.20726968348026276
1772615939907658200,1.732658203125,0.054351769387722015,0.12242963910102844,-0.2728862464427948
1772615939917726200,1.742726318359375,0.06349678337574005,0.05464530736207962,-0.311769962310791
1772615939927794200,1.752794189453125,0.055394385010004044,-0.005673692561686039,-0.31205546855926514
1772615939937863400,1.762863525390625,0.05934847891330719,-0.06450413912534714,-0.28256356716156006
1772615939947931400,1.772931396484375,0.055167049169540405,-0.09316534548997879,-0.23047161102294922
1772615939957999000,1.7829990234375,0.03133520856499672,-0.06808018684387207,-0.17947416007518768
1772615939968067300,1.7930673828125,-0.024048954248428345,0.00268666073679924,-0.12859393656253815
1772615939978135300,1.80313525390625,-0.09715672582387924,0.121024489402771,-0.07285717129707336
1772615939988203300,1.813203369140625,-0.17714449763298035,0.2509460151195526,-0.0038349602837115526
1772615939998271200,1.823271240234375,-0.23376232385635376,0.3622782230377197,0.08893298357725143
1772615940008339500,1.83333935546875,-0.2553991973400116,0.4263874292373657,0.18697699904441833
1772615940018407400,1.843407470703125,-0.23037481307983398,0.45648571848869324,0.2754794657230377
1772615940028475400,1.853475341796875,-0.16950108110904694,0.46117234230041504,0.33558914065361023
1772615940038543000,1.863543212890625,-0.09180109202861786,0.44975918531417847,0.38049429655075073
1772615940048611300,1.873611328125,-0.02248460240662098,0.4486105740070343,0.3962641954421997
1772615940058679300,1.88367919921875,0.03804213926196098,0.4618777632713318,0.39942029118537903
1772615940068747300,1.893747314453125,0.08437980711460114,0.4659060537815094,0.3872123658657074
1772615940078816500,1.90381640625,0.11363259702920914,0.4506243169307709,0.36366796493530273
1772615940088884500,1.913884521484375,0.1368231475353241,0.4251580834388733,0.3240092396736145
1772615940098952200,1.9239521484375,0.16636401414871216,0.3861021399497986,0.26742103695869446
1772615940109020200,1.934020263671875,0.21266306936740875,0.3465523421764374,0.20237891376018524
1772615940119088400,1.94408837890625,0.2580195367336273,0.310137540102005,0.13587675988674164
1772615940129156400,1.95415625,0.29502949118614197,0.2757148742675781,0.07227222621440887
1772615940139224300,1.964224365234375,0.3243931829929352,0.2382963001728058,0.024273566901683807
1772615940149292300,1.974292236328125,0.34811022877693176,0.1941024661064148,-0.01418727170675993
1772615940159360500,1.984360595703125,0.36154434084892273,0.15533892810344696,-0.0410681888461113
1772615940169428200,1.99442822265625,0.37194105982780457,0.11982513219118118,-0.05824983865022659
1772615940179496200,2.00449609375,0.3774610757827759,0.08110438287258148,-0.06138458847999573
1772615940189564200,2.014564208984375,0.3836478590965271,0.047609005123376846,-0.049034442752599716
1772615940199632400,2.02463232421875,0.3878818154335022,0.020362872630357742,-0.032263822853565216
1772615940209700400,2.034700439453125,0.38116317987442017,0.020096290856599808,-0.014233422465622425
1772615940219769300,2.044769287109375,0.3582424819469452,0.02849668636918068,0.013008734211325645
1772615940229837300,2.05483740234375,0.32084691524505615,0.02164969965815544,0.039301857352256775
1772615940239905300,2.0649052734375,0.27324378490448,0.029455743730068207,0.06849180161952972
1772615940249973200,2.07497314453125,0.2346053272485733,0.0364404171705246,0.08451710641384125
1772615940260041200,2.085041259765625,0.20299136638641357,0.06951382756233215,0.08620603382587433
1772615940270109400,2.095109375,0.16981850564479828,0.13227999210357666,0.07378771156072617
1772615940280177400,2.105177490234375,0.12343224883079529,0.22300809621810913,0.06759398430585861
1772615940290245400,2.115245361328125,0.06248367205262184,0.3192802965641022,0.057243335992097855
1772615940300313300,2.125313232421875,0.017399217933416367,0.393449068069458,0.06436288356781006
1772615940310381300,2.13538134765625,-0.0013539640931412578,0.45096322894096375,0.0898623839020729
1772615940320449300,2.14544921875,0.014540274627506733,0.4588707685470581,0.1260281652212143
1772615940330517200,2.155517333984375,0.05022476986050606,0.4165630042552948,0.17664287984371185
1772615940340585200,2.165585205078125,0.10477542132139206,0.3501110374927521,0.22970016300678253
1772615940350653400,2.1756533203125,0.164413183927536,0.26302725076675415,0.2661827802658081
1772615940360721400,2.185721435546875,0.22483675181865692,0.17216399312019348,0.27797383069992065
1772615940370790100,2.1957900390625,0.2852819859981537,0.1086750328540802,0.256428599357605
1772615940380858000,2.205858154296875,0.32879194617271423,0.07406344264745712,0.19639074802398682
1772615940390926300,2.21592626953125,0.3542048931121826,0.07416676729917526,0.11975084245204926
1772615940400994300,2.225994384765625,0.3535138666629791,0.10598700493574142,0.03658206760883331
1772615940411062300,2.236062255859375,0.3341044783592224,0.14035403728485107,-0.041997428983449936
1772615940421130500,2.246130615234375,0.3132809102535248,0.14374718070030212,-0.10556137561798096
1772615940431198500,2.256198486328125,0.30646055936813354,0.1237228736281395,-0.14371968805789948
1772615940441266200,2.26626611328125,0.3093651533126831,0.09967213124036789,-0.16481782495975494
1772615940451334100,2.276334228515625,0.31826865673065186,0.08119431883096695,-0.16324150562286377
1772615940461402400,2.28640234375,0.3122214376926422,0.059962399303913116,-0.13926197588443756
1772615940471470300,2.29647021484375,0.29873359203338623,0.04832997918128967,-0.10045572370290756
1772615940481538300,2.306538330078125,0.2730035185813904,0.03792492672801018,-0.05536527559161186
1772615940491606300,2.316606201171875,0.24417318403720856,0.028531689196825027,-0.008315476588904858
1772615940501675300,2.32667529296875,0.2115096151828766,0.027801724150776863,0.025224966928362846
1772615940511743200,2.3367431640625,0.18221111595630646,0.03879179060459137,0.04834386706352234
1772615940521811200,2.346811279296875,0.15224753320217133,0.05747620761394501,0.053371019661426544
1772615940531879200,2.356879150390625,0.12485985457897186,0.06677250564098358,0.052230920642614365
1772615940541947400,2.366947509765625,0.10471171140670776,0.0652928501367569,0.043994829058647156
1772615940552015400,2.377015380859375,0.0845051109790802,0.06808307766914368,0.04316122457385063
1772615940562083300,2.387083251953125,0.05822182446718216,0.07552175223827362,0.04823166877031326
1772615940572151300,2.3971513671875,0.03398439288139343,0.06032788008451462,0.06687725335359573
1772615940582219300,2.40721923828125,0.02165823057293892,0.05070919170975685,0.09220444411039352
1772615940592287200,2.417287353515625,0.020851559937000275,0.034111037850379944,0.12371230870485306
1772615940602355200,2.427355224609375,0.028009124100208282,0.01635790802538395,0.1518639624118805
1772615940612423200,2.437423095703125,0.04293987154960632,-0.0030874276999384165,0.17115910351276398
1772615940622491400,2.447491455078125,0.04713389277458191,-0.002467402955517173,0.1747152954339981
1772615940632559400,2.457559326171875,0.03360609710216522,0.007028896361589432,0.17275866866111755
1772615940642627300,2.46762744140625,0.014383072033524513,0.02286183461546898,0.1669994592666626
1772615940652696300,2.4776962890625,-0.014298373833298683,0.038771022111177444,0.16033117473125458
1772615940662764300,2.487764404296875,-0.04269826039671898,0.056404970586299896,0.16085220873355865
1772615940672832300,2.497832275390625,-0.0756189227104187,0.06659555435180664,0.15525585412979126
1772615940682900200,2.507900146484375,-0.08964603394269943,0.06043269857764244,0.14375443756580353
1772615940692968400,2.517968505859375,-0.06530394405126572,0.02510240487754345,0.12296100705862045
1772615940703036400,2.528036376953125,-0.004464953206479549,-0.016732200980186462,0.09008587151765823
1772615940713104100,2.538104248046875,0.06782841682434082,-0.0641777440905571,0.05004257708787918
1772615940723172000,2.548172119140625,0.11732164025306702,-0.11299585551023483,0.0018582998309284449
1772615940733240300,2.558240234375,0.13006165623664856,-0.14933788776397705,-0.05295248702168465
1772615940743308300,2.568308349609375,0.11995094269514084,-0.16089148819446564,-0.10952059924602509
1772615940753376300,2.578376220703125,0.09604614228010178,-0.12233025580644608,-0.17326202988624573
1772615940763444200,2.5884443359375,0.0627598986029625,-0.04877886548638344,-0.23942309617996216
1772615940773512400,2.598512451171875,0.028513247147202492,0.045582789927721024,-0.2888124883174896
1772615940783580400,2.608580322265625,-0.003180286381393671,0.1490609347820282,-0.29783278703689575
1772615940793649200,2.618649169921875,-0.01826523058116436,0.2310040146112442,-0.2535140812397003
1772615940803717400,2.62871728515625,-0.004236685112118721,0.2795841693878174,-0.15540148317813873
1772615940813785300,2.638785400390625,0.04841960221529007,0.29832136631011963,-0.025714589282870293
1772615940823853300,2.648853271484375,0.12658575177192688,0.3011421263217926,0.11467613279819489
1772615940833921300,2.65892138671875,0.2144375741481781,0.27734890580177307,0.23633119463920593
1772615940843989200,2.6689892578125,0.29430559277534485,0.25423088669776917,0.341971218585968
1772615940854057200,2.67905712890625,0.3568403422832489,0.23805780708789825,0.41371089220046997
1772615940864125200,2.689125244140625,0.39928144216537476,0.23461215198040009,0.4529402256011963
1772615940874193200,2.699193115234375,0.40751832723617554,0.2547014355659485,0.45425450801849365
1772615940884261400,2.709261474609375,0.39657533168792725,0.2775721549987793,0.431179404258728
1772615940894329300,2.719329345703125,0.3734372556209564,0.2980060577392578,0.39639079570770264
1772615940904397300,2.729397216796875,0.3499889075756073,0.30611103773117065,0.35088542103767395
1772615940914465300,2.73946533203125,0.3233354687690735,0.30370885133743286,0.300752729177475
1772615940924534300,2.7495341796875,0.29389381408691406,0.2803243100643158,0.24387742578983307
1772615940934602200,2.759602294921875,0.26851364970207214,0.24769766628742218,0.1814393550157547
1772615940944670200,2.769670166015625,0.2466779202222824,0.21824203431606293,0.12094472348690033
1772615940954738400,2.779738525390625,0.2242695540189743,0.18941891193389893,0.05943023040890694
1772615940964806400,2.789806396484375,0.21332071721553802,0.1756206750869751,0.0038895760662853718
1772615940974874400,2.799874267578125,0.19587993621826172,0.183340385556221,-0.031785860657691956
1772615940984942000,2.809942138671875,0.16985762119293213,0.2050955593585968,-0.051295582205057144
1772615940995010300,2.82001025390625,0.12666833400726318,0.23437248170375824,-0.04767661169171333
1772615941005078300,2.830078369140625,0.08177150040864944,0.26232582330703735,-0.01709272339940071
1772615941015146200,2.840146240234375,0.0374453105032444,0.28571128845214844,0.029217517003417015
1772615941025214200,2.850214111328125,0.00017372576985508204,0.31176912784576416,0.07667766511440277
1772615941035282400,2.860282470703125,-0.030303489416837692,0.3304932713508606,0.12306699901819229
1772615941045350400,2.870350341796875,-0.03785531595349312,0.3447747826576233,0.15368223190307617
1772615941055418400,2.88041845703125,-0.02318369410932064,0.3594578504562378,0.15938059985637665
1772615941065487400,2.8904873046875,0.0030356592033058405,0.3439105749130249,0.1566372662782669
1772615941075555300,2.900555419921875,0.044556472450494766,0.30383533239364624,0.14154194295406342
1772615941085623300,2.910623291015625,0.08391048014163971,0.2668581008911133,0.12674042582511902
1772615941095691300,2.920691162109375,0.11073090881109238,0.23912233114242554,0.1061113178730011
1772615941105759500,2.930759521484375,0.11884526163339615,0.22930429875850677,0.08543942123651505
1772615941115827200,2.9408271484375,0.11475037783384323,0.22669680416584015,0.06092769280076027
1772615941125895200,2.950895263671875,0.11652974039316177,0.23756462335586548,0.03929143026471138
1772615941135963100,2.960963134765625,0.12308884412050247,0.252239465713501,0.00577874481678009
1772615941146031400,2.97103125,0.13134121894836426,0.274870902299881,-0.017281364649534225
1772615941156099300,2.981099365234375,0.14198480546474457,0.3000609576702118,-0.034546371549367905
1772615941166167300,2.991167236328125,0.1435697376728058,0.3226790130138397,-0.04266275465488434
1772615941176235300,3.0012353515625,0.1406431794166565,0.34429216384887695,-0.03328496217727661
1772615941186303500,3.011303466796875,0.1449243128299713,0.356802374124527,-0.0005756939062848687
1772615941196371200,3.02137109375,0.15687231719493866,0.36020588874816895,0.03226720541715622
1772615941206439200,3.031439208984375,0.18302689492702484,0.3656315505504608,0.06012212485074997
1772615941216508400,3.04150830078125,0.21067583560943604,0.3775406777858734,0.08208335191011429
1772615941226576400,3.051576416015625,0.2427353411912918,0.38396063446998596,0.09196265786886215
1772615941236644400,3.061644287109375,0.2740567922592163,0.38094913959503174,0.08380166441202164
1772615941246712300,3.07171240234375,0.30196622014045715,0.3783756196498871,0.06638585776090622
1772615941256780300,3.0817802734375,0.33286261558532715,0.37985822558403015,0.04125600308179855
1772615941266848300,3.09184814453125,0.3594798445701599,0.37892529368400574,0.010415533557534218
1772615941276916200,3.101916259765625,0.3900851607322693,0.37553510069847107,-0.02211550995707512
1772615941286984200,3.111984130859375,0.409195214509964,0.37715956568717957,-0.046311430633068085
1772615941297052400,3.122052490234375,0.43736985325813293,0.3727925419807434,-0.07662645727396011
1772615941307120400,3.132120361328125,0.4703628420829773,0.3652370274066925,-0.09420203417539597
1772615941317188400,3.142188232421875,0.5091419219970703,0.36114826798439026,-0.11586791276931763
1772615941327256300,3.15225634765625,0.5496121644973755,0.3648912012577057,-0.1294069141149521
1772615941337324300,3.16232421875,0.5793333053588867,0.3700372278690338,-0.13040266931056976
1772615941347393300,3.172393310546875,0.591042697429657,0.3990374505519867,-0.11611028015613556
1772615941357461200,3.182461181640625,0.5842553377151489,0.4274837374687195,-0.08635211735963821
1772615941367529500,3.192529541015625,0.5655967593193054,0.46629977226257324,-0.04219001904129982
1772615941377597400,3.202597412109375,0.5419449210166931,0.5066519975662231,0.00023173866793513298
1772615941387665200,3.2126650390625,0.5296366214752197,0.5409739017486572,0.04120117425918579
1772615941397733000,3.222733154296875,0.5374343395233154,0.5575594902038574,0.0678279921412468
1772615941407801300,3.23280126953125,0.5558729767799377,0.5812068581581116,0.07783520221710205
1772615941417869300,3.242869384765625,0.5705099701881409,0.6031861901283264,0.08841940015554428
1772615941427937300,3.252937255859375,0.5746585130691528,0.6133646965026855,0.09054170548915863
1772615941438005200,3.263005126953125,0.5608444213867188,0.6165876984596252,0.09824170917272568
1772615941448073500,3.273073486328125,0.5392215251922607,0.6295315027236938,0.10471757501363754
1772615941458141400,3.283141357421875,0.5112287402153015,0.6533764004707336,0.09864290058612823
1772615941468209200,3.293209228515625,0.4917010962963104,0.6769970655441284,0.08494652807712555
1772615941478277000,3.303277099609375,0.4872134029865265,0.6874784231185913,0.06865144520998001
1772615941488346400,3.313346435546875,0.47674649953842163,0.6956920027732849,0.052675146609544754
1772615941498414300,3.323414306640625,0.45544812083244324,0.6956680417060852,0.03382076695561409
1772615941508482300,3.333482421875,0.42810681462287903,0.6942529082298279,0.014903522096574306
1772615941518550300,3.34355029296875,0.3998922109603882,0.6688074469566345,-0.006662490777671337
1772615941528618200,3.3536181640625,0.3718499541282654,0.637769341468811,-0.0393613800406456
1772615941538686200,3.363686279296875,0.3520645499229431,0.606694757938385,-0.07490179687738419
1772615941548754200,3.373754150390625,0.33736053109169006,0.6052008271217346,-0.11898288875818253
1772615941558822400,3.383822509765625,0.3387672007083893,0.612271785736084,-0.16288962960243225
1772615941568890400,3.393890380859375,0.34170132875442505,0.6277176737785339,-0.18756109476089478
1772615941578958300,3.403958251953125,0.34432747960090637,0.6294521689414978,-0.1857469528913498
1772615941589026300,3.4140263671875,0.33569926023483276,0.6205209493637085,-0.1519419401884079
1772615941599094300,3.42409423828125,0.3205227255821228,0.6142734289169312,-0.10017142444849014
1772615941609162200,3.434162353515625,0.2971843183040619,0.6142727732658386,-0.04244385287165642
1772615941619230200,3.444230224609375,0.26833003759384155,0.6310232281684875,0.0061540426686406136
1772615941629298200,3.454298095703125,0.21892431378364563,0.6740249991416931,0.034314222633838654
1772615941639367400,3.464367431640625,0.1660163551568985,0.7318792343139648,0.03827567398548126
1772615941649435400,3.474435302734375,0.12091358751058578,0.7588945031166077,0.02446666732430458
1772615941659503000,3.484503173828125,0.11722643673419952,0.7522403001785278,0.00176774594001472
1772615941669571300,3.4945712890625,0.1593426614999771,0.7140125632286072,-0.03033384308218956
1772615941679639300,3.504639404296875,0.21183569729328156,0.6606694459915161,-0.07466242462396622
1772615941689707300,3.514707275390625,0.2633405327796936,0.5871718525886536,-0.114566370844841
1772615941699775200,3.524775146484375,0.2989368736743927,0.48762020468711853,-0.14184965193271637
1772615941709843500,3.534843505859375,0.30585649609565735,0.4159240424633026,-0.1531893014907837
1772615941719911400,3.544911376953125,0.2907606363296509,0.38863837718963623,-0.16025173664093018
1772615941729979400,3.5549794921875,0.2566850483417511,0.4101918935775757,-0.1546557992696762
1772615941740047000,3.565047119140625,0.20905016362667084,0.46048596501350403,-0.13173797726631165
1772615941750115300,3.575115234375,0.16207537055015564,0.5304508805274963,-0.08527229726314545
1772615941760183300,3.585183349609375,0.12236657738685608,0.6033663749694824,-0.006198782008141279
1772615941770252300,3.595252197265625,0.09799488633871078,0.6522466540336609,0.08996669948101044
1772615941780320500,3.605320556640625,0.09135562926530838,0.6607245802879333,0.1872144341468811
1772615941790388000,3.615387939453125,0.10119686275720596,0.6236662864685059,0.2722535729408264
1772615941800456000,3.6254560546875,0.13589438796043396,0.5629568696022034,0.323388934135437
1772615941810523600,3.635523681640625,0.19130602478981018,0.5006738305091858,0.3515142500400543
1772615941820591600,3.645591552734375,0.25332731008529663,0.4366850256919861,0.3483695983886719
1772615941830659800,3.655659912109375,0.2992763817310333,0.40214553475379944,0.31416672468185425
1772615941840727800,3.665727783203125,0.33402395248413086,0.4090851843357086,0.26541996002197266
1772615941850795800,3.675795654296875,0.3478800058364868,0.43033549189567566,0.22109773755073547
1772615941860863700,3.68586376953125,0.3264082670211792,0.4550808072090149,0.18367339670658112
1772615941870932000,3.695931884765625,0.2931901812553406,0.491826593875885,0.15341633558273315
1772615941880999700,3.705999755859375,0.26009243726730347,0.5334744453430176,0.12783187627792358
1772615941891067600,3.716067626953125,0.22955705225467682,0.5583767890930176,0.10254772752523422
1772615941901135600,3.726135498046875,0.20765520632266998,0.5650373697280884,0.07102202624082565
1772615941911204900,3.736204833984375,0.20885179936885834,0.5539647340774536,0.041919808834791183
1772615941921272800,3.74627294921875,0.22922471165657043,0.5353545546531677,0.013070320710539818
1772615941931340800,3.7563408203125,0.26370978355407715,0.5209086537361145,-0.019487053155899048
1772615941941408800,3.76640869140625,0.2937079071998596,0.5275809168815613,-0.039448246359825134
1772615941951476700,3.776476806640625,0.32103386521339417,0.5246021151542664,-0.053352370858192444
1772615941961544700,3.786544677734375,0.32978421449661255,0.512523889541626,-0.05487969517707825
1772615941971612700,3.79661279296875,0.32242631912231445,0.5002837181091309,-0.04350917041301727
1772615941981681000,3.806680908203125,0.3034198582172394,0.49961549043655396,-0.02460312284529209
1772615941991748900,3.816748779296875,0.28146424889564514,0.5316946506500244,-0.0040129320695996284
1772615942001816800,3.82681689453125,0.27383697032928467,0.5765929222106934,0.010531922802329063
1772615942011884800,3.836884765625,0.27843061089515686,0.6309003829956055,0.026242293417453766
1772615942021952800,3.846952880859375,0.2908678352832794,0.6588243842124939,0.04975401237607002
1772615942032020700,3.857020751953125,0.31531891226768494,0.6716609001159668,0.06757624447345734
1772615942042088700,3.867088623046875,0.3450464606285095,0.6652339100837708,0.08775342255830765
1772615942052158000,3.877157958984375,0.3774486780166626,0.6291289329528809,0.10050951689481735
1772615942062226000,3.887225830078125,0.41505196690559387,0.58808833360672,0.103916235268116
1772615942072293600,3.897293701171875,0.4507461190223694,0.5563348531723022,0.08557794243097305
1772615942082361600,3.907361572265625,0.4810100197792053,0.5412499308586121,0.05006176233291626
1772615942092429800,3.917429931640625,0.5019268989562988,0.5399658679962158,0.0011540655978024006
1772615942102497800,3.927497802734375,0.5121302604675293,0.5510091781616211,-0.053046856075525284
1772615942112565800,3.937565673828125,0.5107394456863403,0.6030992865562439,-0.10645177960395813
1772615942122633700,3.9476337890625,0.48939526081085205,0.7025899291038513,-0.13814261555671692
1772615942132702000,3.957701904296875,0.45997053384780884,0.8118069767951965,-0.14009471237659454
1772615942142770000,3.96777001953125,0.43218711018562317,0.909142017364502,-0.10859056562185287
1772615942152837600,3.977837646484375,0.4176042079925537,0.9567495584487915,-0.04779145494103432
1772615942162905600,3.987905517578125,0.43544790148735046,0.9568001627922058,0.018411267548799515
1772615942172973800,3.997973876953125,0.47596272826194763,0.9370450973510742,0.08405023068189621
1772615942183041800,4.008041748046875,0.5215973258018494,0.9152660369873047,0.12765789031982422
1772615942193110800,4.01811083984375,0.5652785897254944,0.8869022130966187,0.14152495563030243
1772615942203179000,4.028178955078125,0.6050755381584167,0.8774338960647583,0.1120767816901207
1772615942213246700,4.038246826171875,0.6391659379005432,0.8937233090400696,0.057420842349529266
1772615942223314700,4.048314697265625,0.6625649929046631,0.9130243062973022,-0.007765884045511484
1772615942233382700,4.058382568359375,0.681766152381897,0.9260347485542297,-0.060605939477682114
1772615942243451000,4.068450927734375,0.7005417346954346,0.9060301780700684,-0.09808487445116043
1772615942253518800,4.078518798828125,0.7251258492469788,0.9041488766670227,-0.08727794885635376
1772615942263586800,4.0885869140625,0.7635784149169922,0.869379997253418,-0.07183853536844254
1772615942273654800,4.09865478515625,0.7854360938072205,0.8626063466072083,-0.04111511632800102
1772615942283722800,4.10872265625,0.8017855286598206,0.8424480557441711,-0.012129804119467735
1772615942293790700,4.118790771484375,0.8153945803642273,0.8352181315422058,0.03612138703465462
1772615942303858700,4.128858642578125,0.8208675980567932,0.8282888531684875,0.09765558689832687
1772615942313926700,4.1389267578125,0.8007643818855286,0.8186386823654175,0.1530497670173645
1772615942323996000,4.148995849609375,0.7477187514305115,0.815382719039917,0.197901651263237
1772615942334063900,4.15906396484375,0.6810050010681152,0.8245728611946106,0.21336786448955536
1772615942344131600,4.169131591796875,0.610941469669342,0.8537057638168335,0.18932591378688812
1772615942354199800,4.17919970703125,0.5606443881988525,0.8808988928794861,0.14152181148529053
1772615942364267800,4.189267822265625,0.5321735739707947,0.8899943828582764,0.08407715708017349
1772615942374335700,4.199335693359375,0.5212042331695557,0.8788896799087524,0.01982538402080536
1772615942384403700,4.20940380859375,0.5283833146095276,0.8582389950752258,-0.03018265590071678
1772615942394472000,4.219471923828125,0.536543607711792,0.8405966758728027,-0.0508117713034153
1772615942404540000,4.229539794921875,0.5440769195556641,0.8273562788963318,-0.04526627063751221
1772615942414608000,4.23960791015625,0.5559760928153992,0.804156482219696,-0.012324637733399868
1772615942424675600,4.249675537109375,0.564734935760498,0.7645803093910217,0.027422510087490082
1772615942434743800,4.259743896484375,0.5695616602897644,0.7339637875556946,0.0675395280122757
1772615942444811800,4.269811767578125,0.5711164474487305,0.7121701240539551,0.09483053535223007
1772615942454879700,4.279879638671875,0.5616422891616821,0.7101742625236511,0.09362783282995224
1772615942464949000,4.289948974609375,0.5486998558044434,0.7147666215896606,0.07916313409805298
1772615942475017000,4.300016845703125,0.5362134575843811,0.7135383486747742,0.05801934376358986
1772615942485084700,4.310084716796875,0.5288577675819397,0.7027440667152405,0.03754469379782677
1772615942495152600,4.320152587890625,0.5299153327941895,0.6911452412605286,0.02228286862373352
1772615942505220900,4.330220947265625,0.5308338403701782,0.6700961589813232,0.016219116747379303
1772615942515288800,4.340288818359375,0.52860426902771,0.6505306363105774,0.022621408104896545
1772615942525356800,4.350356689453125,0.514931321144104,0.6403318047523499,0.033447954803705215
1772615942535424800,4.3604248046875,0.49984490871429443,0.639457106590271,0.0562768317759037
1772615942545493000,4.370492919921875,0.4825279712677002,0.6163414120674133,0.07823245972394943
1772615942555560700,4.380560791015625,0.48807990550994873,0.5905663371086121,0.07886145263910294
1772615942565628700,4.390628662109375,0.5030947923660278,0.5609732866287231,0.05907096713781357
1772615942575696600,4.400696533203125,0.5179123282432556,0.5117902755737305,0.027870438992977142
1772615942585764900,4.410764892578125,0.5182793140411377,0.4763968884944916,-0.002870695199817419
1772615942595833900,4.420833740234375,0.48331695795059204,0.48157015442848206,-0.023177824914455414
1772615942605901800,4.43090185546875,0.4349009692668915,0.5175902247428894,-0.037386056035757065
1772615942615969800,4.4409697265625,0.3809297978878021,0.5791215896606445,-0.034053537994623184
1772615942626037800,4.451037841796875,0.3483492136001587,0.6550517678260803,-0.011706952936947346
1772615942636105700,4.461105712890625,0.34222784638404846,0.732974648475647,0.029871564358472824
1772615942646173700,4.471173583984375,0.3743032217025757,0.7711308002471924,0.10197266191244125
1772615942656242000,4.481241943359375,0.43694570660591125,0.7604749798774719,0.18277592957019806
1772615942666310000,4.491309814453125,0.5171231031417847,0.7238514423370361,0.26810574531555176
1772615942676377900,4.5013779296875,0.5901371836662292,0.6728467345237732,0.3485572040081024
1772615942686445800,4.51144580078125,0.6545382738113403,0.6326790452003479,0.40579840540885925
1772615942696513800,4.521513671875,0.6919898390769958,0.6104952692985535,0.42555633187294006
1772615942706581800,4.531581787109375,0.7066543102264404,0.6150708198547363,0.40282759070396423
1772615942716649700,4.541649658203125,0.7105270624160767,0.6395924687385559,0.3545885980129242
1772615942726717700,4.5517177734375,0.6964834332466125,0.6662733554840088,0.2897539436817169
1772615942736787000,4.561786865234375,0.6805644035339355,0.6810516119003296,0.2385290414094925
1772615942746854700,4.571854736328125,0.6582362055778503,0.6915311813354492,0.21266335248947144
1772615942756922600,4.581922607421875,0.6254842877388,0.6921266913414001,0.20983394980430603
1772615942766990800,4.591990966796875,0.5798627138137817,0.6744768619537354,0.22824598848819733
1772615942777058800,4.602058837890625,0.5258805751800537,0.6562127470970154,0.26707544922828674
1772615942787127600,4.61212744140625,0.4593822658061981,0.65198814868927,0.29809489846229553
1772615942797195500,4.622195556640625,0.3752266764640808,0.6710825562477112,0.3111589848995209
1772615942807263500,4.632263427734375,0.2921581566333771,0.6916946172714233,0.3039923906326294
1772615942817331200,4.642331298828125,0.23634009063243866,0.7075238823890686,0.2922506332397461
1772615942827399400,4.6523994140625,0.20030352473258972,0.7224392294883728,0.2689058780670166
1772615942837467400,4.66246728515625,0.1656443029642105,0.7690187692642212,0.23855897784233093
1772615942847535400,4.672535400390625,0.13138513267040253,0.7945699095726013,0.2046915590763092
1772615942857603300,4.682603271484375,0.09971468895673752,0.8087261915206909,0.16848911345005035
1772615942867671600,4.692671630859375,0.07494595646858215,0.8003298044204712,0.13175959885120392
1772615942877740300,4.702740234375,0.07076026499271393,0.75914466381073,0.09732117503881454
1772615942887808300,4.712808349609375,0.08981864154338837,0.6960878968238831,0.057053375989198685
1772615942897876500,4.72287646484375,0.12234502285718918,0.6332604885101318,0.02221180498600006
1772615942907944400,4.7329443359375,0.16289697587490082,0.5708724856376648,-0.02520284801721573
1772615942918012400,4.743012451171875,0.21718735992908478,0.5220928192138672,-0.07280310988426208
1772615942928080400,4.753080322265625,0.26825109124183655,0.4734957218170166,-0.11702330410480499
1772615942938148600,4.763148681640625,0.2931307852268219,0.4638177752494812,-0.14673757553100586
1772615942948216300,4.77321630859375,0.3002976179122925,0.46688520908355713,-0.17859004437923431
1772615942958284300,4.7832841796875,0.30856746435165405,0.4672117531299591,-0.21319398283958435
1772615942968352300,4.793352294921875,0.3225399851799011,0.47791579365730286,-0.2441822588443756
1772615942978420500,4.80342041015625,0.32850342988967896,0.47644251585006714,-0.27346310019493103
1772615942988488400,4.813488525390625,0.347663551568985,0.5355806350708008,-0.2925073802471161
1772615942998556400,4.823556396484375,0.34927839040756226,0.5974224209785461,-0.29170629382133484
1772615943008624400,4.833624267578125,0.3455110788345337,0.6488754749298096,-0.27944350242614746
1772615943018693400,4.843693359375,0.35117805004119873,0.7226349711418152,-0.2461993247270584
1772615943028761300,4.85376123046875,0.35842978954315186,0.7817486524581909,-0.2021184265613556
1772615943038829300,4.863829345703125,0.36260101199150085,0.8306679129600525,-0.15761737525463104
1772615943048897500,4.8738974609375,0.3825342357158661,0.8702435493469238,-0.1109478697180748
1772615943058965500,4.883965576171875,0.4137721657752991,0.8725236058235168,-0.05252472683787346
1772615943069033500,4.894033447265625,0.4643615782260895,0.8595420122146606,0.012988501228392124
1772615943079101400,4.904101318359375,0.5214352011680603,0.8339921832084656,0.06356681883335114
1772615943089169400,4.91416943359375,0.5729554295539856,0.8056483864784241,0.10086039453744888
1772615943099237400,4.9242373046875,0.6237436532974243,0.7904760837554932,0.11512800306081772
1772615943109305300,4.934305419921875,0.6712469458580017,0.7793991565704346,0.10588257014751434
1772615943119373300,4.944373291015625,0.7052041292190552,0.7643256187438965,0.08985593914985657
1772615943129441500,4.954441650390625,0.7240666151046753,0.7472320795059204,0.06234129145741463
1772615943139509500,4.964509521484375,0.7353358864784241,0.7352725863456726,0.01563509926199913
1772615943149578200,4.974578125,0.7457911968231201,0.7257621884346008,-0.000926035107113421
1772615943159646500,4.984646484375,0.7361275553703308,0.6799271702766418,-0.006504364311695099
1772615943169714400,4.99471435546875,0.7294504642486572,0.6528276205062866,-0.016520779579877853
1772615943179782400,5.004782470703125,0.7389806509017944,0.6501578688621521,-0.04350917041301727
1772615943189850400,5.014850341796875,0.7443506717681885,0.6408349871635437,-0.07263589650392532
1772615943199918600,5.024918701171875,0.7360373139381409,0.6366870403289795,-0.09267407655715942
1772615943209986600,5.034986572265625,0.7200874090194702,0.6347264051437378,-0.09796711057424545
1772615943220054300,5.04505419921875,0.7095935344696045,0.6347654461860657,-0.09513242542743683
1772615943230122200,5.055122314453125,0.7073295712471008,0.6334484815597534,-0.0926615446805954
1772615943240190500,5.0651904296875,0.7049523591995239,0.6249385476112366,-0.0810440331697464
1772615943250258400,5.075258544921875,0.6926515102386475,0.6096890568733215,-0.07669668644666672
1772615943260326400,5.085326416015625,0.6713423728942871,0.5889493227005005,-0.07794863730669022
1772615943270394400,5.095394287109375,0.636757493019104,0.5714172124862671,-0.08665930479764938
1772615943280463400,5.10546337890625,0.6019558906555176,0.5572744011878967,-0.10386818647384644
1772615943290531300,5.11553125,0.566206157207489,0.5507243871688843,-0.12063624709844589
1772615943300599300,5.125599365234375,0.5300885438919067,0.5606659054756165,-0.1334322988986969
1772615943310667500,5.13566748046875,0.4946860671043396,0.5863696336746216,-0.13665685057640076
1772615943320735500,5.145735595703125,0.4617154896259308,0.6142735481262207,-0.1297103464603424
1772615943330803500,5.155803466796875,0.4238559901714325,0.6387847661972046,-0.11263655126094818
1772615943340871400,5.165871337890625,0.3910292088985443,0.6585233211517334,-0.09070620685815811
1772615943350939400,5.175939453125,0.36678192019462585,0.6757422685623169,-0.06484345346689224
1772615943361007400,5.18600732421875,0.349552184343338,0.6802200675010681,-0.04506354033946991
1772615943371075300,5.196075439453125,0.3377178907394409,0.6774783134460449,-0.03622370958328247
1772615943381143300,5.206143310546875,0.32304561138153076,0.6820250153541565,-0.05015561357140541
1772615943391211500,5.21621142578125,0.3166183531284332,0.6780611872673035,-0.06992080062627792
1772615943401279500,5.226279541015625,0.3184446394443512,0.6608933210372925,-0.08681139349937439
1772615943411347500,5.236347412109375,0.32581228017807007,0.6516894102096558,-0.09766244143247604
1772615943421416400,5.24641650390625,0.32964152097702026,0.6464608311653137,-0.10179732739925385
1772615943431484400,5.256484375,0.32706066966056824,0.6527022123336792,-0.09072283655405045
1772615943441552400,5.266552490234375,0.3271133601665497,0.6627357006072998,-0.04756438359618187
1772615943451620400,5.276620361328125,0.3222813308238983,0.6700085401535034,0.014064093120396137
1772615943461688600,5.2866884765625,0.3142773509025574,0.671084463596344,0.08255499601364136
1772615943471756500,5.296756591796875,0.3014470338821411,0.6792523860931396,0.16070280969142914
1772615943481824500,5.306824462890625,0.28003671765327454,0.6941480040550232,0.23550420999526978
1772615943491892200,5.316892333984375,0.24517913162708282,0.7237948179244995,0.310531347990036
1772615943501960400,5.32696044921875,0.19889427721500397,0.7359760999679565,0.38659051060676575
1772615943512028400,5.3370283203125,0.17376361787319183,0.725554347038269,0.44803228974342346
1772615943522095400,5.347095458984375,0.18463081121444702,0.6893270015716553,0.47754088044166565
1772615943532163300,5.357163330078125,0.23764128983020782,0.622550904750824,0.476095050573349
1772615943542231300,5.367231201171875,0.30392736196517944,0.5536501407623291,0.42576852440834045
1772615943552299500,5.377299560546875,0.34951910376548767,0.488768070936203,0.34325873851776123
1772615943562368500,5.387368408203125,0.35710078477859497,0.457518994808197,0.2572653293609619
1772615943572436200,5.397436279296875,0.33301517367362976,0.450756698846817,0.18558047711849213
1772615943582504400,5.40750439453125,0.2949318587779999,0.46295687556266785,0.14554646611213684
1772615943592572400,5.417572509765625,0.24824000895023346,0.4993359446525574,0.1412995308637619
1772615943602640400,5.427640380859375,0.2074115127325058,0.5452826023101807,0.14854349195957184
1772615943612708400,5.437708251953125,0.17237070202827454,0.5872169733047485,0.17077209055423737
1772615943622776600,5.447776611328125,0.1386595368385315,0.6139280796051025,0.19626189768314362
1772615943632844500,5.457844482421875,0.11556941270828247,0.6232858896255493,0.2257971465587616
1772615943642912500,5.46791259765625,0.11041203141212463,0.6186569929122925,0.24031437933444977
1772615943652980200,5.477980224609375,0.12526075541973114,0.6097005605697632,0.2429884523153305
1772615943663048400,5.48804833984375,0.15593281388282776,0.587344765663147,0.22555850446224213
1772615943673116400,5.498116455078125,0.1899389773607254,0.5497071146965027,0.20204704999923706
1772615943683184400,5.508184326171875,0.21955539286136627,0.5010286569595337,0.17337453365325928
1772615943693252400,5.51825244140625,0.2530158758163452,0.4627710282802582,0.15260428190231323
1772615943703321300,5.5283212890625,0.26311418414115906,0.44087523221969604,0.13519226014614105
1772615943713389300,5.538389404296875,0.25516679883003235,0.4158886671066284,0.11922980844974518
1772615943723457300,5.548457275390625,0.24284513294696808,0.39949625730514526,0.10686236619949341
1772615943733525500,5.558525390625,0.21397806704044342,0.3827255368232727,0.08606760203838348
1772615943743593500,5.568593505859375,0.1686975359916687,0.39836546778678894,0.052651360630989075
1772615943753661400,5.578661376953125,0.13857531547546387,0.4303055703639984,-0.0033309487625956535
1772615943763729400,5.5887294921875,0.11776342242956161,0.45404839515686035,-0.056315965950489044
1772615943773797600,5.598797607421875,0.09867601096630096,0.47223296761512756,-0.09640692174434662
1772615943783865300,5.608865234375,0.09031660854816437,0.49419504404067993,-0.13334333896636963
1772615943793933000,5.61893310546875,0.08778607100248337,0.5000867247581482,-0.15525183081626892
1772615943804001000,5.6290009765625,0.09242787212133408,0.49778974056243896,-0.17789599299430847
1772615943814069000,5.639069091796875,0.09667614847421646,0.5074740648269653,-0.1907193809747696
1772615943824137000,5.649136962890625,0.10426430404186249,0.5240510702133179,-0.19523507356643677
1772615943834206200,5.659206298828125,0.1061980202794075,0.5547330975532532,-0.1975450962781906
1772615943844274000,5.66927392578125,0.10930338501930237,0.57008296251297,-0.1987895518541336
1772615943854342000,5.679341796875,0.14169780910015106,0.5940628051757812,-0.20973007380962372
1772615943864410000,5.68941015625,0.1845727264881134,0.6014530062675476,-0.2368003875017166
1772615943874478000,5.69947802734375,0.23149815201759338,0.5923924446105957,-0.27193254232406616
1772615943884546000,5.709546142578125,0.29312360286712646,0.5966537594795227,-0.2970297038555145
1772615943894614000,5.719614013671875,0.34779298305511475,0.5594592094421387,-0.3025563061237335
1772615943904682200,5.72968212890625,0.4048563838005066,0.5313116312026978,-0.28630882501602173
1772615943914750200,5.739750244140625,0.46124163269996643,0.518966019153595,-0.2550390362739563
1772615943924818000,5.74981787109375,0.5011476278305054,0.4995857775211334,-0.22896240651607513
1772615943934886000,5.759885986328125,0.5278644561767578,0.50937819480896,-0.19290879368782043
1772615943944954000,5.7699541015625,0.5279587507247925,0.5397583842277527,-0.12757663428783417
1772615943955022000,5.78002197265625,0.49842557311058044,0.5724217891693115,-0.04109926149249077
1772615943965091000,5.790091064453125,0.4618178606033325,0.6120284795761108,0.06686802208423615
1772615943975159300,5.8001591796875,0.4410838186740875,0.640339195728302,0.15913458168506622
1772615943985227000,5.81022705078125,0.44406330585479736,0.6432387232780457,0.21363365650177002
1772615943995295000,5.820294921875,0.4778135418891907,0.6374719142913818,0.21957464516162872
1772615944005363000,5.830363037109375,0.5270542502403259,0.6334015130996704,0.1824287474155426
1772615944015431200,5.84043115234375,0.5679188370704651,0.6200380921363831,0.12308447808027267
1772615944025499100,5.8504990234375,0.5985391139984131,0.5939260125160217,0.0590565949678421
1772615944035567000,5.860567138671875,0.6029983162879944,0.564550518989563,-0.004478438291698694
1772615944045635000,5.870635009765625,0.5997471809387207,0.5337390899658203,-0.06347553431987762
1772615944055703000,5.880703125,0.5870489478111267,0.5233490467071533,-0.10509622097015381
1772615944065771000,5.89077099609375,0.5798314809799194,0.5074018239974976,-0.13969717919826508
1772615944075839000,5.9008388671875,0.5743480324745178,0.4867716431617737,-0.16928303241729736
1772615944085907000,5.910906982421875,0.5725368857383728,0.4619038999080658,-0.19476006925106049
1772615944095976200,5.92097607421875,0.5671871304512024,0.44575849175453186,-0.2143135368824005
1772615944106044200,5.931044189453125,0.5543385744094849,0.42867740988731384,-0.2172400951385498
1772615944116112000,5.94111181640625,0.534600555896759,0.4041425287723541,-0.20380763709545135
1772615944126179800,5.951179931640625,0.5015797019004822,0.38416996598243713,-0.18520477414131165
1772615944136248000,5.961248046875,0.4588037431240082,0.38403892517089844,-0.16976642608642578
1772615944146316000,5.97131591796875,0.39890751242637634,0.3895318806171417,-0.15331847965717316
1772615944156384000,5.981384033203125,0.34657585620880127,0.3891561031341553,-0.1432594507932663
1772615944166452000,5.991451904296875,0.30334678292274475,0.4061329960823059,-0.13669906556606293
1772615944176520200,6.001520263671875,0.27553698420524597,0.4353545308113098,-0.1265111267566681
1772615944186588200,6.011588134765625,0.26140087842941284,0.45806241035461426,-0.10803317278623581
1772615944196655900,6.02165576171875,0.24977031350135803,0.4753047823905945,-0.10033956915140152
1772615944206724000,6.03172412109375,0.2542041838169098,0.49814027547836304,-0.07117417454719543
1772615944216792000,6.0417919921875,0.2569597363471985,0.5064407587051392,-0.03837868198752403
1772615944226861000,6.051861083984375,0.26301658153533936,0.5058007836341858,-0.017020700499415398
1772615944236929000,6.061928955078125,0.27728232741355896,0.5187339186668396,0.000698908930644393
1772615944246997000,6.0719970703125,0.29947349429130554,0.5256713032722473,0.01654476299881935
1772615944257065000,6.08206494140625,0.32294154167175293,0.5131552219390869,0.030483216047286987
1772615944267133000,6.0921328125,0.34250372648239136,0.5021899342536926,0.045727796852588654
1772615944277201000,6.102200927734375,0.34766706824302673,0.49215731024742126,0.0667521208524704
1772615944287269000,6.11226904296875,0.3444148898124695,0.48646071553230286,0.07839512825012207
1772615944297337000,6.122337158203125,0.34161216020584106,0.48778802156448364,0.0819922611117363
1772615944307405000,6.132405029296875,0.3325849771499634,0.4928281307220459,0.09512511640787125
1772615944317473000,6.14247314453125,0.3269515931606293,0.4896608293056488,0.10778818279504776
1772615944327541000,6.152541015625,0.3209138810634613,0.48217859864234924,0.12107083946466446
1772615944337609000,6.16260888671875,0.312760591506958,0.4700729548931122,0.14868062734603882
1772615944347677000,6.172677001953125,0.3045428693294525,0.4565460681915283,0.17995041608810425
1772615944357745000,6.182744873046875,0.29539862275123596,0.4313237965106964,0.20423763990402222
1772615944367814100,6.192814208984375,0.29224565625190735,0.39449742436408997,0.2060796469449997
1772615944377882000,6.202882080078125,0.2901982069015503,0.3641485869884491,0.18365342915058136
1772615944387949800,6.21294970703125,0.28431931138038635,0.32684147357940674,0.15103338658809662
1772615944398018000,6.22301806640625,0.2732293903827667,0.2909175753593445,0.1075463593006134
1772615944408086000,6.2330859375,0.2508370578289032,0.2861047089099884,0.06821534782648087
1772615944418154000,6.243154052734375,0.22875891625881195,0.2924526035785675,0.016323920339345932
1772615944428222000,6.253221923828125,0.20875395834445953,0.315605491399765,-0.04033070430159569
1772615944438290200,6.263290283203125,0.19655056297779083,0.34278786182403564,-0.0984877496957779
1772615944448358100,6.273358154296875,0.18065960705280304,0.3830800950527191,-0.1407635360956192
1772615944458426000,6.283426025390625,0.16257300972938538,0.4267737865447998,-0.1602885127067566
1772615944468493800,6.293493896484375,0.1357996016740799,0.4918093979358673,-0.1368844211101532
1772615944478562000,6.30356201171875,0.11835483461618423,0.5592073798179626,-0.07517498731613159
1772615944488630000,6.313630126953125,0.10740058124065399,0.6012004613876343,0.01657251827418804
1772615944498699000,6.323698974609375,0.11937921494245529,0.6215709447860718,0.10519932210445404
1772615944508767200,6.333767333984375,0.15901361405849457,0.6259584426879883,0.19465240836143494
1772615944518835000,6.3438349609375,0.21201744675636292,0.6229075193405151,0.2699738144874573
1772615944528903000,6.35390283203125,0.2670742869377136,0.6012934446334839,0.3442312479019165
1772615944538971000,6.363970947265625,0.3230624496936798,0.5662510395050049,0.4206426739692688
1772615944549039000,6.3740390625,0.3589083254337311,0.531746506690979,0.4838073253631592
1772615944559107000,6.384107177734375,0.3709346354007721,0.5103890299797058,0.529539942741394
1772615944569175000,6.394175048828125,0.36107832193374634,0.49804919958114624,0.5506041646003723
1772615944579243000,6.404242919921875,0.3416162133216858,0.4903060793876648,0.5479252934455872
1772615944589311200,6.414311279296875,0.3151206374168396,0.4837285578250885,0.5230183601379395
1772615944599379000,6.42437890625,0.28289932012557983,0.48322203755378723,0.4735509753227234
1772615944609447000,6.434447021484375,0.24453864991664886,0.47331345081329346,0.40831831097602844
1772615944619515000,6.444514892578125,0.20028623938560486,0.46878528594970703,0.3452935516834259
1772615944629584100,6.454584228515625,0.1466706097126007,0.47158896923065186,0.29295456409454346
1772615944639652000,6.464652099609375,0.09893637895584106,0.45889395475387573,0.24712210893630981
1772615944649720000,6.474719970703125,0.06901765614748001,0.43826985359191895,0.2041357457637787
1772615944659788000,6.4847880859375,0.054848577827215195,0.41928204894065857,0.1561727374792099
1772615944669856000,6.49485595703125,0.06249207630753517,0.3924124538898468,0.0991036593914032
1772615944679924000,6.504924072265625,0.09093783795833588,0.3548949062824249,0.022974003106355667
1772615944689992000,6.514991943359375,0.14454753696918488,0.3125638961791992,-0.06426213681697845
1772615944700060200,6.52506005859375,0.2043094038963318,0.27303221821784973,-0.16229310631752014
1772615944710128000,6.535128173828125,0.24263198673725128,0.2535848617553711,-0.2589947581291199
1772615944720196000,6.545196044921875,0.25191548466682434,0.2613077461719513,-0.35323870182037354
1772615944730264000,6.55526416015625,0.25278764963150024,0.29451465606689453,-0.4294782876968384
1772615944740332000,6.56533203125,0.23517243564128876,0.3436800539493561,-0.47869378328323364
1772615944750400000,6.57539990234375,0.2078690081834793,0.4036920666694641,-0.5121395587921143
1772615944760469000,6.585468994140625,0.1859234869480133,0.4915715754032135,-0.5160509347915649
1772615944770537200,6.595537109375,0.1748974472284317,0.5729915499687195,-0.47993946075439453
1772615944780605200,6.605605224609375,0.18096305429935455,0.634072482585907,-0.41137105226516724
1772615944790673000,6.6156728515625,0.2308463752269745,0.6700144410133362,-0.3251582384109497
1772615944800740900,6.625740966796875,0.30549585819244385,0.7063825726509094,-0.24110621213912964
1772615944810808800,6.635808837890625,0.3810170590877533,0.7164465188980103,-0.16909638047218323
1772615944820876800,6.645876708984375,0.45798560976982117,0.7211943864822388,-0.1103113666176796
1772615944830944800,6.65594482421875,0.5302663445472717,0.7506200075149536,-0.04576036334037781
1772615944841013000,6.666012939453125,0.5850411653518677,0.7322708368301392,0.033684127032756805
1772615944851081000,6.6760810546875,0.6214454174041748,0.7673808932304382,0.0947735533118248
1772615944861149000,6.68614892578125,0.6590431332588196,0.7976444959640503,0.13354839384555817
1772615944871217000,6.696216796875,0.6871438026428223,0.8238301277160645,0.162680521607399
1772615944881284900,6.706284912109375,0.7144705057144165,0.8289742469787598,0.1686002016067505
1772615944891353900,6.716353759765625,0.7420015335083008,0.8151649832725525,0.15545210242271423
1772615944901421800,6.726421875,0.7586801052093506,0.7887943983078003,0.11476138979196548
1772615944911489800,6.73648974609375,0.7679563164710999,0.7577179074287415,0.06247864291071892
1772615944921558000,6.74655810546875,0.7680785655975342,0.72555011510849,-0.012436607852578163
1772615944931625700,6.756625732421875,0.7644617557525635,0.7073132395744324,-0.09992395341396332
1772615944941693700,6.766693603515625,0.7554552555084229,0.7067276239395142,-0.17422720789909363
1772615944951761700,6.77676171875,0.7367032766342163,0.7301032543182373,-0.2145342230796814
1772615944961830000,6.786829833984375,0.7127135396003723,0.7630809545516968,-0.23032276332378387
1772615944971897900,6.79689794921875,0.6942562460899353,0.805788516998291,-0.2099398374557495
1772615944981965800,6.8069658203125,0.674923300743103,0.8383184671401978,-0.1632911115884781
1772615944992034000,6.817033935546875,0.6563145518302917,0.8446891903877258,-0.11537108570337296
1772615945002102000,6.82710205078125,0.6326528787612915,0.8502450585365295,-0.07150562852621078
1772615945012169700,6.837169677734375,0.6048950552940369,0.8508325219154358,-0.04586666449904442
1772615945022238700,6.84723876953125,0.600324273109436,0.8193806409835815,-0.013100462034344673
1772615945032307000,6.857306884765625,0.6139134168624878,0.7656081914901733,0.01972436159849167
1772615945042375000,6.867375,0.6264984607696533,0.7110461592674255,0.049010876566171646
1772615945052443000,6.87744287109375,0.6248432397842407,0.6745427846908569,0.05645705386996269
1772615945062510800,6.8875107421875,0.6234315037727356,0.6484414339065552,0.08016903698444366
1772615945072578800,6.897578857421875,0.6013163328170776,0.6173264384269714,0.10740566998720169
1772615945082646800,6.907646728515625,0.57319575548172,0.5823002457618713,0.12274999916553497
1772615945092714800,6.91771484375,0.5319550037384033,0.5389207601547241,0.13949613273143768
1772615945102782700,6.92778271484375,0.4990450441837311,0.5667055249214172,0.131082683801651
1772615945112851000,6.937850830078125,0.47547605633735657,0.575735330581665,0.09617417305707932
1772615945122919000,6.9479189453125,0.4575178325176239,0.5584367513656616,0.0663164034485817
1772615945132987000,6.95798681640625,0.44741690158843994,0.5205049514770508,0.04326963424682617
1772615945143054800,6.968054931640625,0.4395568370819092,0.486564576625824,0.013955422677099705
1772615945153123800,6.978123779296875,0.43381795287132263,0.46962302923202515,-0.010485458187758923
1772615945163191800,6.98819189453125,0.4396713376045227,0.4620093107223511,-0.038866765797138214
1772615945173259800,6.998259765625,0.4420897364616394,0.462411493062973,-0.046114251017570496
1772615945183328000,7.008327880859375,0.43175241351127625,0.47338560223579407,-0.03927232697606087
1772615945193396000,7.01839599609375,0.4037640392780304,0.4958251416683197,-0.028221571817994118
1772615945203463700,7.028463623046875,0.3657332956790924,0.5131258368492126,-0.018640583381056786
1772615945213531600,7.03853173828125,0.3211439847946167,0.5272309184074402,0.0045390622690320015
1772615945223599900,7.048599853515625,0.2781190276145935,0.5444474220275879,0.03602561727166176
1772615945233667800,7.058667724609375,0.2529159486293793,0.5474601984024048,0.07230054587125778
1772615945243735800,7.06873583984375,0.23455025255680084,0.5411868095397949,0.10986336320638657
1772615945253803800,7.0788037109375,0.22652648389339447,0.5375779271125793,0.13524526357650757
1772615945263872000,7.0888720703125,0.22527827322483063,0.5455724596977234,0.15106497704982758
1772615945273940000,7.09893994140625,0.2317553162574768,0.5486113429069519,0.155544251203537
1772615945284007700,7.109007568359375,0.23804382979869843,0.5382790565490723,0.1529894769191742
1772615945294077000,7.119076904296875,0.2635522782802582,0.493573397397995,0.1387721300125122
1772615945304145000,7.129144775390625,0.3080531656742096,0.4376262426376343,0.09586620330810547
1772615945314212900,7.139212890625,0.3396711051464081,0.39904168248176575,0.03926687315106392
1772615945324280800,7.14928076171875,0.33263397216796875,0.3675609827041626,-0.019383924081921577
1772615945334348800,7.159348876953125,0.3080398738384247,0.3308521509170532,-0.06407508254051208
1772615945344416800,7.169416748046875,0.29140257835388184,0.27232012152671814,-0.08819852769374847
1772615945354484700,7.179484619140625,0.30271169543266296,0.24289806187152863,-0.09336373209953308
1772615945364552700,7.189552734375,0.3391093909740448,0.2698836028575897,-0.07897546887397766
1772615945374621000,7.199620849609375,0.36081603169441223,0.3261597752571106,-0.0069468338042497635
1772615945384689000,7.20968896484375,0.34807920455932617,0.38903382420539856,0.12063882499933243
1772615945394756900,7.2197568359375,0.2936129570007324,0.45692476630210876,0.2871360778808594
1772615945404824800,7.229824951171875,0.2206713706254959,0.494860976934433,0.46004366874694824
1772615945414892800,7.239892822265625,0.1608293354511261,0.547020435333252,0.6025912165641785
1772615945424961800,7.2499619140625,0.13085146248340607,0.576898992061615,0.7336975932121277
1772615945435029800,7.26002978515625,0.12557771801948547,0.5780138969421387,0.8010452389717102
1772615945445098000,7.270097900390625,0.1574094146490097,0.572532594203949,0.8073142766952515
1772615945455166000,7.280166015625,0.20255368947982788,0.5730369091033936,0.7513225078582764
1772615945465234000,7.29023388671875,0.24541646242141724,0.5485824346542358,0.6621324419975281
1772615945475301600,7.300301513671875,0.27233779430389404,0.5016747117042542,0.5568052530288696
1772615945485369900,7.310369873046875,0.2822338342666626,0.45518386363983154,0.44827800989151
1772615945495437800,7.320437744140625,0.2720782160758972,0.38157883286476135,0.3335627019405365
1772615945505505800,7.330505859375,0.23605762422084808,0.32610732316970825,0.22329214215278625
1772615945515573800,7.34057373046875,0.18891198933124542,0.30972641706466675,0.10543601214885712
1772615945525642000,7.35064208984375,0.15003062784671783,0.36247938871383667,-0.012037888169288635
1772615945535710000,7.3607099609375,0.10559936612844467,0.4129704535007477,-0.11409765481948853
1772615945545778000,7.37077783203125,0.06685011088848114,0.4497170150279999,-0.1864035427570343
1772615945555847000,7.380846923828125,0.040400657802820206,0.47705861926078796,-0.21915988624095917
1772615945565915000,7.390914794921875,0.027470745146274567,0.5060027241706848,-0.2411211133003235
1772615945575982800,7.40098291015625,0.014615755528211594,0.5402171611785889,-0.2566949129104614
1772615945586050800,7.41105078125,0.0004517344059422612,0.5806692838668823,-0.26489052176475525
1772615945596119000,7.421119140625,-0.018358122557401657,0.6092224717140198,-0.2628740966320038
1772615945606186800,7.431186767578125,-0.025675689801573753,0.6292933821678162,-0.24723947048187256
1772615945616254700,7.441254638671875,-0.01686009392142296,0.6562373638153076,-0.22036205232143402
1772615945626322700,7.45132275390625,0.006811147090047598,0.6824743151664734,-0.17932939529418945
1772615945636391000,7.461390869140625,0.04027464613318443,0.697056770324707,-0.13485340774059296
1772615945646459000,7.471458984375,0.0935479924082756,0.6929104924201965,-0.09753240644931793
1772615945656526800,7.48152685546875,0.15700867772102356,0.6716511249542236,-0.06328728049993515
1772615945666594800,7.4915947265625,0.22538986802101135,0.6325255632400513,-0.02959456294775009
1772615945676663000,7.5016630859375,0.3024258613586426,0.5804651975631714,-0.011960279196500778
1772615945686731800,7.511731689453125,0.39242684841156006,0.5414895415306091,-0.015452215448021889
1772615945696799700,7.5217998046875,0.4772169589996338,0.5204712748527527,-0.027068931609392166
1772615945706868000,7.531867919921875,0.5402425527572632,0.49994468688964844,-0.038725584745407104
1772615945716936000,7.54193603515625,0.5822139978408813,0.4649696946144104,-0.052958372980356216
1772615945727004000,7.55200390625,0.6032851934432983,0.43515509366989136,-0.06135425344109535
1772615945737071900,7.56207177734375,0.6154076457023621,0.4157294034957886,-0.07205446064472198
1772615945747139800,7.572139892578125,0.6103500723838806,0.40672045946121216,-0.08735431730747223
1772615945757207800,7.582207763671875,0.5837166905403137,0.42483991384506226,-0.08573339134454727
1772615945767275800,7.59227587890625,0.5296481251716614,0.4593946933746338,-0.05811747908592224
1772615945777343700,7.60234375,0.4687240421772003,0.487800270318985,-0.007740817964076996
1772615945787412000,7.612411865234375,0.4253392815589905,0.5078474879264832,0.053387515246868134
1772615945797480200,7.622480224609375,0.4094705879688263,0.5257630944252014,0.10631704330444336
1772615945807549000,7.632548828125,0.4135172367095947,0.5040397047996521,0.1432364583015442
1772615945817617000,7.642616943359375,0.4232557415962219,0.4702454209327698,0.1516520380973816
1772615945827685000,7.65268505859375,0.4391516149044037,0.45427897572517395,0.14488254487514496
1772615945837753000,7.662753173828125,0.44210290908813477,0.4166161119937897,0.11235475540161133
1772615945847821000,7.672821044921875,0.4412650763988495,0.3768567144870758,0.053477320820093155
1772615945857889000,7.682888916015625,0.44123730063438416,0.3639466166496277,-0.01802888885140419
1772615945867957000,7.69295703125,0.4490528702735901,0.3634997606277466,-0.10906852036714554
1772615945878025000,7.70302490234375,0.45257264375686646,0.3459305167198181,-0.19021345674991608
1772615945888093000,7.713093017578125,0.45283547043800354,0.31316858530044556,-0.24972684681415558
1772615945898161000,7.723160888671875,0.4502064883708954,0.2883290946483612,-0.278029203414917
1772615945908229000,7.73322900390625,0.4446897506713867,0.2574116587638855,-0.28500187397003174
1772615945918297000,7.743297119140625,0.43739616870880127,0.2324538677930832,-0.2769290506839752
1772615945928365000,7.753364990234375,0.42903515696525574,0.2134958803653717,-0.27041786909103394
1772615945938433000,7.76343310546875,0.41221141815185547,0.19550243020057678,-0.2623167335987091
1772615945948502000,7.773501953125,0.371866911649704,0.18622371554374695,-0.25202497839927673
1772615945958570000,7.783570068359375,0.32705479860305786,0.18407267332077026,-0.24201169610023499
1772615945968638000,7.793637939453125,0.2843547463417053,0.17997246980667114,-0.24496673047542572
1772615945978706200,7.8037060546875,0.24780552089214325,0.16625085473060608,-0.2455185055732727
1772615945988774100,7.813774169921875,0.2110176682472229,0.1620507836341858,-0.23603685200214386
1772615945998842000,7.823842041015625,0.1720125675201416,0.16356894373893738,-0.21720024943351746
1772615946008909800,7.833909912109375,0.1461692601442337,0.1500302255153656,-0.181916281580925
1772615946018978000,7.84397802734375,0.12595908343791962,0.13106247782707214,-0.13651689887046814
1772615946029046000,7.8540458984375,0.11157482117414474,0.11932884156703949,-0.07826664298772812
1772615946039114000,7.864114013671875,0.09670772403478622,0.10779096931219101,-0.022949324920773506
1772615946049182000,7.874181884765625,0.0797276720404625,0.10636404156684875,0.03258503973484039
1772615946059250200,7.884250244140625,0.05327894911170006,0.10173527151346207,0.08342947065830231
1772615946069318100,7.894318115234375,0.02463451772928238,0.0817466452717781,0.12151134014129639
1772615946079387000,7.904386962890625,-0.012143686413764954,0.07651926577091217,0.154371440410614
1772615946089455000,7.914455078125,-0.04543799161911011,0.07531711459159851,0.17121514678001404
1772615946099523000,7.924523193359375,-0.07482658326625824,0.06712555885314941,0.18068230152130127
1772615946109591000,7.934591064453125,-0.10073648393154144,0.04773508012294769,0.18452364206314087
1772615946119659000,7.944658935546875,-0.12401161342859268,0.030246423557400703,0.1837460994720459
1772615946129727200,7.954727294921875,-0.1491800844669342,-0.003275051014497876,0.18279321491718292
1772615946139795000,7.964794921875,-0.14362198114395142,-0.07113734632730484,0.1625865250825882
1772615946149863000,7.97486279296875,-0.12059202045202255,-0.1481780707836151,0.12145666033029556
1772615946159931000,7.984930908203125,-0.10631359368562698,-0.20467698574066162,0.07110930979251862
1772615946169999000,7.9949990234375,-0.119808629155159,-0.25830987095832825,0.011033195070922375
1772615946180067000,8.005067138671874,-0.13776183128356934,-0.2963408827781677,-0.061628665775060654
1772615946190135000,8.015135009765626,-0.16444803774356842,-0.30643343925476074,-0.13732902705669403
1772615946200203000,8.025203125,-0.20214679837226868,-0.27282050251960754,-0.22317898273468018
1772615946210272000,8.03527197265625,-0.24701066315174103,-0.20479270815849304,-0.2880796790122986
1772615946220340000,8.045340087890626,-0.2969587743282318,-0.11303674429655075,-0.31162047386169434
1772615946230408000,8.055407958984375,-0.3482818901538849,-0.014196714386343956,-0.2983315587043762
1772615946240476200,8.06547607421875,-0.3903280794620514,0.08301424235105515,-0.23212391138076782
1772615946250544000,8.075544189453124,-0.4093095064163208,0.15074987709522247,-0.13001272082328796
1772615946260612000,8.085612060546875,-0.39728793501853943,0.16915960609912872,-0.013246831484138966
1772615946270680000,8.09568017578125,-0.3544134497642517,0.1709124892950058,0.0886949822306633
1772615946280748000,8.105748046875,-0.288463830947876,0.15880803763866425,0.15753310918807983
1772615946290816000,8.11581591796875,-0.21389184892177582,0.1388353854417801,0.2142251580953598
1772615946300884000,8.125884033203125,-0.1457781344652176,0.12063684314489365,0.26247841119766235
1772615946310952000,8.135951904296874,-0.09534452855587006,0.07556737214326859,0.2914203107357025
1772615946321020200,8.146020263671875,-0.0575190931558609,0.08887019008398056,0.29932931065559387
1772615946331089000,8.1560888671875,-0.049169816076755524,0.12267422676086426,0.2803172767162323
1772615946341156900,8.166156982421874,-0.07350119948387146,0.14667445421218872,0.24637967348098755
1772615946351225000,8.17622509765625,-0.10637898743152618,0.16240201890468597,0.21522362530231476
1772615946361293000,8.18629296875,-0.13594616949558258,0.15409596264362335,0.18149249255657196
1772615946371361000,8.196361083984375,-0.15527671575546265,0.155969500541687,0.15194019675254822
1772615946381429000,8.206428955078126,-0.17181554436683655,0.16287843883037567,0.11832859367132187
1772615946391497200,8.216497314453125,-0.19051866233348846,0.1582900881767273,0.08102010190486908
1772615946401565200,8.226565185546875,-0.20949040353298187,0.14335410296916962,0.08620194345712662
1772615946411633000,8.2366328125,-0.2126861959695816,0.07371857762336731,0.16908936202526093
1772615946421700900,8.246700927734375,-0.20242896676063538,0.026853151619434357,0.21003372967243195
1772615946431769000,8.25676904296875,-0.19031105935573578,0.05095183104276657,0.19923433661460876
1772615946441837000,8.266837158203124,-0.1488974392414093,0.06283291429281235,0.14929421246051788
1772615946451905000,8.276905029296875,-0.10753162205219269,0.06395170837640762,0.0774727538228035
1772615946461973000,8.286972900390625,-0.07890595495700836,0.061449117958545685,-0.026154108345508575
1772615946472042000,8.2970419921875,-0.04279641807079315,0.0536162294447422,-0.1211187019944191
1772615946482110000,8.30710986328125,-0.021615594625473022,0.025674765929579735,-0.1936773657798767
1772615946492178000,8.317177978515625,-0.017585167661309242,-0.01887992024421692,-0.2327778935432434
1772615946502246100,8.32724609375,-0.0018722403328865767,-0.05359480157494545,-0.2063753455877304
