time,seconds_elapsed,z,y,x
1772699697065311000,0.08531103515625,0.06829319950342178,0.00972636661257129,-0.0037142298981707425
1772699697075267800,0.095267822265625,0.07457739433944224,-0.0006837490470381453,-0.008244726919801906
1772699697085225000,0.105224853515625,0.09118716835677623,0.011297492953389882,0.005449057473664288
1772699697095181800,0.115181884765625,0.05497253015935421,0.00678333086404018,0.004351571389182936
1772699697105138700,0.125138671875,0.09672142160832882,0.009661726711411028,0.009209709769237087
1772699697115095800,0.135095703125,0.0792114838808775,0.004048179412260652,-0.009707552314247005
1772699697125053000,0.145052978515625,0.07606909420192241,-0.00465557985403575,-0.01681786609335104
1772699697135009800,0.155009765625,0.10285188718736171,0.014180692840041592,-0.009267502087791217
1772699697144966000,0.1649658203125,0.06005611703395843,0.006983689441462047,-0.006867238296318101
1772699697154923000,0.174923095703125,0.08698679405748844,0.010788990875403396,0.008682942523842212
1772699697164880000,0.1848798828125,0.08204992217719555,0.003447094546840526,-0.008008701661488158
1772699697174837000,0.1948369140625,0.07591068876981735,0.00006104143827687948,-0.00307256671260111
1772699697184793900,0.2047939453125,0.06887947495877743,0.0030760692773619666,-0.004501633113806019
1772699697194750700,0.214750732421875,0.06513385868966579,-0.0011761311072856187,-0.005061310539892293
1772699697204707800,0.224707763671875,0.04568389281034469,0.0012607132513541728,-0.015724346652044915
1772699697214665000,0.2346650390625,0.08383680559396743,-0.012270836064149625,0.018959038273931944
1772699697224621800,0.244621826171875,0.060497431060671805,-0.00630504126122687,-0.002083802841245779
1772699697234579000,0.254578857421875,0.09131868578195572,0.005189791762013919,0.011517098512331722
1772699697244535800,0.264535888671875,0.0696253248900175,0.003976342585333623,-0.018210318248881956
1772699697254492700,0.27449267578125,0.07859832041859627,0.0010088984813308342,-0.01600538294997532
1772699697264449800,0.28444970703125,0.04179156154692173,0.012090122902113944,-0.019104321646271273
1772699697274407000,0.294406982421875,0.08323591709136963,0.0082149026036961,-0.011164082681934815
1772699697284364000,0.304364013671875,0.06947393372058867,-0.005214757239911705,-0.027279008687299208
1772699697294321000,0.31432080078125,0.08353402325510978,-0.004653132168622687,0.009032165240999892
1772699697304278000,0.324278076171875,0.06902151377797126,-0.0008587311546085402,-0.006780340326754958
1772699697314233900,0.33423388671875,0.07321312024891376,-0.005846862864680588,0.0025451550089899684
1772699697324191000,0.34419091796875,0.06857435453236102,0.0003087782548042014,0.001577210734199616
1772699697334147800,0.35414794921875,0.07919920892119407,-0.011926333475415595,-0.0035743679092760426
1772699697344104700,0.364104736328125,0.07994681241810321,-0.021244594211131333,-0.004521913283431786
1772699697354061800,0.374061767578125,0.060195233243703836,0.004635080488701351,-0.0012690820750111014
1772699697364019000,0.38401904296875,0.07872516166865826,0.00797109304361511,0.015813426874717696
1772699697373976000,0.39397607421875,0.0700789138764143,0.014411693150899373,-0.006056439078308176
1772699697383933000,0.403932861328125,0.05735504138171672,0.011881896112067624,0.018743461577780545
1772699697393889800,0.413889892578125,0.07501812384426593,0.0002844794971868396,0.020926678235223515
1772699697403847000,0.423846923828125,0.07606324898302555,0.002993647124338895,0.01278260666981223
1772699697413803800,0.4338037109375,0.07577098803818226,0.007993588003213517,-0.025585061967698854
1772699697423761000,0.443760986328125,0.07428454887270927,0.013895245228474958,-0.0028347553517553024
1772699697433718000,0.453718017578125,0.07442892577946186,0.0016316654555965215,0.011716079125064425
1772699697443675000,0.4636748046875,0.08175649218857288,0.001882210717140697,0.0018675223213736897
1772699697453632000,0.473632080078125,0.059602528047561644,-0.0011240264607127756,0.012507445273530902
1772699697463588900,0.4835888671875,0.07276713004708289,0.00038917741409968585,0.013604176160297356
1772699697473545700,0.493545654296875,0.0783048904299736,0.0029737505472032352,0.01999423110714415
1772699697483502800,0.5035029296875,0.08069850756824017,0.0024454112575855104,-0.003385233978767064
1772699697493459000,0.513458984375,0.07590542807281017,0.0146635216206545,-0.0070164112508413375
1772699697503415800,0.523415771484375,0.06961831062734126,0.006002359387069009,-0.03036017198159825
1772699697513373000,0.533373046875,0.05989478899240493,0.009218850915273651,-0.00005767701247823424
1772699697523330000,0.543330078125,0.0839864431977272,0.00191490741034504,0.009897557319368934
1772699697533287000,0.553286865234375,0.07037117482125758,-0.00044724601057823744,-0.012578586839069612
1772699697543243800,0.563243896484375,0.06797755768299102,-0.005502963064145296,-0.013578240284731145
1772699697553201000,0.573200927734375,0.07560907547473907,-0.0033661291319644075,-0.0072378400157555
1772699697563157800,0.58315771484375,0.07351473354399204,0.004766835375898518,0.009706952950981212
1772699697573115000,0.593114990234375,0.06872223857045173,0.008093933971994555,0.006315954810063704
1772699697583072000,0.603072021484375,0.06871990048289299,-0.002767966875992715,0.004671521775261499
1772699697593028900,0.61302880859375,0.08263444406688213,0.000263655904866755,0.0005538516151427756
1772699697602986000,0.622986083984375,0.08173720296621322,0.002238499641790986,-0.010587325115239946
1772699697612942800,0.63294287109375,0.08233458433747291,-0.005299165854044259,-0.008278000143385724
1772699697622899700,0.642899658203125,0.06871814691722393,-0.002613584598456509,0.0059520299974072256
1772699697632856800,0.65285693359375,0.07784662526845931,0.002217155459662899,0.000022392211609985677
1772699697642814000,0.66281396484375,0.08458031743764877,-0.004033872325695119,-0.0024962098630610854
1772699697652770800,0.672770751953125,0.06707154875397682,-0.009337664122506976,0.003356916062335949
1772699697662728000,0.68272802734375,0.09236088831126689,0.004202155264420434,-0.0048677418920386115
1772699697672684800,0.692684814453125,0.06767068369090556,-0.006180282370396889,-0.009977486121206311
1772699697682641000,0.702640869140625,0.06392974359691142,-0.004616626949980855,0.004237168353941524
1772699697692597800,0.71259765625,0.06812018102407455,-0.004541310391179286,-0.0019240987887314985
1772699697702555000,0.722554931640625,0.05704758286774158,-0.002963571646483615,-0.0002924710073973983
1772699697712511700,0.73251171875,0.05659867005646228,-0.009076223007612861,-0.003983842046844074
1772699697722468900,0.74246875,0.0821867002993822,-0.008445405157632193,0.009660421811958076
1772699697732426000,0.752426025390625,0.07635141827464104,0.00422828521952033,0.009939235328405628
1772699697742382800,0.7623828125,0.0735077192813158,0.011462236794736236,0.0023607080992194824
1772699697752340000,0.772340087890625,0.07709960629343986,-0.0006865848915185779,0.012246161705552367
1772699697762297000,0.782297119140625,0.06647650547027588,0.00583740548316855,0.0016765469185833352
1772699697772254200,0.792254150390625,0.0850321528583765,0.0009091598673257976,-0.007162766627193195
1772699697782211000,0.802211181640625,0.06572890197336673,-0.01074948998207692,-0.0010690437288198155
1772699697792168200,0.812168212890625,0.08533142806589603,-0.004425205164263025,-0.010940493925975169
1772699697802125300,0.822125244140625,0.09086860392689704,-0.006674523027590476,0.007089466212253319
1772699697812082200,0.832082275390625,0.07799918548166751,0.0027578838733956215,0.009802593061892548
1772699697822039000,0.8420390625,0.0738081635326147,-0.0033355832966510206,-0.0007277560104790608
1772699697831996200,0.85199609375,0.07021686104238033,-0.006648434171685948,0.01450443348524859
1772699697841953000,0.861953125,0.05435585956573486,0.007025487323151901,0.028353535733767782
1772699697851909000,0.8719091796875,0.06872106952667235,0.005944925544830039,0.01140356655170326
1772699697861866200,0.8818662109375,0.06872165404856205,-0.0002536779335467145,0.009982048131892225
1772699697871823000,0.891822998046875,0.08697685718536377,-0.0010562264880863948,0.014503707399463746
1772699697881780200,0.9017802734375,0.07470774272084235,0.013455584302730857,0.004526131088356487
1772699697891737300,0.9117373046875,0.0745581051170826,0.01654097853086423,-0.000618836292886408
1772699697901694000,0.92169384765625,0.07934709295928478,-0.0016178561259526758,0.007442053926031803
1772699697911651000,0.931651123046875,0.09281506181955337,0.0031433121275622395,-0.017543721266044303
1772699697921608200,0.941608154296875,0.0783002142548561,-0.015309491373994387,-0.029830515234440098
1772699697931565000,0.95156494140625,0.06019347967803478,-0.01869084090797696,-0.036855607548658735
1772699697941522200,0.961522216796875,0.07560673738718032,-0.009362405838118865,-0.001567346356488997
1772699697951479300,0.971479248046875,0.07515782457590103,-0.0029276829157723113,-0.008812223467807053
1772699697961436200,0.981436279296875,0.0823398450344801,0.007749646012391895,-0.005268543528561713
1772699697971393000,0.99139306640625,0.0702180300861597,0.019983643497759475,0.013235214983741752
1772699697981350100,1.00135009765625,0.08652852889597415,0.01551837118458934,0.014951485416293143
1772699697991307000,1.01130712890625,0.08039338714182376,0.009279111468838527,0.026004492956167087
1772699698001264000,1.02126416015625,0.07695289129912852,-0.012434136867080814,0.016250336437660735
1772699698011221200,1.03122119140625,0.06423427950143813,-0.006783705323375761,0.0021459465371095575
1772699698021178000,1.04117822265625,0.0655821869790554,-0.01481648825923912,-0.0014479235111910383
1772699698031134200,1.05113427734375,0.06154197167754173,-0.013871864352887496,-0.0037992267445370086
1772699698041091300,1.06109130859375,0.08308920209705829,-0.013862959527224302,-0.0004471638121875003
1772699698051048000,1.0710478515625,0.0791980398774147,-0.0019988182675559074,-0.0046441645525221245
1772699698061005000,1.081005126953125,0.06887246069610119,0.0009705803315155207,-0.007273942233953857
1772699698070962200,1.090962158203125,0.07036883673369884,0.0040559197607217354,-0.008153496980882483
1772699698080919000,1.1009189453125,0.0756079064309597,0.016049167292774655,-0.007461202726140618
1772699698090876200,1.110876220703125,0.08009703454375267,0.0168621002440108,0.004729825550469104
1772699698100833300,1.120833251953125,0.07216741058826447,0.0041798795005306595,0.02205830804707948
1772699698110790000,1.130789794921875,0.07351473354399204,-0.0124461926310556,0.017328214210196164
1772699698120747000,1.1407470703125,0.057204819256067276,-0.01120586914718151,0.007122740577481454
1772699698130704100,1.1507041015625,0.07456278129220008,-0.00006542535244952886,0.015581730160827282
1772699698140661200,1.1606611328125,0.0675298139154911,0.002728027591248974,-0.0030396508236881343
1772699698150618000,1.1706181640625,0.06603285335600376,-0.0025931400320492685,0.0019940701688465194
1772699698160575200,1.1805751953125,0.0667804568529129,-0.001015387587621808,-0.0028639369221113153
1772699698170532400,1.190532470703125,0.06782675103545188,-0.0034890157261164858,-0.022559565250237938
1772699698180489000,1.200489013671875,0.09356441888213157,0.012224713633791543,-0.005840081497444771
1772699698190446000,1.210446044921875,0.09581015198230743,0.012748020555265248,-0.0025193019026366528
1772699698200403200,1.2204033203125,0.07007248413562774,0.002759345178119838,-0.0008620133820164482
1772699698210359000,1.230359130859375,0.08683248027861118,0.009167006563604809,0.009257415660261175
1772699698220316200,1.240316162109375,0.0775549488455057,0.00619964922457002,0.013842008070740848
1772699698230273000,1.25027294921875,0.07052198146879672,-0.005759828468621708,0.0018024988277233205
1772699698240230100,1.260230224609375,0.06453589279651642,-0.012440256080613471,0.009377778078831034
1772699698250187300,1.270187255859375,0.04732756836414337,-0.024587694093957543,0.00572910910337232
1772699698260144000,1.28014404296875,0.07396306183338165,-0.0070477950530825175,-0.00565395579970791
1772699698270101000,1.29010107421875,0.07052022790312766,-0.0033289343601558357,-0.0033838348936580586
1772699698280058000,1.30005810546875,0.06363689813017845,0.007997181899519637,-0.0007628592899010982
1772699698290015200,1.31001513671875,0.07755319527983665,0.01565322221117094,-0.011697710068023297
1772699698299972000,1.31997216796875,0.07545885334908962,0.0119369233680889,0.0010034893705626019
1772699698309929200,1.32992919921875,0.07994856598377227,0.007204743747040629,-0.00012922386174905114
1772699698319886000,1.339885986328125,0.07905190940499306,0.0017414231401169673,-0.007022015582787571
1772699698329843000,1.349843017578125,0.08593699274361133,-0.0014523542327806354,0.009241947521426482
1772699698339800000,1.359800048828125,0.0890799669444561,0.005104424166656099,-0.0009456559528131037
1772699698349757200,1.369757080078125,0.06962824749946595,-0.0009628125835908577,-0.003607459040591493
1772699698359714000,1.379714111328125,0.058255205091834066,-0.013811412003077566,0.024168212873139416
1772699698369671200,1.389671142578125,0.06064882223010063,-0.028277356091863475,0.021940800880943422
1772699698379627300,1.399627197265625,0.07321838094592094,-0.020663762115873396,0.02155563748825807
1772699698389584100,1.409584228515625,0.07965279790759086,0.01043299421169795,0.02789685060798656
1772699698399541200,1.419541259765625,0.06962649393379688,0.0052390057651791715,0.0034696260390570384
1772699698409498000,1.429498046875,0.06723170775175094,0.0033427573895314705,0.00885593360372586
1772699698419455000,1.439455078125,0.07022387530505657,0.010929171097651123,0.0024748770973761565
1772699698429412000,1.449412109375,0.08414075697660446,-0.005088619242748245,0.010016553189692785
1772699698439369200,1.459369140625,0.0751636697947979,-0.013627155177085659,-0.01577949606400798
1772699698449326000,1.469326171875,0.05870470242500305,-0.008826600194675847,-0.01635959750690381
1772699698459283200,1.479283203125,0.0687321754425764,-0.004371757943974808,-0.006689211423357482
1772699698469240000,1.489239990234375,0.060202832028269766,-0.02416153197060339,0.002347168197634164
1772699698479197000,1.499197021484375,0.06813304050564765,-0.008807781329774297,0.0036808507870766333
1772699698489154000,1.509154052734375,0.07726093433499336,0.002379410516400821,0.011176463814539602
1772699698499111200,1.519111083984375,0.05556348178982734,0.012300920675159432,0.009639796865748939
1772699698509068000,1.529068115234375,0.07531564548611641,0.011488681843667291,0.02318603800195269
1772699698519025200,1.539025146484375,0.07606441802680491,0.013971050411043687,0.03066482205055654
1772699698528982300,1.548982177734375,0.07456921103298664,0.008551646577659994,0.014525559613312361
1772699698538938000,1.558938232421875,0.06319675314724445,-0.001859848188282922,0.009257226147304754
1772699698548895200,1.568895263671875,0.06544190172553062,-0.005795561935706064,0.010495447863993467
1772699698558852000,1.57885205078125,0.0795072519570589,-0.0020640426906058562,-0.003566825636103749
1772699698568809000,1.58880908203125,0.06110124217271804,-0.007372054004808887,-0.03126166913227644
1772699698578766000,1.59876611328125,0.05855681838691234,0.003294493234436959,-0.020184956489829344
1772699698588723200,1.60872314453125,0.07681260604560375,-0.0042120693036587905,-0.015198442489752778
1772699698598680000,1.61868017578125,0.08219897525906562,0.019836572310421616,-0.01838324311339529
1772699698608637200,1.62863720703125,0.0935720176666975,0.015775241155643015,0.00019914843444712458
1772699698618594000,1.638593994140625,0.08205050669908523,0.012357126108114607,0.010525538183224853
1772699698628551200,1.64855126953125,0.07337211020290851,-0.00016358393072150648,0.019640994939394293
1772699698638508000,1.658508056640625,0.0842956552773714,-0.006099463085993193,0.032027226127695756
1772699698648465200,1.668465087890625,0.0751677614480257,-0.017785169905680232,0.014844094360439338
1772699698658422300,1.67842236328125,0.07831015112698078,-0.0070388217287603765,0.015089999979484127
1772699698668379100,1.688379150390625,0.06678805563747882,0.002878889037715271,0.016090537057846084
1772699698678336300,1.698336181640625,0.06170037710964679,-0.001107289955043234,-0.0013420645420090295
1772699698688293000,1.708293212890625,0.0790583391457796,0.0005658034894848242,-0.017914037574402755
1772699698698249200,1.718249267578125,0.06439443849921227,0.011828540223324671,-0.010718329942121636
1772699698708206000,1.7282060546875,0.06693886228501797,0.01000398711070884,0.0009849479252297896
1772699698718163000,1.738162841796875,0.09761457105576991,0.02590485480686184,-0.015068684338463935
1772699698728120000,1.7481201171875,0.08534428754746913,0.022316547991312108,-0.000874468721501762
1772699698738077200,1.7580771484375,0.07501987740993499,0.004837092167092487,-0.006790701319742947
1772699698748034300,1.768034423828125,0.0741220517873764,-0.005650395011086948,0.001341778560107923
1772699698757991400,1.777991455078125,0.05945756661891937,-0.001864200136414729,0.010139408959448338
1772699698767948000,1.787947998046875,0.06888415113389491,-0.010781003931770101,0.019642474510427565
1772699698777905200,1.7979052734375,0.09267653013169765,-0.006666357987443916,0.01663344487057766
1772699698787862300,1.8078623046875,0.0738216075360775,-0.010599519018176943,0.004356667689408641
1772699698797819100,1.817819091796875,0.0717255120396614,0.0068049810068449,0.006731774206738919
1772699698807776300,1.8277763671875,0.0844441238373518,0.005998021138668991,-0.0018448446986847557
1772699698817733400,1.8377333984375,0.08399462650418281,0.010073463017190806,-0.007571426201541907
1772699698827690200,1.847690185546875,0.08025368641018867,0.011605983513826504,-0.016681177019421012
1772699698837647000,1.857647216796875,0.0821995597809553,0.008753228997788392,-0.0007638548037444706
1772699698847604200,1.867604248046875,0.08534194945991039,0.012915399311692452,-0.011583015913481359
1772699698857560000,1.87756005859375,0.07696224364936351,0.016838486472982913,-0.010764654443523614
1772699698867517200,1.88751708984375,0.07052841120958328,-0.002011928910878487,-0.022581448288483078
1772699698877474300,1.897474365234375,0.08549275610744952,-0.012106142455153167,-0.016449854764866177
1772699698887431200,1.90743115234375,0.05721183351874351,-0.018712080058827994,-0.008279698339305468
1772699698897388300,1.91738818359375,0.08504442781805992,-0.013376463785069062,0.02446256987694651
1772699698907345400,1.927345458984375,0.07681377508938313,0.009350528170657344,0.023672926469752564
1772699698917302000,1.937302001953125,0.06558978576362133,0.010624863521987571,0.012734307123743929
1772699698927259100,1.947259033203125,0.08010463332831859,0.016188963922532273,0.0075782144186436196
1772699698937216300,1.95721630859375,0.08593933083117007,0.016688401344651355,0.022402664505341088
1772699698947173400,1.96717333984375,0.08863339222073555,0.0072718222004594275,0.011369359463069122
1772699698957130200,1.977130126953125,0.07277180622220039,-0.007346969795902259,0.004795826862475951
1772699698967087400,1.98708740234375,0.08489303664863108,-0.0055905408828984945,-0.006019665573252132
1772699698977044200,1.997044189453125,0.07112696162462234,-0.015971635944000445,-0.014448116171150467
1772699698987001000,2.0070009765625,0.0605021072357893,-0.0035094009270193053,-0.005565091347810812
1772699698996958200,2.016958251953125,0.0700789138764143,-0.007399138374556787,-0.006988496334853698
1772699699006914000,2.0269140625,0.07636369323432445,0.00034387696764897555,0.002830343467296916
1772699699016871200,2.03687109375,0.08175064696967602,0.008419065139978192,0.014118823709635762
1772699699026828300,2.046828369140625,0.07681202152371407,0.005554862214741297,0.01577737831380218
1772699699036785400,2.056785400390625,0.07337152568101883,0.004919148993934504,0.021809171574620995
1772699699046742300,2.0667421875,0.07277414430975913,0.0036073905419325455,0.006467024606617633
1772699699056699400,2.076699462890625,0.07008125196397304,0.0011721673182211816,0.0007354215812374605
1772699699066656300,2.08665625,0.06903495778143405,-0.0033246326443739233,-0.014228428413817891
1772699699076613000,2.096613037109375,0.07546995926499367,-0.0015896392450435086,-0.0008809001747547881
1772699699086570200,2.1065703125,0.06634264995753765,0.0007608876701677218,-0.006481965876600588
1772699699096527400,2.11652734375,0.06469663631618022,0.010022700944333336,-0.0216262093732832
1772699699106484200,2.126484130859375,0.05601648625433445,0.012518540914636105,-0.022297674327483398
1772699699116441300,2.13644140625,0.08863806839585303,0.022093534624087623,-0.012612183147994801
1772699699126398200,2.146398193359375,0.08534545659124851,0.015137212680163792,-0.005417685087866266
1772699699136355000,2.15635498046875,0.07561959686875343,0.025375606768368742,-0.009642631568585056
1772699699146312200,2.166312255859375,0.08325111466050147,0.009348368179611861,0.023199169194872957
1772699699156269300,2.176269287109375,0.06843699188828468,-0.00010200363632757216,0.01513016645144671
1772699699166225200,2.18622509765625,0.06888648922145366,-0.00012028821168933063,0.005946583212376572
1772699699176182300,2.196182373046875,0.06320026027858257,-0.004737015626369976,0.012074356794112827
1772699699186139400,2.206139404296875,0.09163082047104835,-0.007866787852346896,0.005778123318782308
1772699699196096300,2.21609619140625,0.07980886525213718,-0.017650209281244313,-0.005017920635204063
1772699699206053400,2.226053466796875,0.06753799722194671,-0.005514393207035027,-0.0007698598528455477
1772699699216010200,2.23601025390625,0.06484452035427093,-0.00495585970855318,-0.0060894599984982044
1772699699225967000,2.245967041015625,0.06873568257391452,0.007806184805487282,-0.01076442725630477
1772699699235924200,2.25592431640625,0.06723930653631686,0.009108252980536781,-0.006783922235795762
1772699699245881300,2.26588134765625,0.07591828755438328,0.028049337755958546,-0.008257094352674903
1772699699255838200,2.275838134765625,0.07142857491970062,0.026464260521600953,-0.007624911096092546
1772699699265795300,2.28579541015625,0.06424655446112155,-0.00022441073986701667,-0.0028606592612806705
1772699699275752200,2.295752197265625,0.08265197972357273,-0.0019885937010636554,0.008208281637486652
1772699699285709000,2.305708984375,0.07337444829046726,-0.002193646719912067,-0.00654727649379638
1772699699295666200,2.315666259765625,0.06140402451157569,-0.016883741253660992,0.014915573852695523
1772699699305623300,2.325623291015625,0.06409750137925148,-0.0034781198727665465,0.0019704986386583187
1772699699315579100,2.3355791015625,0.08459785309433937,-0.0018673008423764257,0.010539530175959225
1772699699325536300,2.345536376953125,0.08758885160386562,0.004916966170002706,0.02153706521852873
1772699699335493400,2.355493408203125,0.0777121852338314,0.007178207366564311,0.007543025515897897
1772699699345450200,2.3654501953125,0.08444646192491054,0.013193901159241794,-0.0007933994169929064
1772699699355407400,2.375407470703125,0.06918342634141444,0.01196351911406964,-0.005060734580334974
1772699699365364200,2.3853642578125,0.07352291685044765,0.01891459406071808,-0.015946136176562868
1772699699375321000,2.395321044921875,0.0615519085496664,0.009940347289969212,-0.007787085666906205
1772699699385278200,2.4052783203125,0.059607204222679136,0.004901544838584959,-0.010651719562872312
1772699699395235300,2.4152353515625,0.07546995926499367,-0.013942609767848625,-0.008015015525376656
1772699699405192200,2.425192138671875,0.06379822617173195,-0.0034232707132585347,-0.011971624788711778
1772699699415149300,2.4351494140625,0.06140402451157569,-0.006919277869164943,0.011812412214075448
1772699699425106200,2.445106201171875,0.06290040054917335,-0.005530979015654884,0.022001757837540933
1772699699435063300,2.455063232421875,0.054819969946146005,0.00730852834850084,0.014453866633569122
1772699699445020200,2.465020263671875,0.07113046875596046,0.0125033250791952,0.012140231954422778
1772699699454977300,2.474977294921875,0.07247720718979835,0.019088767884112894,0.009111306308259372
1772699699464933000,2.48493310546875,0.07711655742824078,0.012308619924425147,0.015220054958295075
1772699699474890200,2.49489013671875,0.07846329586207866,0.024017977047758175,0.012192135671596042
1772699699484847400,2.504847412109375,0.06798983264267444,0.018566214447887613,-0.016907207752572137
1772699699494804200,2.51480419921875,0.06380056425929069,-0.00016394012374803423,-0.0040565259738534224
1772699699504761300,2.52476123046875,0.06364975761175155,-0.008140618091356008,-0.015226540639653103
1772699699514718200,2.53471826171875,0.06843816093206405,-0.0002583632418187335,0.0030667272019258233
1772699699524675300,2.54467529296875,0.06559446193873882,-0.005603112670104019,0.0047884900852805
1772699699534632200,2.554632080078125,0.0874415520876646,0.006423849901882931,0.0021648807080870028
1772699699544589300,2.56458935546875,0.08355155891180038,0.0014877634728793054,0.004707216426439118
1772699699554546400,2.57454638671875,0.07173018821477889,0.001530561434989795,0.01221946777816047
1772699699564503300,2.58450341796875,0.07621873180568217,0.0026618122209329156,0.014682708095025736
1772699699574460200,2.594460205078125,0.07577098803818226,0.007311638187617063,0.03247977393447654
1772699699584417300,2.604417236328125,0.07173077273666859,0.007332539411750621,0.007392462038598023
1772699699594374100,2.6143740234375,0.06275251651108264,-0.00015302600408904254,-0.0025384427112352566
1772699699604331300,2.624331298828125,0.07532149070501327,-0.0068136438039131456,0.001577516124054091
1772699699614287000,2.634287109375,0.08340192130804061,0.003339273091079667,-0.006474101088909083
1772699699624244200,2.644244140625,0.08100771964788436,-0.0166098836151883,-0.023729976719501427
1772699699634201300,2.654201416015625,0.07187982581853866,0.0013835176471155136,-0.007203297854514676
1772699699644158500,2.664158447265625,0.08429916240870952,0.013010776844411156,-0.00042872911059821487
1772699699654115300,2.674115234375,0.07711714195013046,0.009761323761520906,-0.01000758899852517
1772699699664072200,2.684072265625,0.09327917219996452,0.020032122281985355,-0.00010395299399679061
1772699699674029300,2.694029296875,0.07636953845322132,0.017902731870743444,0.014365931480145082
1772699699683986200,2.703986083984375,0.07547171283066273,0.012270288074878044,0.0199629797356436
1772699699693943300,2.713943359375,0.07831541182398796,0.00116542248360347,0.017478115533792877
1772699699703900400,2.723900390625,0.0667939008563757,0.0018997281075222416,0.009150925361772533
1772699699713857300,2.733857177734375,0.06529752481877804,-0.011508445990062318,0.00739651830085204
1772699699723814100,2.743814208984375,0.06619593496322632,-0.006467711876495741,0.010481050587526988
1772699699733771300,2.753771240234375,0.0745750562518835,0.0008659783127252012,-0.00468592133501661
1772699699743728000,2.76372802734375,0.06858896757960319,-0.005762860675924457,0.008071049140862305
1772699699753684000,2.77368408203125,0.0645493367999792,0.008175433676410465,0.0007202816651435569
1772699699763641000,2.78364111328125,0.05975976443588733,0.009883653233246878,-0.037758205244457346
1772699699773598200,2.79359814453125,0.08325228370428085,0.010904968238156289,-0.001984342788453796
1772699699783555000,2.80355517578125,0.08325169918239116,0.007821144912601448,-0.01201619458280038
1772699699793512200,2.81351220703125,0.07023381217718123,0.005216405774303712,-0.019429274717741644
1772699699803469000,2.823468994140625,0.06589490619003772,0.0016967848473694175,0.0012137933824415085
1772699699813426000,2.833426025390625,0.09627133975327014,-0.00990568240196444,0.00561350848324364
1772699699823383000,2.843383056640625,0.08474982878565787,-0.002540254500764422,-0.0019239846242999192
1772699699833340200,2.853340087890625,0.07292787356674671,-0.008409119134698995,0.012885122904437593
1772699699843297300,2.86329736328125,0.07292787356674671,-0.01574636668760795,-0.0006548580251605016
1772699699853254100,2.873254150390625,0.06679214729070664,-0.0031806073640706016,0.0024898366336681644
1772699699863211300,2.883211181640625,0.06454699871242046,0.0005664017111063003,0.0025954181832814355
1772699699873168100,2.893168212890625,0.06304945363104343,0.022492009589495137,0.004805781430087518
1772699699883125000,2.903125,0.07711597290635108,0.022533921635616568,0.014108382230723509
1772699699893082000,2.91308203125,0.08070785991847515,0.020728265019715763,0.000003679519629804417
1772699699903039200,2.923039306640625,0.07397533679306506,0.004637491641496308,-0.027602491320890838
1772699699912995000,2.9329951171875,0.06409983946681022,0.009172765017533674,0.0015149163412861526
1772699699922952200,2.9429521484375,0.07726736407577992,0.0016909076624317093,-0.013995894874644
1772699699932909000,2.952908935546875,0.0907353329360485,0.000830436641885899,-0.012692132499429862
1772699699942866200,2.9628662109375,0.06813947024643421,-0.008223286839551291,0.009422762289806269
1772699699952823000,2.972822998046875,0.07217968554794787,-0.013302425867901183,-0.0037050930333003633
1772699699962780200,2.9827802734375,0.08370178103744984,0.0035872565027792003,-0.0061430453577486326
1772699699972737000,2.992737060546875,0.07457330268621444,-0.011903902447898872,-0.0023930988317471926
1772699699982694100,3.002694091796875,0.06769055743515491,0.01944482391332276,0.0010280113196437014
1772699699992651300,3.0126513671875,0.0724789607554674,0.01358435721497517,0.007352398885446018
1772699700002608000,3.022608154296875,0.07502338454127311,0.01676185930650681,0.010910623944096733
1772699700012565200,3.032565185546875,0.0968704746901989,0.009308378662518225,0.0024294453618291297
1772699700022522000,3.042522216796875,0.07262918288111686,0.001378485278971493,0.003102098196939914
1772699700032479000,3.05247900390625,0.07397709035873412,-0.002303568801213987,-0.0007222196063696174
1772699700042436000,3.06243603515625,0.0641010085105896,0.0077680493187624955,-0.005276469965046271
1772699700052393200,3.072393310546875,0.07038578786849975,0.003581050524278544,-0.0024044228017155544
1772699700062349000,3.08234912109375,0.07367839967310429,0.01447549280184321,-0.019175503169361036
1772699700072306200,3.09230615234375,0.0766711517482996,0.0006702182786073535,-0.025128696502326055
1772699700082263300,3.10226318359375,0.06290449220240116,0.005433651554444805,0.006732891305701923
1772699700092220200,3.11222021484375,0.07173252630233765,0.01831778807819355,0.017540515528805554
1772699700102177000,3.122177001953125,0.07248071432113647,0.0019937584999483076,0.011922093408426735
1772699700112134100,3.132134033203125,0.08430208501815796,-0.011019977486529386,0.01779892671968555
1772699700122091000,3.142091064453125,0.07801672113835811,0.006828603911027312,0.0050605553421773945
1772699700132048100,3.152048095703125,0.06709317606389523,0.002053909455658868,-0.006827344106524833
1772699700142005200,3.162005126953125,0.060358899372816084,-0.013439857010636477,-0.0032263564767374187
1772699700151962000,3.171962158203125,0.07562135043442249,0.0027147845171857626,-0.01105621898533427
1772699700161919200,3.181919189453125,0.08070844444036483,0.006595489274896681,-0.011586007021588738
1772699700171876000,3.1918759765625,0.08714344592392444,-0.014419890157086774,-0.02738493958007311
1772699700181833000,3.2018330078125,0.07532207522690296,-0.0014315534733468666,0.006158853706589434
1772699700191790000,3.2117900390625,0.07681786674261093,0.014239629086200148,-0.004695107576003647
1772699700201746200,3.22174609375,0.0594604892283678,0.014722932790848426,-0.02086019343684893
1772699700211703000,3.231703125,0.07487257789373397,-0.0023959506592480463,0.0031948265440238173
1772699700221660200,3.24166015625,0.0726274293154478,0.012617014586739242,0.020514921379846052
1772699700231617300,3.2516171875,0.06140402451157569,-0.006644493215507827,0.0124318444452947
1772699700241574100,3.26157421875,0.073973583227396,0.004071866248524747,0.010526465198409277
1772699700251531000,3.271531005859375,0.07457213364243508,-0.006600316147063859,0.024451842986955307
1772699700261488000,3.281488037109375,0.07172960369288921,0.002999601941090077,0.011164180863345972
1772699700271445000,3.291445068359375,0.059309682580828665,-0.011667550108488649,0.00938912545250787
1772699700281402000,3.301402099609375,0.06469546727240086,0.013128306843433529,-0.008058669149901833
1772699700291359200,3.311359130859375,0.0854939251512289,0.01931530208240729,-0.0021486408176948314
1772699700301316000,3.321316162109375,0.06948270154893398,-0.002186472627031617,-0.007531794589941273
1772699700311273200,3.331273193359375,0.07711421934068202,-0.002898945445055142,-0.0009994827698363224
1772699700321230000,3.34122998046875,0.07247545362412929,0.003194128999346867,-0.005547123007924528
1772699700331187000,3.35118701171875,0.06993219888210296,0.011776216381043194,-0.006442875975227798
1772699700341144000,3.36114404296875,0.09372399335801601,-0.0006429055799962953,-0.0027002559516229666
1772699700351101200,3.37110107421875,0.06574117693305015,0.0003044948053313419,0.0020119140695023813
1772699700361057000,3.38105712890625,0.07860884181261062,0.0005640864564338699,0.0021643367145705267
1772699700371014100,3.39101416015625,0.07022855148017407,0.0008077772855060175,0.020048077902942895
1772699700380971300,3.40097119140625,0.06753507461249827,0.004115901753073558,0.006347111425086041
1772699700390928100,3.41092822265625,0.07367080088853836,0.008614907372486777,0.0028775453223555815
1772699700400885000,3.420885009765625,0.07352116328477859,-0.0025989578514825553,-0.0017684298780513926
1772699700410842000,3.430842041015625,0.08130231868028641,0.0037214225427713243,0.008740551608483655
1772699700420799000,3.440799072265625,0.0817512314915657,0.011817187712248415,-0.0030641881849674973
1772699700430756000,3.450756103515625,0.08279811019599437,0.01894795747420285,-0.02076177228038432
1772699700440713200,3.460713134765625,0.07756079406440257,0.002610630022967234,-0.0056546659024723335
1772699700450670300,3.47067041015625,0.07157587443590163,0.000599002506188117,-0.00688539500751649
1772699700460627200,3.480627197265625,0.0578092148900032,0.007976837797812185,-0.03521550077499123
1772699700470584000,3.490583984375,0.061551324027776716,0.006013351138541474,-0.007302368035772815
1772699700480541200,3.500541259765625,0.08085457491278648,0.004759948977385647,-0.005833623215550324
1772699700490498000,3.510498046875,0.06963175463080405,-0.000047633967432193453,0.002836214944013045
1772699700500454100,3.5204541015625,0.06843348475694656,-0.006163518465263768,0.014568281085253692
1772699700510411000,3.530410888671875,0.06514087295234203,-0.007632641169754788,0.014923581345926504
1772699700520368000,3.5403681640625,0.0730716659516096,-0.011005126977269537,0.010303360499639529
1772699700530325200,3.5503251953125,0.06229775848090648,-0.005316199187235906,-0.010986854959995252
1772699700540282000,3.5602822265625,0.06334463718533516,0.0009411167750135064,-0.007370659486277145
1772699700550239000,3.570239013671875,0.07187456512153148,0.014456778968218714,-0.010385714154003653
1772699700560196000,3.580196044921875,0.0714250677883625,0.01685011297869496,0.0029728189654415474
1772699700570153200,3.5901533203125,0.07651333083808422,0.02193565891494509,-0.016744996078318218
1772699700580110000,3.600110107421875,0.08264788807034491,0.00883304363519419,-0.021070180642430204
1772699700590067200,3.610067138671875,0.07815934447944164,0.007263004139764234,-0.011293075931532075
1772699700600024300,3.6200244140625,0.08414543315172195,0.002086313887918368,-0.001992304045089986
1772699700609981200,3.629981201171875,0.07112696162462234,-0.003700553284678608,-0.0187606398998003
1772699700619938000,3.63993798828125,0.06379530356228351,0.004624924420868046,-0.0006118437214521691
1772699700629895200,3.649895263671875,0.06499181987047195,0.0009311068376526236,0.022431004683836363
1772699700639852000,3.65985205078125,0.06588964549303054,0.000022650223225355147,0.013289114295179023
1772699700649808100,3.66980810546875,0.059903556820750235,-0.0180771111901151,0.004230601615837076
1772699700659765200,3.67976513671875,0.08818506393134594,0.005185526578850112,0.0001408389510179404
1772699700669722000,3.68972216796875,0.08369652034044266,0.011150567896524443,0.006591566014205455
1772699700679679200,3.69967919921875,0.08130231868028641,-0.008020444044098258,0.013110650172445457
1772699700689636400,3.70963623046875,0.07935702983140945,0.005862265929789282,-0.003973974815022666
1772699700699593000,3.719593017578125,0.07382043849229812,0.005418179990677163,-0.02552852774118073
1772699700709550000,3.729550048828125,0.06663841803371906,0.008636657979991287,-0.019329029213660396
1772699700719507200,3.739507080078125,0.06903261969387531,0.011803789374558254,-0.019058263147994876
1772699700729464000,3.749464111328125,0.07053016477525234,-0.0007183682692702859,-0.008097813279379624
1772699700739421200,3.759421142578125,0.07097907758653163,-0.013349626010493375,-0.012811586169124348
1772699700749378600,3.769378662109375,0.07950783647894859,-0.006466328203584998,-0.002708997522149002
1772699700759335200,3.779335205078125,0.07382277657985686,0.0030064929061802102,0.0004962859129853314
1772699700769292300,3.789292236328125,0.07576748090684414,0.008791775476466864,-0.0007168601571291219
1772699700779249400,3.79924951171875,0.07606792515814303,-0.000855155524611473,0.012500464118539821
1772699700789206300,3.809206298828125,0.0648456893980503,0.013773870171396993,0.009877871946431695
1772699700799162400,3.819162353515625,0.07128010635972022,0.005615848854091018,-0.008314498512161662
1772699700809119500,3.829119384765625,0.07876140202581881,-0.003753630612208508,-0.0005332397978432709
1772699700819076400,3.839076416015625,0.07546937474310397,-0.0057513483346439895,-0.0009000569663738133
1772699700829033500,3.849033447265625,0.0667892246812582,-0.005286635166034102,-0.021833796842512673
1772699700838990300,3.858990234375,0.08788695776760577,-0.0026688767159590496,-0.026131062494881917
1772699700848947200,3.868947265625,0.07217384032905101,-0.004589432982378639,-0.020355632315040565
1772699700858904300,3.878904296875,0.07352116328477859,0.0006770361784612759,-0.016405917441728524
1772699700868861400,3.888861328125,0.07441898890733718,0.007435305666481144,-0.017672868637624194
1772699700878818300,3.898818359375,0.06693652419745921,-0.005828756385832094,0.013099946115340572
1772699700888775400,3.908775390625,0.08788520420193671,-0.0028805330055300146,0.003184076250324142
1772699700898732500,3.918732666015625,0.08309680088162422,0.010976129211648367,0.008552748835246893
1772699700908689200,3.928689208984375,0.06723463036119938,0.01040806526641827,0.007770190472676767
1772699700918646300,3.938646240234375,0.06289513985216617,0.007158493452519178,0.01859318807813688
1772699700928603400,3.948603271484375,0.07262158409655094,0.007585413627699017,0.0038087155212677315
1772699700938559200,3.958559326171875,0.07740998741686343,-0.014308803598582744,0.004473331180395325
1772699700948516400,3.968516357421875,0.07321896546781062,-0.008426225533126852,-0.0007360877306957263
1772699700958473500,3.978473388671875,0.07306874334216118,-0.014037594574922695,-0.019085578129894566
1772699700968430300,3.988430419921875,0.054065936708450314,-0.003975584533507936,-0.026026371427834965
1772699700978387500,3.998387451171875,0.06977730058133602,-0.009108650272758678,-0.0036989915152546016
1772699700988344300,4.00834423828125,0.04867839845120907,-0.010508278804458678,-0.000056142071695649064
1772699700998301200,4.01830126953125,0.07321954998970032,0.00814417088846676,0.004255019675285439
1772699701008258300,4.02825830078125,0.08025310188829898,0.022957362078921868,-0.015682363823975903
1772699701018215400,4.03821533203125,0.07830722851753234,0.00833110829531215,0.004218427691675606
1772699701028172500,4.048172607421875,0.07307108142971992,0.01132355440983083,0.001851231056987308
1772699701038129400,4.05812939453125,0.0765139153599739,-0.0022800783277722074,-0.0006052849748579319
1772699701048086500,4.06808642578125,0.08160100936591624,-0.002585075456602499,0.004364984568249201
1772699701058043400,4.07804345703125,0.07531681452989578,-0.008958830005908384,0.004134647552738897
1772699701068000300,4.088000244140625,0.07187514964342116,-0.009857801839360036,0.013583474723919062
1772699701077957400,4.097957275390625,0.07426876678168773,-0.0038510676712729033,-0.007115311327096424
1772699701087914500,4.10791455078125,0.06349427478909492,-0.0031041856935713438,-0.0018950987398216965
1772699701097870300,4.117870361328125,0.07830839756131172,0.006236743531678803,-0.0029368183535872956
1772699701107827500,4.127827392578125,0.07681260604560375,0.004425150365335867,-0.0017625806633994215
1772699701117784300,4.137784423828125,0.0739694915741682,0.016215952394157646,-0.00557802046968718
1772699701127741400,4.147741455078125,0.07845861968696118,0.008171771281445398,0.0015051233163452706
1772699701137698300,4.1576982421875,0.08474339904487133,-0.005773637798265553,0.003268840486661065
1772699701147655400,4.167655517578125,0.07232347793281078,-0.00637828916052822,-0.022916591677116228
1772699701157612300,4.1776123046875,0.07576514281928538,-0.015106132555310613,-0.015160528482025256
1772699701167569400,4.1875693359375,0.08249825046658515,-0.011128981685801408,-0.000006193991235340945
1772699701177526500,4.197526611328125,0.06633738926053047,-0.01150633623136673,0.00985655973034445
1772699701187483400,4.2074833984375,0.08025310188829898,-0.010202879816829226,0.003530416886406601
1772699701197440500,4.2174404296875,0.06992869175076484,0.009960079470323398,-0.010825162733905016
1772699701207397400,4.2273974609375,0.08519231185615062,0.015127234708843753,-0.014019896804739255
1772699701217354200,4.237354248046875,0.07696224364936351,0.004317776434146799,-0.006759397432603873
1772699701227311400,4.247311279296875,0.08339666061103343,0.005229018660704605,-0.012542634176276624
1772699701237268500,4.2572685546875,0.08204933765530585,0.0062055812084348865,-0.00990042741317884
1772699701247224300,4.267224365234375,0.07367021636664867,0.0013423727859742938,-0.0026430270345386814
1772699701257181400,4.277181396484375,0.06992986079454422,-0.003490595761849545,-0.025514732111268677
1772699701267138600,4.287138671875,0.07022972052395343,0.013582708680583163,-0.014920021698949858
1772699701277095400,4.297095458984375,0.08250000403225421,0.010128700335766188,0.004363586053962354
1772699701287052300,4.30705224609375,0.07606558707058429,-0.0076390024118823925,-0.003110039474800578
1772699701297009400,4.317009521484375,0.08250000403225421,-0.006823571542883292,-0.001338430117329699
1772699701306966300,4.32696630859375,0.06693710871934891,-0.010468631780659779,0.013791680964367696
1772699701316923400,4.33692333984375,0.09057926559150219,-0.008009475125512108,-0.0019902576476539253
1772699701326880500,4.346880615234375,0.07606324898302555,-0.0020282178919762374,-0.000845047405839432
1772699701336837400,4.35683740234375,0.06977963866889476,0.0060683190290583295,0.003953393822119688
1772699701346794200,4.366794189453125,0.06289572437405586,0.0054496985069476065,0.00720889647823933
1772699701356751400,4.37675146484375,0.07277239074409007,0.01700139911684673,0.015883886878599877
1772699701366708200,4.386708251953125,0.07516659240424632,-0.001667709449934773,0.0005674417490779888
1772699701376665300,4.396665283203125,0.06708557727932929,-0.016496344804693943,-0.014934932715358444
1772699701386622500,4.40662255859375,0.06633738926053047,-0.0011820767908822744,-0.012232030432211468
1772699701396578300,4.416578369140625,0.05855740290880203,-0.009037576064234599,-0.00374952583007107
1772699701406535400,4.426535400390625,0.07262392218410968,-0.0029756822093855587,0.005590558578385389
1772699701416492500,4.436492431640625,0.05676175166368484,0.013141600149846635,0.003987087170811719
1772699701426449400,4.446449462890625,0.07037877360582351,0.004918500539963133,-0.004403054981247987
1772699701436406300,4.45640625,0.08070435278713703,0.006146740860398858,-0.016111601537116802
1772699701446363400,4.46636328125,0.08399638006985187,0.0018344032197725026,0.0037154317642241947
1772699701456320300,4.4763203125,0.07546820569932461,0.0048036008894443505,0.0023564697446970964
1772699701466277400,4.48627734375,0.07681494413316249,-0.0017899338903836905,0.0058491353076911765
1772699701476234500,4.496234375,0.0694821170270443,-0.007127541191829368,0.008780485755827976
1772699701486191400,4.50619140625,0.08085574395656585,0.004454157264111564,-0.011315037743235007
1772699701496148200,4.516148193359375,0.0772638569444418,-0.012365044553088955,-0.00449918999497022
1772699701506105300,4.526105224609375,0.06978314580023288,-0.0028266473938245323,-0.0072087743222975405
1772699701516062200,4.536062255859375,0.06394727925360202,0.003782468547625467,0.0027842609944898865
1772699701526019300,4.546019287109375,0.07801321400702,0.008296160279517061,-0.004922938111418625
1772699701535976400,4.5559765625,0.0823521199941635,0.008194193175807595,-0.02178446867491584
1772699701545932300,4.565932373046875,0.07217676293849945,0.011625715694180689,0.00904318382111378
1772699701555889400,4.575889404296875,0.0814548788934946,0.005688082973239943,0.018319788239034823
1772699701565846500,4.585846435546875,0.07935878339707851,0.010402576240547932,0.0004011241510423133
1772699701575803400,4.595803466796875,0.062000821360945695,-0.013387770630372687,0.004915942115051438
1772699701585760300,4.60576025390625,0.06349778192043304,-0.007081405061739496,0.006666835765590076
1772699701595717400,4.61571728515625,0.06544423981308936,-0.009941776628652588,-0.0050481005735142385
1772699701605674200,4.62567431640625,0.06963467724025249,-0.0013175077727762981,0.0020719143281632568
1772699701615631400,4.63563134765625,0.07591945659816264,0.010258569226553663,-0.009269317873075488
1772699701625588500,4.64558837890625,0.06454699871242046,-0.00024389632504899053,-0.01163258839296177
1772699701635545600,4.655545654296875,0.08085749752223491,0.010034619710990227,-0.0046935772017983254
1772699701645502200,4.665502197265625,0.08295183945298194,0.006771786556718871,-0.013711088867182843
1772699701655459300,4.675459228515625,0.07531973713934421,-0.001129757515178062,0.012712015376833733
1772699701665416400,4.68541650390625,0.07487023980617523,-0.003947874542674981,-0.00675128490809584
1772699701675373300,4.695373291015625,0.07472060220241546,-0.00013131649577990173,-0.01529918689240003
1772699701685330400,4.705330322265625,0.07337444829046726,-0.00990152681665495,0.013779936869291123
1772699701695286300,4.715286376953125,0.0739741677492857,-0.017471669809985903,0.008849662551499203
1772699701705243400,4.725243408203125,0.060356561285257335,-0.012574111593351698,-0.009293743924034061
1772699701715200500,4.735200439453125,0.06469546727240086,-0.018985444506956262,0.011343599400727543
1772699701725157400,4.745157470703125,0.06858604497015476,-0.012552918108273296,0.0005906473822629777
1772699701735114200,4.7551142578125,0.06439619206488133,-0.008073831898882054,0.011233663619693834
1772699701745071400,4.7650712890625,0.0732242261648178,0.004630203384184278,0.0034595807107223662
1772699701755028000,4.775028076171875,0.06963292367458343,0.01082932288579177,-0.005102642630701302
1772699701764985000,4.784985107421875,0.0711287151902914,0.009805587594932877,-0.004399328654201235
1772699701774942200,4.794942138671875,0.06678980920314788,0.020533450267091392,0.0054204689875303295
1772699701784899300,4.8048994140625,0.08923544976711273,0.005645540739456192,-0.011241429084329865
1772699701794856200,4.814856201171875,0.06634148091375827,0.006721951499045826,-0.005435434802866075
1772699701804813000,4.82481298828125,0.061553077593445776,-0.011645178446476346,-0.010363703251595142
1772699701814770200,4.834770263671875,0.06978314580023288,-0.010300814632815309,0.011802001559559721
1772699701824727000,4.84472705078125,0.07487082432806491,-0.0031071768016787244,-0.0034366456472402205
1772699701834684200,4.85468408203125,0.08354980534613132,0.006493280142592266,0.0070218517568282545
1772699701844640000,4.864639892578125,0.0706803869009018,0.013617716061882675,0.00015477271989220752
1772699701854597000,4.87459716796875,0.07382336110174656,-0.004311159463692456,0.01266723095361376
1772699701864554200,4.88455419921875,0.08115618820786476,-0.005835793481394648,0.010795434315921738
1772699701874511400,4.894511474609375,0.08160451649725436,0.010643659554002805,-0.0008856882310152286
1772699701884468000,4.904468017578125,0.08399871815741061,-0.004115910886228084,-0.003676206577999983
1772699701894425000,4.914425048828125,0.09567045125067233,-0.0033627087655942883,-0.012045484609366395
1772699701904382200,4.92438232421875,0.07816226708889007,0.00952319959013257,-0.009510646069236099
1772699701914339000,4.934339111328125,0.07591770303249358,-0.004236792752961628,-0.012760056911286665
1772699701924296200,4.944296142578125,0.07172726560533046,-0.008724528059689327,-0.017649050512263783
1772699701934253300,4.95425341796875,0.0628980624616146,-0.0029983232994563874,-0.004804183698867564
1772699701944210200,4.964210205078125,0.06499298891425133,0.002236526880413294,-0.004171653953235363
1772699701954167000,4.9741669921875,0.07636486227810382,0.005028591584623791,0.011688040340668521
1772699701964124200,4.984124267578125,0.07935761435329913,0.013501560602616518,0.006334822194848675
1772699701974081000,4.9940810546875,0.07441957342922687,0.010289631085097789,0.011586356364749372
1772699701984038100,5.0040380859375,0.06603869857490062,0.0010975357460090889,0.009166816479826229
1772699701993995300,5.013995361328125,0.08773673564195632,0.0016706274928059428,0.0078002277054474685
1772699702003951000,5.023951171875,0.09357318671047687,0.006714233983471058,0.003442519978067139
1772699702013908200,5.033908203125,0.06648994947373867,-0.0011898902045795693,-0.013325608097377699
1772699702023865300,5.043865234375,0.0798082807302475,-0.02540842675915919,-0.01579888803435606
1772699702033822000,5.053822021484375,0.07307458856105804,0.011110062356200068,-0.015165275439090327
1772699702043779000,5.063779052734375,0.05556640439927578,0.0022824301150627434,-0.004057535187428584
1772699702053736200,5.073736083984375,0.0658913990586996,-0.003822503730491735,0.005800637686334084
1772699702063693000,5.083693115234375,0.07262509122788906,-0.00338361455630511,0.009198556475093937
1772699702073650200,5.093650146484375,0.07382219205796718,0.0028731351503636688,-0.0012119981467549222
1772699702083607300,5.103607177734375,0.08100479703843592,0.00871813485152088,0.015962194545508828
1772699702093564200,5.113564208984375,0.06259937177598476,0.013286913204938173,0.012508423662709538
1772699702103521000,5.12352099609375,0.06993219888210296,-0.007995610996941105,0.014232274613517802
1772699702113478100,5.13347802734375,0.06888415113389491,0.0036377263146918264,-0.008028666166460606
1772699702123435000,5.14343505859375,0.061551324027776716,-0.0038999894134933125,-0.004395110849276534
1772699702133392100,5.15339208984375,0.06663783351182938,-0.009308844453399068,-0.0005180290998017881
1772699702143349200,5.163349365234375,0.0753162300080061,-0.0067473051360109814,-0.007821457723143976
1772699702153305000,5.17330517578125,0.07785948475003242,-0.006249963772855699,-0.014114287956769112
1772699702163262200,5.18326220703125,0.08100128990709782,0.0033804088190663604,-0.025518773532146585
1772699702173219300,5.19321923828125,0.08982990852892399,-0.007678119712718762,-0.0000173284482472809
1772699702183176000,5.203176025390625,0.06708499275743961,0.0013412037421949208,0.006065359316169633
1772699702193133000,5.213133056640625,0.06558803219795227,0.007545844235713593,-0.007809272953361505
1772699702203090200,5.223090087890625,0.07022679791450501,0.004570518219354562,0.010254635120241436
1772699702213047000,5.233047119140625,0.07217267128527163,-0.00865781036587432,0.02540227329629706
1772699702223004200,5.243004150390625,0.0723223088890314,0.010951903519267215,0.007892192292484106
1772699702232961300,5.252961181640625,0.07202244915962219,0.004615243277070112,0.02032090577824274
1772699702242918000,5.26291796875,0.07172375847399234,0.002893049993808381,-0.012632955366320675
1772699702252875000,5.272875,0.07217325580716133,0.008116976920864544,-0.004147178240749053
1772699702262832000,5.28283203125,0.07426759773790836,-0.0027794061520369723,0.01881305164869409
1772699702272789200,5.292789306640625,0.06319383053779602,-0.007954265206400305,0.0064647013604349915
1772699702282746000,5.30274609375,0.08129939607083797,0.0031089577668113634,-0.005616546969590126
1772699702292703200,5.312703125,0.08174830888211726,0.015439871721435338,-0.018784994597989133
1772699702302659000,5.3226591796875,0.06528817246854304,0.006378270894219168,-0.009971808724023867
1772699702312616200,5.3326162109375,0.06469020657539368,-0.005061438974877819,0.0005585158029949525
1772699702322573300,5.3425732421875,0.0759130268573761,0.0009097306894836947,-0.0011623548853269311
1772699702332530000,5.352530029296875,0.06738368344306946,-0.0022107531183399257,-0.00021971858172910286
1772699702342487000,5.362487060546875,0.07067629524767398,-0.005103145525022409,0.010885551151633262
1772699702352444200,5.372444091796875,0.08160042484402656,-0.013504812005627899,0.011181851234065834
1772699702362401000,5.382401123046875,0.07067687976956367,-0.013177329050353728,0.021076996258995496
1772699702372358100,5.392358154296875,0.07112520805895328,-0.014229833777970633,0.007032044928101822
1772699702382315300,5.402315185546875,0.07321954998970032,-0.005953930835193023,0.015786474935710428
1772699702392272100,5.412272216796875,0.0750152012348175,0.011761196908424608,0.00996111608336214
1772699702402229000,5.42222900390625,0.07426818225979805,0.0034572323483647777,-0.007088014611505786
1772699702412186000,5.43218603515625,0.06978022319078445,0.006334582449542358,0.0038896501117473233
1772699702422143200,5.442143310546875,0.07636486227810382,0.004401842554984614,0.002056344012162299
1772699702432100000,5.45210009765625,0.0742699358254671,-0.00814766432007309,-0.0034972566856100455
1772699702442057200,5.46205712890625,0.07187514964342116,0.004466482456144876,-0.012835301546496338
1772699702452013000,5.472012939453125,0.06813362502753734,0.000016480777342803775,-0.00027657703523291274
1772699702461970200,5.48197021484375,0.07112696162462234,-0.0007587094128131866,0.007632207344914786
1772699702471927000,5.491927001953125,0.06948094798326492,-0.01960343940798193,0.01953319403323112
1772699702481884200,5.50188427734375,0.08369593581855296,-0.004696354822418652,0.03627355617727153
1772699702491841000,5.511841064453125,0.07112520805895328,0.004548210489423945,0.01499946872688597
1772699702501798100,5.521798095703125,0.09476853397488594,0.00894316664589569,0.003089938543332391
1772699702511755300,5.53175537109375,0.06274667129218578,0.0051708039337536316,0.002469231095412397
1772699702521712000,5.541712158203125,0.06798398742377758,0.003352995655755512,0.0036094432184123433
1772699702531669200,5.551669189453125,0.07800912235379219,0.013982448587892576,-0.008095740053302143
1772699702541626000,5.561626220703125,0.08638824364244937,0.009455052557634189,-0.004623227937414777
1772699702551583000,5.5715830078125,0.07067746429145336,0.010065859666047618,-0.008573318411706714
1772699702561540000,5.5815400390625,0.07277297526597976,0.008474941779370419,-0.010359709779778495
1772699702571497200,5.591497314453125,0.06424538541734218,-0.009742157836747355,0.006554311306070303
1772699702581454000,5.6014541015625,0.07277414430975913,0.0055720462449826294,0.0017004592295998008
1772699702591411200,5.6114111328125,0.07472001768052577,-0.01021885827067308,0.00959789737771498
1772699702601368000,5.6213681640625,0.06993161436021328,-0.007870765341143122,0.008203774996550055
1772699702611324200,5.63132421875,0.07890928606390953,-0.010475732808304019,0.020301207847218027
1772699702621281000,5.641281005859375,0.06948153250515461,-0.004185030599683523,0.0075037341143033695
1772699702631238100,5.651238037109375,0.07531681452989578,-0.012580495668365619,0.019759812713204882
1772699702641195000,5.661195068359375,0.07726210337877273,-0.0053092488566413515,0.009148295013268944
1772699702651152100,5.671152099609375,0.0712771837502718,0.004375566469412296,-0.0031639621899463236
1772699702661109200,5.681109130859375,0.0795072519570589,0.00037296149823814627,-0.015795183398551307
1772699702671066000,5.691066162109375,0.08175181601345538,0.013537239270773715,-0.0017598213090881472
1772699702681023200,5.701023193359375,0.05826046578884125,0.01622280226005241,-0.003809289768358576
1772699702690980000,5.71097998046875,0.054819969946146005,-0.0023023723579710348,0.0033202064893615895
1772699702700937000,5.72093701171875,0.06993336792588234,0.00925387199630495,0.005161122789955698
1772699702710894000,5.73089404296875,0.07666706009507179,0.009455162155488505,-0.007306665755799622
1772699702720851200,5.740851318359375,0.06634206543564795,0.009328695364762097,-0.0027397305871301797
1772699702730808000,5.75080810546875,0.06783785695135593,-0.0006461980822030454,0.006367836835994967
1772699702740765200,5.76076513671875,0.07681611317694187,-0.004202150697843171,0.0025110455309448297
1772699702750722000,5.77072216796875,0.06424772350490093,-0.0160150458274642,-0.013951277131494133
1772699702760678400,5.780678466796875,0.08040858471095562,0.008204559306195005,-0.0013087353778537363
1772699702770635300,5.79063525390625,0.08145546341538429,-0.00709886308661662,-0.01540604936693562
1772699702780592000,5.800592041015625,0.05646539906561374,0.00028181261606514453,-0.0036871852005628167
1772699702790549200,5.81054931640625,0.08459726857244967,-0.007263141137082129,0.0072359968310076505
1772699702800506400,5.82050634765625,0.07636720036566257,-0.0054990906066261225,-0.023753896451205944
1772699702810463200,5.830463134765625,0.07127952183783054,-0.0028831679206108673,0.012338862082350533
1772699702820420400,5.84042041015625,0.07711597290635108,0.004061564050219022,0.008347299094998742
1772699702830377200,5.850377197265625,0.07247720718979835,0.006383956282911822,-0.0037912985955859766
1772699702840334000,5.860333984375,0.06993278340399264,-0.006770918907038867,0.023198386026872322
1772699702850291200,5.870291259765625,0.05631634598374367,0.009433772307587787,-0.0014469137267937185
1772699702860248300,5.880248291015625,0.07517068405747414,-0.0030911618152167646,0.019566119055298623
1772699702870205200,5.890205078125,0.08175415410101414,0.002651130996714346,0.010058735805517062
1772699702880162300,5.900162353515625,0.08549509419500827,-0.01674468897599727,0.009649771412136033
1772699702890119400,5.910119384765625,0.08519581898748874,-0.0014330421775346621,0.0019419769387168343
1772699702900076000,5.920075927734375,0.07202654081285,0.020010394507367163,-0.005040343671210576
1772699702910032400,5.930032470703125,0.06050269175767898,0.006658211213606409,-0.010963953575020422
1772699702919989200,5.9399892578125,0.0756160897374153,0.005975672309543005,-0.008926788045719149
1772699702929946000,5.949946044921875,0.07771043166816234,0.012347289700689724,-0.008617328800080577
1772699702939903200,5.9599033203125,0.08249825046658515,0.004218964835326187,-0.015292742310237372
1772699702949860400,5.9698603515625,0.08519172733426093,0.00028640659279190005,-0.009252624179067788
1772699702959817200,5.979817138671875,0.08474281452298164,0.0008399351225933059,-0.0005422085555881495
1772699702969774300,5.9897744140625,0.0654389791160822,0.01642698762922082,0.00824555632439733
1772699702979731200,5.999731201171875,0.0667851330280304,-0.0001763475141720846,0.01116519921007566
1772699702989688000,6.00968798828125,0.051371875318884846,0.009229568672110326,-0.005958029909108881
1772699702999645200,6.019645263671875,0.062145198267698286,0.009800199033762327,0.003963016171235358
1772699703009602300,6.029602294921875,0.07022504434883595,-0.009069149379432201,0.009787355535209643
1772699703019559200,6.03955908203125,0.07920330057442188,-0.002515339255216531,0.008106463518360396
1772699703029516300,6.049516357421875,0.07651157727241516,0.01979251853956375,-0.0030047279240679927
1772699703039473400,6.059473388671875,0.07965338242948054,-0.005671684394287876,0.00235754916939768
1772699703049430000,6.069429931640625,0.08519114281237125,-0.009876648103725164,0.004955049711911124
1772699703059387100,6.07938720703125,0.07157412087023257,-0.0006485772689571604,0.002682316152844578
1772699703069343200,6.08934326171875,0.0771107122093439,0.0010762189633445813,-0.011396898207254707
1772699703079300000,6.099300048828125,0.08743570686876773,-0.001869451700267382,0.010350421361625194
1772699703089257200,6.10925732421875,0.06708557727932929,-0.008341204997641034,-0.008347752898614271
1772699703099214300,6.11921435546875,0.0780085378319025,-0.006763767647044732,-0.003793281060940353
1772699703109171200,6.129171142578125,0.0679834029018879,-0.001733522961451672,-0.004822487111360533
1772699703119128300,6.13912841796875,0.06110007312893867,-0.0029074255790328607,0.008409845220483839
1772699703129085200,6.149085205078125,0.06454232253730297,0.007354915640340186,0.009115134812472388
1772699703139042000,6.1590419921875,0.0687321754425764,0.005059539278736338,0.0006934364698798162
1772699703148999200,6.168999267578125,0.07935527626574039,0.01257010213851463,0.004885270128041156
1772699703158956300,6.178956298828125,0.08204816861152649,0.005663131195073947,0.010269501612521707
1772699703168913400,6.188913330078125,0.06588789192736148,-0.0037946978415362535,0.001950567812193185
1772699703178870300,6.198870361328125,0.07411737561225891,-0.003734460120857693,-0.00042791340573458
1772699703188827400,6.208827392578125,0.07052665764391422,0.007257875873497687,-0.018278757542325184
1772699703198784300,6.2187841796875,0.05616203220486641,0.013536837411974556,-0.01234396066586487
1772699703208741000,6.2287412109375,0.08145020271837711,0.0013865361546864733,0.0030604481581889558
1772699703218697200,6.238697265625,0.06768354317247867,-0.002738663149694912,0.0006808766699396073
1772699703228654000,6.248654052734375,0.07172375847399234,0.0131125110526802,-0.0020843302809196757
1772699703238611200,6.258611083984375,0.07935527626574039,-0.01089562502107583,-0.0014738279915385646
1772699703248568300,6.268568359375,0.0805529616177082,-0.002644290263974108,-0.00968575946590281
1772699703258525200,6.278525146484375,0.05945464400947094,-0.004125318035390227,-0.011668713444046443
1772699703268482300,6.288482421875,0.07681319056749343,-0.011097906127525493,0.00580787285718543
1772699703278439200,6.298439208984375,0.06723638392686844,0.004174943030509166,0.005043842811038484
1772699703288396300,6.308396240234375,0.06499123534858227,0.0074259487496688955,0.010485101141559426
1772699703298353200,6.318353271484375,0.06259644916653632,0.005711230953386984,-0.0015235854173981352
1772699703308310300,6.328310302734375,0.0723223088890314,-0.003983384247473441,-0.0037968264373630517
1772699703318267400,6.338267333984375,0.07636193966865538,0.011663933379296212,-0.0016807921229716157
1772699703328224300,6.348224365234375,0.08833294796943664,0.010273045276477932,0.0007265435842156875
1772699703338181400,6.358181396484375,0.07187105799019336,0.006104331057355739,-0.01114445324956905
1772699703348138200,6.36813818359375,0.07830605947375296,0.007237554604676552,-0.004244954938997398
1772699703358095000,6.37809521484375,0.07516425431668758,0.0074769528511213134,-0.00045178176344488744
1772699703368052200,6.38805224609375,0.07696049008369445,-0.00028979499312117694,0.009599000206124036
1772699703378008300,6.39800830078125,0.07785831570625305,0.003684035974717699,0.0006587681569420965
1772699703387965200,6.407965087890625,0.051371875318884846,0.009942347450810483,0.0029656357394065706
1772699703397922300,6.41792236328125,0.07097440141141415,-0.009348098751553334,0.013089804888883371
1772699703407879400,6.42787939453125,0.07576280473172664,-0.017812907295976763,0.008065511024286388
1772699703417836300,6.437836181640625,0.06528758794665336,-0.000059233073680661616,0.00046401391146646344
1772699703427793200,6.447793212890625,0.07740764932930469,-0.0058902042494853955,0.001087121666560415
1772699703437750300,6.457750244140625,0.0769587365180254,0.0036735465467441827,0.003811851618203218
1772699703447707100,6.46770703125,0.07112286997139454,0.004273603932280093,0.009727311894064769
1772699703457664300,6.477664306640625,0.0835422065615654,-0.0031250960508594286,-0.021321614103252066
1772699703467621400,6.487621337890625,0.06693243254423141,0.006931114437431097,-0.00812528980395
1772699703477578200,6.497578125,0.07246843936145306,0.004055686865281314,0.013594283812301
1772699703487535400,6.507535400390625,0.08473872286975383,0.007189176285150461,0.005773395769670606
1772699703497492200,6.5174921875,0.07995090407133101,0.003654814446810633,0.00004058773871511221
1772699703507449000,6.527448974609375,0.08219605264961719,0.010627977927681057,0.000540364229195984
1772699703517406200,6.53740625,0.07127192305326462,0.005392200732626952,0.004685144446059712
1772699703527363300,6.54736328125,0.07411445300281047,-0.0018309554539388045,-0.0025469513863208702
1772699703537319200,6.557319091796875,0.08009937263131141,0.007199067491502501,-0.0072728234225243795
1772699703547276300,6.5672763671875,0.0748626410216093,-0.014895837105764075,0.0029128352606232507
1772699703557233400,6.5772333984375,0.07007365317940711,0.0016885558751411735,0.005584873189692734
1772699703567190300,6.587190185546875,0.06169453189074993,-0.026524671772215513,0.005203691852380871
1772699703577147100,6.597147216796875,0.07276713004708289,0.0031397593304514884,0.005022347931860713
1772699703587104300,6.607104248046875,0.058252867004275316,0.01404579614768736,0.001359339903795626
1772699703597061000,6.61706103515625,0.08488894499540328,-0.00008128050870727747,-0.013978785051283193
1772699703607018200,6.627018310546875,0.08788228159248829,0.0009096119584748521,-0.019966162639996034
1772699703616975400,6.636975341796875,0.08488894499540328,-0.005749649567902088,-0.010116754169645718
1772699703626932200,6.64693212890625,0.07097264784574508,0.0034685939925955607,-0.007895203379367012
1772699703636889300,6.656889404296875,0.07456336581408977,-0.003325632724794559,-0.004511443263411638
1772699703646846200,6.66684619140625,0.08159691771268844,0.0001841061289422214,0.0006062679306138306
1772699703656803300,6.67680322265625,0.07635901705920696,-0.00683243983592838,0.0024031641388573915
1772699703666760200,6.68676025390625,0.07546060691475867,0.0006911697350908071,0.008412694764696062
1772699703676717300,6.69671728515625,0.056007718425989145,-0.005164196096453816,0.007766544631554279
1772699703686673200,6.706673095703125,0.07261690792143344,0.005249111600662581,0.0033437780195497905
1772699703696630300,6.71663037109375,0.07950023769438266,0.012166046815691516,-0.008008717644508579
1772699703706587400,6.72658740234375,0.07396364635527133,0.0075832856026943765,0.0009146506056626094
1772699703716544300,6.736544189453125,0.08458791622221469,0.013463726509991102,-0.017495442269573686
1772699703726501000,6.746501220703125,0.08608487678170204,0.011495170949958264,-0.014821658766345353
1772699703736458200,6.756458251953125,0.06393851142525672,0.008307412325893528,0.004923457559582311
1772699703746415000,6.7664150390625,0.08219488360583782,-0.009364972254540771,-0.0009843040378356817
1772699703756372000,6.7763720703125,0.07740648028552531,-0.004143136819871142,0.0020646409122273323
1772699703766329000,6.7863291015625,0.07172025134265422,0.0007917029335396364,0.016726525414932983
1772699703776286000,6.796285888671875,0.0666319882929325,-0.006193698974396102,-0.0001998819409200223
1772699703786243000,6.8062431640625,0.07156944469511509,-0.013158432553638704,0.007017734987425501
1772699703796200000,6.816199951171875,0.0654343029409647,-0.0023763098104391247,0.008724579433683538
1772699703806157000,6.826156982421875,0.07590893520414829,0.01342659110368695,0.010163914354686858
1772699703816114000,6.836114013671875,0.06962357132434845,0.017643496412667443,0.01939519435162656
1772699703826071000,6.846071044921875,0.08309037114083767,0.01248157447169069,0.002707121800538152
1772699703836028200,6.856028076171875,0.08324117778837681,0.001951937785372138,-0.01274395630150102
1772699703845984000,6.86598388671875,0.09176993668079375,-0.012197200005780905,-0.019147343370667657
1772699703855941000,6.875941162109375,0.07620645684599876,0.0039027247932739554,-0.030116702631523364
1772699703865898000,6.88589794921875,0.0751595781415701,-0.0020800348441815004,-0.007051900976864272
1772699703875854800,6.895854736328125,0.08339023087024688,-0.0034992311594542113,-0.005766256496941787
1772699703885812000,6.90581201171875,0.08009878810942173,-0.009034840684453956,0.00039266456666227893
1772699703895769000,6.91576904296875,0.08144494202136993,0.002393457308062352,0.003766226373944664
1772699703905726000,6.925725830078125,0.06274082607328892,0.013395561211183666,0.013968749997747363
1772699703915683000,6.93568310546875,0.06199263805449009,0.019671011051745152,0.017067934147571212
1772699703925640200,6.94564013671875,0.07127075400948524,-0.0028049059194745493,0.006946768664289266
1772699703935597000,6.95559716796875,0.06648118164539336,-0.012188267780654133,0.0038558032118948173
1772699703945554000,6.965553955078125,0.07351356450021267,-0.006357776095462031,-0.0010204661923606181
1772699703955511000,6.975510986328125,0.07141863804757595,-0.00708954726899974,0.005171905049696215
1772699703965468000,6.985468017578125,0.0833896463483572,0.0023060438860906286,-0.0026723119237052743
1772699703975425000,6.995425048828125,0.0803963097512722,-0.004101201940863393,-0.007514018046300043
1772699703985382100,7.005382080078125,0.0639350042939186,0.006789514009654522,-0.007726411838099011
1772699703995338000,7.015337890625,0.06737608465850353,0.0054167734848801045,-0.0035056620418850797
1772699704005295000,7.025295166015625,0.07545593073964119,0.0045776877456577495,-0.009717445803887675
1772699704015252200,7.035252197265625,0.07800035452544689,0.009135652444115839,-0.00807269539196568
1772699704025208800,7.045208740234375,0.05630348650217056,0.021480371161806396,0.003299062665810925
1772699704035166000,7.055166015625,0.06872340761423111,0.00980672923924867,0.009333085557978483
1772699704045123000,7.065123046875,0.07814940760731696,-0.009540785479173064,0.018239648232999024
1772699704055080000,7.075079833984375,0.06917056685984134,-0.007707505637407302,-0.006353684442234225
1772699704065037000,7.085037109375,0.07515548648834228,0.004403454556758515,0.004796735040529165
1772699704074994200,7.094994140625,0.06617723026275635,-0.008500765773793682,0.002505481156549649
1772699704084951000,7.104950927734375,0.06842062527537346,0.005603281633462757,0.006824927816330455
1772699704094908000,7.114907958984375,0.06632511430084705,-0.003538453491567634,-0.005649940636649262
1772699704104865000,7.124864990234375,0.07620119614899158,-0.0074318442009156565,-0.009291064484824892
1772699704114822000,7.13482177734375,0.08068857069611549,-0.009845284851081668,0.00432242863473366
1772699704124779000,7.144779052734375,0.09221066618561743,-0.010387273640139028,-0.004850751370508805
1772699704134736100,7.154736083984375,0.07859305972158909,0.008141371576604432,-0.006662223522554267
1772699704144693000,7.16469287109375,0.0841302355825901,0.010770829597627743,0.003901213827022002
1772699704154649000,7.174649169921875,0.07335691263377667,-0.002316738810040988,0.0067997511342342476
1772699704164606200,7.184606201171875,0.07126140165925025,0.0019182638446334748,-0.010651347386825364
1772699704174562800,7.194562744140625,0.07260872461497783,-0.0016290077076293527,-0.005961050129146315
1772699704184520000,7.20452001953125,0.07979132959544658,-0.004367168533825315,0.011552518027229234
1772699704194477000,7.21447705078125,0.06991641679108142,-0.00674628222270403,-0.006704177238693228
1772699704204434000,7.224433837890625,0.07515314840078353,-0.02015711863483302,-0.009059316967762424
1772699704214391000,7.23439111328125,0.08502981477081775,-0.0031219862117432056,-0.004627818489208585
1772699704224348200,7.24434814453125,0.07485445771515369,-0.013325400318112223,-0.009930941282451386
1772699704234305000,7.254304931640625,0.07784720979034901,-0.003781870326003991,0.00311260132464522
1772699704244262000,7.264261962890625,0.07305822194814682,0.008785359435412102,-0.0060374335545609935
1772699704254219000,7.274218994140625,0.0827834971487522,0.008139375982340425,-0.01998394945843611
1772699704264175900,7.28417578125,0.07096154192984104,-0.00510615033286158,-0.004329509683602373
1772699704274133000,7.294133056640625,0.06826806506216526,0.003282359838648699,0.00674035138048348
1772699704284090000,7.304090087890625,0.07784662526845931,-0.0022736942527582867,-0.008236748538500979
1772699704294047200,7.314047119140625,0.06632394525706768,-0.023761285173217763,0.0007608579874155111
1772699704304003800,7.32400390625,0.07006430082917213,-0.00738468059094157,0.02001582645102171
1772699704313960200,7.333960205078125,0.07350538119375705,-0.021883389871590768,0.005440611589016043
1772699704323916800,7.343916748046875,0.06572422579824924,0.013201189416553825,-0.00010675972654717042
1772699704333874000,7.3538740234375,0.07470189750194549,-0.003234858301957138,0.0033023517430847277
1772699704343831000,7.3638310546875,0.07215805823802948,0.007780959032685495,0.01836665273819817
1772699704353788000,7.373787841796875,0.07784487170279025,0.010752079231385141,0.003924064408824779
1772699704363745000,7.3837451171875,0.08173486487865447,0.000165538425790146,-0.019374660736962687
1772699704373702100,7.3937021484375,0.07215864275991916,0.004250958275632002,0.0018850414242217084
1772699704383659000,7.403658935546875,0.06931552828848361,-0.0019802231649402526,-0.008231700187336537
1772699704393616000,7.413615966796875,0.07739654341340065,0.00600680266674608,-0.012438134905474725
1772699704403573000,7.423572998046875,0.08757131594717502,-0.008645453207800165,-0.020992475763719994
1772699704413530000,7.433530029296875,0.07365443427562714,-0.006647050498775206,-0.0007055418953823391
1772699704423487000,7.443487060546875,0.08008885123729706,-0.008878184251440688,-0.022113716612302232
1772699704433444000,7.453444091796875,0.0802390733629465,-0.0006641629971563816,0.02151856373074697
1772699704443401200,7.463401123046875,0.07290683077871798,-0.005754312043287791,0.018960463046038056
1772699704453357800,7.47335791015625,0.059738137125968926,-0.01003839170380961,0.012260700545914004
1772699704463315000,7.48331494140625,0.0738040718793869,-0.015076258006854913,0.007459224256541347
1772699704473270800,7.493270751953125,0.06811784293651581,-0.0006287035247078165,0.009382060957481736
1772699704483228000,7.503227783203125,0.08337970947623252,-0.011758593959384597,-0.003447898264438845
1772699704493185000,7.51318505859375,0.08203180199861526,-0.0031686794642591847,-0.027130871204170397
1772699704503142100,7.52314208984375,0.07320259885489941,-0.0016349122920306398,-0.020078810967924073
1772699704513099000,7.53309912109375,0.09041092328727245,-0.004799956760788336,-0.029703240159538107
1772699704523056000,7.54305615234375,0.07290390816926956,0.008717180436872876,-0.01671783978497842
1772699704533013000,7.553012939453125,0.0796381848603487,0.013593462970037945,-0.005135988348699175
1772699704542969900,7.562969970703125,0.07006079369783401,-0.0014276490497868507,-0.013798429223918355
1772699704552927000,7.572927001953125,0.08098492329418659,-0.007004750495799817,0.0007404099960753228
1772699704562884000,7.582884033203125,0.06766717655956744,-0.0015142359212739391,0.007950586257592658
1772699704572841000,7.592841064453125,0.056743046963214874,-0.008431376632279716,0.026032757786137516
1772699704582798000,7.602798095703125,0.07589724476635455,-0.0024075451989192514,0.007139824713845155
1772699704592755200,7.612755126953125,0.08083528569042682,-0.012959539847518317,0.005363807467670995
1772699704602711800,7.6227119140625,0.08562368901073932,-0.003709499209537171,0.0011793973516731056
1772699704612669000,7.6326689453125,0.06691898854076862,-0.008988704554364084,-0.006675815939778113
1772699704622626000,7.6426259765625,0.07155716973543166,0.012099123625899664,-0.010508406668622046
1772699704632582000,7.652581787109375,0.07679448586702346,-0.009996255895402283,-0.005278502091928385
1772699704642539000,7.6625390625,0.07470072845816612,-0.007087021951773203,-0.009967420243273954
1772699704652496100,7.67249609375,0.06661971333324909,0.007401777856214903,-0.010382578057068166
1772699704662453000,7.682452880859375,0.07455109085440635,0.0029174218166619537,-0.013374715927621583
1772699704672410000,7.69241015625,0.06048515610098838,-0.00314679185943678,-0.018786423936672507
1772699704682367000,7.702366943359375,0.0751502257913351,0.012906937444023787,-0.00022501980710949281
1772699704692323800,7.71232373046875,0.07500117270946502,0.006266627213289029,0.0066416014304559205
1772699704702281000,7.722281005859375,0.07574994525015354,-0.00011474895346909761,0.028037542286887762
1772699704712238000,7.732238037109375,0.06811842745840549,-0.006549919400387443,0.020929167019831947
1772699704722195000,7.74219482421875,0.0898158800035715,-0.009800783555652014,0.006453798086397
1772699704732152000,7.752152099609375,0.061085460081696505,-0.014694811808061784,0.0066787956314423354
1772699704742109200,7.762109130859375,0.071860536596179,-0.005316473181871697,0.0007125590121693676
1772699704752065800,7.772065673828125,0.06692249567210674,-0.0057478366367286066,-0.0016196222497092093
1772699704762023700,7.782023681640625,0.08487842360138893,-0.0036246339376782995,-0.011721087518677814
1772699704771980500,7.79198046875,0.06976385657787322,0.00573513241878245,-0.01840516953412443
1772699704781937700,7.801937744140625,0.08278174358308314,0.002328808273747563,-0.0036263053049566223
1772699704791893800,7.811893798828125,0.07260638652741909,-0.004019935131887905,-0.0031220861056208376
1772699704801850600,7.8218505859375,0.07200725159049033,0.01765693128297571,-0.0065253557812888175
1772699704811807700,7.831807861328125,0.07724398320019245,0.0008945422535063699,-0.0066131134090217526
1772699704821764600,7.8417646484375,0.06766776108145714,-0.008360964577458798,-0.005031024999482906
1772699704831721500,7.851721435546875,0.06542202798128127,-0.008813927942770533,-0.0010552983312576542
1772699704841678600,7.8616787109375,0.06676876641511917,-0.016486841757409273,0.004275926607640576
1772699704851635700,7.8716357421875,0.055545946133136744,-0.005993239932274445,-0.00294845113834308
1772699704861592600,7.881592529296875,0.07335223645865917,-0.013318066395027563,0.014231763156864325
1772699704871549700,7.8915498046875,0.08128361397981643,-0.00302280928674154,0.011712238633586093
1772699704881506600,7.901506591796875,0.07799158669710159,0.011023425252363085,0.01767787018137169
1772699704891463400,7.91146337890625,0.07200666706860065,-0.00048018016580026596,-0.013362684138177428
1772699704901420500,7.921420654296875,0.07260521748363971,0.013285872025322169,-0.028661396106542086
1772699704911377700,7.931377685546875,0.0848755009919405,0.010971325172367504,0.006370591623728978
1772699704921334800,7.941334716796875,0.06647066025137902,0.0009122331738239154,-0.014921250108233652
1772699704931291600,7.951291748046875,0.07185761398673057,0.00046065804800018664,-0.003869095947485766
1772699704941248800,7.961248779296875,0.07514964126944541,-0.004937438135873526,-0.00010997402611828874
1772699704951204600,7.97120458984375,0.07963876938223838,-0.013837345595355145,0.0022323416123515927
1772699704961161700,7.98116162109375,0.06392740550935268,-0.017592273115506395,0.004644660596977337
1772699704971118600,7.99111865234375,0.06213233878612518,-0.022226513353991322,0.006899358459142968
1772699704981075500,8.001075439453125,0.06841711814403534,-0.01065151406689547,0.00872072980905068
1772699704991032600,8.011032470703125,0.08173486487865447,0.0013969662171555682,0.010643273678224067
1772699705000989700,8.02098974609375,0.06452654044628144,0.001025013932492584,-0.014455260581278707
1772699705010946600,8.030946533203124,0.059438861918449395,0.014844586409139446,0.005681722301934496
1772699705020903700,8.040903564453124,0.0703618224710226,0.011822635638923383,-0.0032639919232518876
1772699705030860500,8.050860595703124,0.08352993160188198,0.00757194679134991,-0.005390019621161628
1772699705040817700,8.060817626953124,0.06946341232657433,0.0004126633209642023,-0.017834910206875065
1772699705050774500,8.0707744140625,0.07125906357169151,-0.009900892062415368,-0.01199175654457649
1772699705060731600,8.080731689453126,0.06856617122590541,-0.004111042914865538,-0.008246024398566806
1772699705070688800,8.090688720703126,0.07619768901765346,-0.004076414559478872,-0.0062525062147469725
1772699705080645600,8.100645751953126,0.06692074210643768,-0.0007079610396875068,-0.006925874290021602
1772699705090602800,8.110602783203126,0.07919102561473845,0.0056780228035291655,0.00027264235809852834
1772699705100559600,8.1205595703125,0.06871522430777549,0.0013283214277355,0.018592652646952774
1772699705110515700,8.130515625,0.076047466892004,-0.011196156037342734,0.007437183100558468
1772699705120472600,8.14047265625,0.08382803776562213,-0.011394692550436594,-0.0006509444684459594
1772699705130429700,8.1504296875,0.05764262615144253,0.000699736634036526,0.006730049182177754
1772699705140386600,8.160386474609375,0.07769406505525112,0.00045164362448267634,-0.004727124990840093
1772699705150343700,8.17034375,0.08308160331249237,-0.006019200924015603,0.008821118589493563
1772699705160300800,8.18030078125,0.06751987704336643,0.0013628630181541665,-0.0074232567523722535
1772699705170257700,8.190257568359375,0.058092708006501195,-0.011869580053188838,-0.02394777277220273
1772699705180214500,8.200214599609374,0.06348024626374245,0.007238390288315713,-0.016638027430861256
1772699705190171600,8.210171630859374,0.0675210460871458,0.008412987025640905,-0.0017538213973864911
1772699705200128500,8.22012841796875,0.08832067300975323,0.0009862208586419,0.004679437366125057
1772699705210085600,8.230085693359374,0.07709726820588111,0.0055293533141491935,-0.007539294622273883
1772699705220042800,8.240042724609374,0.0715600923448801,-0.002255587773909792,-0.012132731351268012
1772699705229999600,8.24999951171875,0.06392857455313206,-0.010150167815480381,0.005916268560037133
1772699705239956700,8.259956787109376,0.06407879667878151,-0.010835369034088216,0.006852203982323408
1772699705249913600,8.26991357421875,0.07290799982249736,-0.002195975674316287,0.021907734294980764
1772699705259870500,8.279870361328125,0.07230886488556862,-0.001421570935449563,0.011666866263543487
1772699705269826600,8.28982666015625,0.07455284442007541,0.0013170191490091384,-0.0008698644699761644
1772699705279783700,8.29978369140625,0.07230828036367892,-0.0014286445636302232,-0.009496241942903725
1772699705289740500,8.309740478515625,0.07380465640127658,-0.0028910909321624785,-0.0167425518178381
1772699705299697700,8.31969775390625,0.07949205438792704,0.01511757183135487,-0.02524758277479559
1772699705309654800,8.32965478515625,0.07605038950145245,0.001677102899365127,-0.007902469374614883
1772699705319611600,8.339611572265625,0.06452887853384018,0.0035490525173954663,-0.01358358318012906
1772699705329568500,8.349568603515625,0.0718611211180687,0.0011379819208290427,-0.024426197089045306
1772699705339525600,8.359525634765625,0.08263444406688213,-0.004469701893115416,-0.009946286123699974
1772699705349482500,8.369482421875,0.061684595018625256,-0.008680373824131674,0.006240094257745659
1772699705359439600,8.379439697265624,0.07485328867137432,0.007612470597983338,0.012354472926724702
1772699705369396700,8.389396728515624,0.07590016737580299,-0.003080357293412089,-0.001306805998960044
1772699705379353600,8.399353515625,0.07470306654572487,0.007336302271415479,0.0027110193742322735
1772699705389310700,8.409310791015624,0.09026537733674049,-0.0013131421249127015,0.017491188502853038
1772699705399267600,8.419267578125,0.08158639631867408,-0.001276842402247712,0.02369668637125287
1772699705409224400,8.429224365234376,0.07215981180369853,-0.002466444912459701,0.002577778066135943
1772699705419181600,8.439181640625,0.08532733641266822,0.0017917194220935925,0.00031857984207745175
1772699705429137700,8.4491376953125,0.08009002028107642,0.012130532544315792,0.004307038698534597
1772699705439094500,8.459094482421875,0.0770978527277708,0.009076602033525704,-0.0020390012933610706
1772699705449051600,8.4690517578125,0.07694879964590072,-0.00845495843726676,-0.020886738950479773
1772699705459008800,8.4790087890625,0.06737257752716541,0.00932083628529217,-0.007379542049876181
1772699705468965600,8.488965576171875,0.07799684739410877,0.0004923774936702102,-0.006823064652807079
1772699705478922500,8.498922607421875,0.07066402028799057,-0.013665834086504763,-0.005085329594652284
1772699705488879600,8.508879638671875,0.07081424241364002,-0.00869265791696962,0.01985771099657286
1772699705498836500,8.51883642578125,0.07575228333771228,0.003746707681077532,0.009166032170181278
1772699705508793600,8.528793701171875,0.07485445771515369,0.009093607967253774,-0.003992619579166057
1772699705518750700,8.538750732421875,0.07290858434438705,-0.0058513837761711325,0.007131764704975649
1772699705528707800,8.548707763671874,0.07754735006093978,0.012637824479327537,0.019807935304404237
1772699705538664700,8.558664794921874,0.0643798254519701,0.00605180171909742,0.007950217506478657
1772699705548621600,8.56862158203125,0.06632511430084705,0.0029473602971993385,0.002032504195559886
1772699705558578700,8.57857861328125,0.08143851228058338,0.01479259136042092,0.0021007985001750057
1772699705568535600,8.58853564453125,0.08458031743764877,-0.003530877539888024,-0.007972256949995062
1772699705578492700,8.59849267578125,0.09370879578888416,0.00683397877246607,-0.0020877911756630053
1772699705588448500,8.608448486328125,0.06842004075348376,0.012972632224531844,-0.002567563203620375
1772699705598405600,8.618405517578125,0.07111351762115956,-0.0054740155308740214,-0.020014550092676654
1772699705608362800,8.62836279296875,0.08697568814158439,-0.0070583803791785605,-0.012065273871936368
1772699705618319600,8.638319580078125,0.06916881329417228,-0.007407070519262924,0.01682032519520726
1772699705628276500,8.6482763671875,0.07934417034983635,0.0006216983951861038,0.021630255360738374
1772699705638233600,8.658233642578125,0.07066518933176993,0.009296400530356913,0.018072218102577607
1772699705648190700,8.668190673828125,0.06497779134511947,-0.004219480858556926,0.02279821457801154
1772699705658147600,8.678147705078125,0.0718611211180687,-0.0017755902712000534,0.029808903907542116
1772699705668104700,8.688104736328125,0.07754618101716042,0.005701412812271155,0.01529004460471915
1772699705678061800,8.698061767578125,0.0736561878412962,0.006658800302073359,0.011790788329089991
1772699705688018700,8.708018798828125,0.0823351688593626,0.0061043995560146865,0.00370416830140457
1772699705697975600,8.7179755859375,0.06767068369090556,0.001978711627866141,0.001977260597940767
1772699705707932700,8.7279326171875,0.08323299448192119,0.005288105603912845,-0.011242151745181762
1772699705717889500,8.7378896484375,0.08068857069611549,0.003143736819247715,-0.013445840368495554
1772699705727846700,8.7478466796875,0.07036357603669166,-0.004213375344756059,0.011576604439003858
1772699705737803800,8.7578037109375,0.055549453264474864,-0.01637147631600965,0.006089102663827361
1772699705747760600,8.7677607421875,0.06288169584870339,-0.010802612975379452,-0.003790597055153921
1772699705757717500,8.777717529296876,0.07006430082917213,-0.003123232887336053,0.0031878162771026837
1772699705767673900,8.787673828125,0.06961597253978252,-0.004574404376605525,0.0148527149166679
1772699705777630500,8.79763037109375,0.08458031743764877,-0.00021161519037559627,0.01787817624315503
1772699705787587600,8.807587646484375,0.06677344259023665,0.002645879432861693,0.027707723527343478
1772699705797544700,8.817544677734375,0.06602525457143783,-0.019367612224956973,0.020737987262709066
1772699705807501600,8.82750146484375,0.08473053956329822,0.0015561799334362148,0.0028754915042314678
1772699705817458700,8.837458740234375,0.08024141145050526,-0.004278106577461585,-0.004931065477302763
1772699705827415800,8.847415771484375,0.08263502858877181,0.00141621890689712,-0.01873871233742684
1772699705837372400,8.857372314453125,0.07634966470897198,0.007565160857536829,-0.026548655436001715
1772699705847329500,8.86732958984375,0.06946633493602275,-0.004882328681461513,-0.00979057040560292
1772699705857286700,8.87728662109375,0.06662322046458721,0.006252046132087707,-0.008608482198277487
1772699705867243500,8.887243408203124,0.07934241678416729,0.013691973174759186,-0.020467554557183756
1772699705877200600,8.89720068359375,0.07036474508047104,-0.004659434045245871,0.021875772820715792
1772699705887157800,8.90715771484375,0.06497779134511947,0.0034696534385206174,0.0192753810639726
1772699705897114600,8.917114501953124,0.06602467004954815,-0.002184024941618554,-0.0005755708274286008
1772699705907071500,8.927071533203126,0.054203299352526664,-0.016517853383603506,0.016490818104561183
1772699705917028600,8.937028564453126,0.06856850931346416,-0.017555009845038876,0.009362696957419392
1772699705926984400,8.946984375,0.05988952829539775,-0.01136750314941164,-0.005539956335732131
1772699705936941600,8.956941650390625,0.07171089899241924,-0.010507749081496149,0.008149840864961152
1772699705946898700,8.966898681640625,0.07844576020538807,0.009096681273751892,-0.011261142998374997
1772699705956855600,8.97685546875,0.08233750694692134,0.00024702899705152955,-0.014666544694802722
1772699705966812700,8.986812744140625,0.07650164040029049,0.007636463394924066,-0.022545557274483142
1772699705976769800,8.996769775390625,0.07859773589670657,-0.004328311527892947,-0.020075276437122373
1772699705986726400,9.006726318359375,0.07680208465158939,0.00860865572821349,-0.008698748589394381
1772699705996683500,9.01668359375,0.06737550013661384,0.012027615592535585,-0.0016033857842499854
1772699706006640600,9.026640625,0.0679740505516529,0.007036743936105631,-0.00607571574258036
1772699706016597500,9.036597412109375,0.07859890494048595,-0.001978081440203823,0.0049639785121049496
1772699706026554600,9.0465546875,0.07081833406686783,-0.004538214251794852,0.024043351234321015
1772699706036511700,9.05651171875,0.07530687765777111,-0.005318258713581599,0.015630690718954426
1772699706046468600,9.066468505859374,0.08114274420440197,-0.010726812359387985,0.007827295521352789
1772699706056425500,9.076425537109374,0.07096797167062759,-0.0023510155389783903,0.007815989246871323
1772699706066382600,9.086382568359374,0.09431143785715103,-0.00006515135781373829,0.004314203087438363
1772699706076338400,9.09633837890625,0.05899754789173603,0.01144598434625659,0.01805436506876722
1772699706086295600,9.106295654296876,0.0817424636632204,0.00014339052606374025,0.0018555852884077466
1772699706096252700,9.116252685546876,0.07635492540597916,0.004659128084569238,-0.006680144484201446
1772699706106209500,9.12620947265625,0.07545709978342056,0.003440504975849762,-0.013346445389429572
1772699706116166700,9.136166748046875,0.0664794280797243,-0.0007992286528693512,-0.027101855172240175
1772699706126123800,9.146123779296875,0.0721656570225954,0.012995761938369833,-0.02534157206802629
1772699706136080600,9.15608056640625,0.05705284356474876,-0.0064707988827256485,-0.0013318519627820932
1772699706146037500,9.16603759765625,0.06737900726795196,-0.012521869949460961,-0.005357639163432759
1772699706155994600,9.17599462890625,0.05421148265898228,-0.008242658260301686,0.007386566587351262
1772699706165951700,9.18595166015625,0.07007306865751743,-0.014804875453258863,0.01276720474634785
1772699706175908600,9.19590869140625,0.0854851573228836,-0.012346485983091406,0.0027567987404734594
1772699706185865700,9.20586572265625,0.08099544468820094,0.012207292141532525,0.01771998087360407
1772699706195822600,9.215822509765625,0.06917348946928978,-0.005686046279780566,0.014391293108620447
1772699706205779500,9.225779541015624,0.07306465168893336,-0.00022423720993101595,0.0008343062452942831
1772699706215736600,9.235736572265624,0.07635667897164822,0.010390273881400935,-0.009529310241332859
1772699706225693700,9.245693603515624,0.06872574570178985,-0.008132498716982082,0.013284319389052689
1772699706235650600,9.255650634765624,0.08772972137928009,0.010040332499146461,-0.011408526996255386
1772699706245606700,9.265606689453126,0.08279284949898719,0.0045945429823361335,-0.03461431087829405
1772699706255563800,9.275563720703126,0.08847966296374797,0.0127800961939618,-0.03960791563121602
1772699706265520600,9.285520751953126,0.06573533171415329,-0.00456252214256674,-0.014181565056298858
1772699706275477800,9.295477783203125,0.060946928393840784,-0.0195482203557156,0.01589964842002373
1772699706285434600,9.3054345703125,0.061546647852659224,-0.011233423874387517,0.016657880625512916
1772699706295391500,9.3153916015625,0.07546294500231743,0.004437384225823916,0.008306225586627261
1772699706305348600,9.3253486328125,0.07321896546781062,0.0021371901252074167,0.03595289112185128
1772699706315305700,9.3353056640625,0.07172609656155109,-0.003826878511509858,0.016391183380188884
1772699706325262600,9.3452626953125,0.07068155594468116,0.02066225514537655,-0.00657714019663108
1772699706335219700,9.3552197265625,0.07352350137233733,-0.010818764959159307,0.020062193193263373
1772699706345176600,9.365176513671875,0.06858370688259602,0.00682119692270644,0.007176176952148671
1772699706355133400,9.375133544921875,0.09057985011339187,0.007297577696223743,-0.029198080816108266
1772699706365090600,9.385090576171875,0.08653905028998851,-0.006109294926840812,-0.01658691144826589
