time,seconds_elapsed,z,y,x
1772699697065311000,0.08531103515625,-0.006262482609599829,0.07060348987579346,0.013568136841058731
1772699697075267800,0.095267822265625,-0.0017574792727828026,-0.06682627648115158,-0.013692382723093033
1772699697085225000,0.105224853515625,-0.0004549270961433649,0.06720103323459625,0.012867588549852371
1772699697095181800,0.115181884765625,-0.0043077487498521805,-0.06439187377691269,-0.015239447355270386
1772699697105138700,0.125138671875,0.007409893907606602,0.06368406862020493,0.012701906263828278
1772699697115095800,0.135095703125,-0.013758993707597256,-0.05946263670921326,-0.013220377266407013
1772699697125053000,0.145052978515625,0.014754406176507473,0.060650456696748734,0.013655977323651314
1772699697135009800,0.155009765625,-0.016785191372036934,-0.05692863464355469,-0.013246150687336922
1772699697144966000,0.1649658203125,0.017046010121703148,0.05532386898994446,0.013197707012295723
1772699697154923000,0.174923095703125,-0.022270498797297478,-0.051380470395088196,-0.010993626900017262
1772699697164880000,0.1848798828125,0.023312699049711227,0.050367459654808044,0.013660853728652
1772699697174837000,0.1948369140625,-0.026977621018886566,-0.04852050542831421,-0.010751476511359215
1772699697184793900,0.2047939453125,0.028326114639639854,0.048926688730716705,0.011593243107199669
1772699697194750700,0.214750732421875,-0.032644305378198624,-0.04399712383747101,-0.009802371263504028
1772699697204707800,0.224707763671875,0.03407107666134834,0.04157024249434471,0.009590234607458115
1772699697214665000,0.2346650390625,-0.03851921856403351,-0.038938719779253006,-0.008371386677026749
1772699697224621800,0.244621826171875,0.042661119252443314,0.03626122698187828,0.013134969398379326
1772699697234579000,0.254578857421875,-0.04605387896299362,-0.029694881290197372,-0.008164109662175179
1772699697244535800,0.264535888671875,0.044664036482572556,0.031003087759017944,0.006822296883910894
1772699697254492700,0.27449267578125,-0.048750847578048706,-0.025804804638028145,-0.007819161750376225
1772699697264449800,0.28444970703125,0.0511656291782856,0.025640808045864105,0.01053614355623722
1772699697274407000,0.294406982421875,-0.05390618368983269,-0.020023614168167114,-0.006298983469605446
1772699697284364000,0.304364013671875,0.055805664509534836,0.019462276250123978,0.010028856806457043
1772699697294321000,0.31432080078125,-0.012329722754657269,-0.01904330402612686,-0.008029818534851074
1772699697304278000,0.324278076171875,-0.008173593319952488,0.01008581928908825,0.005737659055739641
1772699697314233900,0.33423388671875,-0.00033531966619193554,0.002134944312274456,0.0037605157122015953
1772699697324191000,0.34419091796875,-0.0007800675230100751,-0.0013769655488431454,0.000672047957777977
1772699697334147800,0.35414794921875,-0.0008018844528123736,0.0012190802954137325,0.0014713546261191368
1772699697344104700,0.364104736328125,0.0003869505599141121,-0.003994856029748917,0.00004896055907011032
1772699697354061800,0.374061767578125,-0.0017399182543158531,0.00019137607887387276,-0.000021912623196840286
1772699697364019000,0.38401904296875,-0.0008147361222654581,0.00017406512051820755,-0.0004890314303338528
1772699697373976000,0.39397607421875,-0.00019573327153921127,0.002373026218265295,0.0013531800359487534
1772699697383933000,0.403932861328125,-0.0015736527275294065,-0.001595882698893547,-0.0012655062600970268
1772699697393889800,0.413889892578125,-0.00043018627911806107,-0.00018332991749048233,0.0002118665724992752
1772699697403847000,0.423846923828125,0.001807401655241847,-0.0009356727823615074,-0.0010238401591777802
1772699697413803800,0.4338037109375,-0.00017905025742948055,0.0015120385214686394,0.000017988495528697968
1772699697423761000,0.443760986328125,0.0006236264016479254,-0.0022874935530126095,0.000803621020168066
1772699697433718000,0.453718017578125,0.0006033864337950945,0.002414850052446127,0.0006837788969278336
1772699697443675000,0.4636748046875,0.0011469642631709576,-0.001367640681564808,-0.0038554645143449306
1772699697453632000,0.473632080078125,-0.0030848041642457247,-0.00009677978232502937,0.0021856273524463177
1772699697463588900,0.4835888671875,0.003037536982446909,-0.0013940054923295975,-0.002115910639986396
1772699697473545700,0.493545654296875,0.0009419114794582129,-0.0006714919582009315,-0.0008447146974503994
1772699697483502800,0.5035029296875,-0.0013617228250950575,0.0006249346770346165,-0.0023408785928040743
1772699697493459000,0.513458984375,-0.0004009236581623554,0.002662261947989464,-0.0009115911088883877
1772699697503415800,0.523415771484375,-0.0004038531333208084,-0.002170043997466564,0.001093503087759018
1772699697513373000,0.533373046875,-0.0027897257823497057,0.002682228572666645,0.001798137091100216
1772699697523330000,0.543330078125,-0.0016205981373786926,-0.0021245102398097515,0.0003176857717335224
1772699697533287000,0.553286865234375,-0.003219549311324954,0.0006944448687136173,-0.0006663058884441853
1772699697543243800,0.563243896484375,-0.001410996657796204,-0.0014035934582352638,-0.00018587149679660797
1772699697553201000,0.573200927734375,-0.0009945206111297011,0.0014875391498208046,0.0003974433057010174
1772699697563157800,0.58315771484375,-0.00017027230933308601,-0.00023685768246650696,0.0021436777897179127
1772699697573115000,0.593114990234375,0.0010151006281375885,-0.0006448538042604923,0.00013565458357334137
1772699697583072000,0.603072021484375,0.002721654251217842,0.0006659538485109806,0.0006528403609991074
1772699697593028900,0.61302880859375,0.0009868869092315435,-0.0009790831245481968,0.002461195457726717
1772699697602986000,0.622986083984375,-0.0009175394661724567,0.0010824701748788357,0.00003665359690785408
1772699697612942800,0.63294287109375,-0.002081570215523243,-0.00047068996354937553,0.0007875594310462475
1772699697622899700,0.642899658203125,0.0020969293545931578,-0.0015202420763671398,0.002215013839304447
1772699697632856800,0.65285693359375,-0.0013638798845931888,0.0007383893243968487,-0.00015800027176737785
1772699697642814000,0.66281396484375,-0.00019927951507270336,-0.0008773505687713623,0.0035192929208278656
1772699697652770800,0.672770751953125,0.00040521519258618355,0.0011186935007572174,0.002113759983330965
1772699697662728000,0.68272802734375,0.0010504990350455046,-0.0008331369608640671,0.0007907017134130001
1772699697672684800,0.692684814453125,-0.00011427165009081364,-0.00003153784200549126,0.00045821908861398697
1772699697682641000,0.702640869140625,0.0006263535469770432,-0.0008773575536906719,0.001256102230399847
1772699697692597800,0.71259765625,0.00024890387430787086,-0.0018161116167902946,0.002718099392950535
1772699697702555000,0.722554931640625,0.00039617670699954033,0.0002728719264268875,-0.0012699842918664217
1772699697712511700,0.73251171875,0.001443070825189352,-0.00017959950491786003,0.001242996659129858
1772699697722468900,0.74246875,0.0015317541547119617,-0.00036415690556168556,0.000972153153270483
1772699697732426000,0.752426025390625,-0.0002708656247705221,0.001766894944012165,-0.001998813124373555
1772699697742382800,0.7623828125,-0.0024195038713514805,-0.00220574252307415,-0.0017210454680025578
1772699697752340000,0.772340087890625,-0.000976677518337965,-0.0022795021068304777,0.0022296980023384094
1772699697762297000,0.782297119140625,0.00006994488649070263,-0.0016936068423092365,0.0012145009823143482
1772699697772254200,0.792254150390625,-0.00037030759267508984,0.0008166921325027943,0.0021832226775586605
1772699697782211000,0.802211181640625,-0.0010408915113657713,0.0012526516802608967,-0.002307665767148137
1772699697792168200,0.812168212890625,-0.00004722387529909611,-0.0017756340093910694,0.0011333203874528408
1772699697802125300,0.822125244140625,0.0013533325400203466,-0.002419053576886654,-0.000493338331580162
1772699697812082200,0.832082275390625,0.0006452088709920645,0.0004944438114762306,-0.001087177312001586
1772699697822039000,0.8420390625,-0.0001982143148779869,-0.001980431843549013,0.0002460014075040817
1772699697831996200,0.85199609375,0.001294221030548215,-0.0002224794588983059,0.0005269646644592285
1772699697841953000,0.861953125,0.0006899498403072357,-0.0002776067703962326,0.00333260465413332
1772699697851909000,0.8719091796875,-0.00007978384383022785,-0.0020483341068029404,0.0008720350451767445
1772699697861866200,0.8818662109375,0.0005881369579583406,-0.0012307437136769295,-0.0016912573482841253
1772699697871823000,0.891822998046875,-0.00023636152036488056,0.0009820759296417236,-0.0019662941340357065
1772699697881780200,0.9017802734375,-0.0006315745413303375,-0.000715156551450491,-0.00011433195322751999
1772699697891737300,0.9117373046875,-0.0006828884361311793,0.000007881782948970795,0.0033169793896377087
1772699697901694000,0.92169384765625,0.0002532126381993294,-0.0011359457857906818,-0.0008553951047360897
1772699697911651000,0.931651123046875,-0.0015246625989675522,-0.0007187356241047382,0.0026091975159943104
1772699697921608200,0.941608154296875,0.000433559762313962,-0.0007506934925913811,-0.0017155096866190434
1772699697931565000,0.95156494140625,-0.0016225327271968126,0.0004709693603217602,0.0012688040733337402
1772699697941522200,0.961522216796875,0.003092327853664756,0.0014526103623211384,-0.0005578580312430859
1772699697951479300,0.971479248046875,-0.0007625605212524533,0.00007317494601011276,-0.0006739012897014618
1772699697961436200,0.981436279296875,-0.0005644212942570448,-0.0007843626663088799,-0.0001372741535305977
1772699697971393000,0.99139306640625,-0.0011118440888822079,0.00016731210052967072,-0.0005381382070481777
1772699697981350100,1.00135009765625,0.002168637467548251,0.00016677938401699066,0.001165485940873623
1772699697991307000,1.01130712890625,0.0012268614955246449,-0.0014250008389353752,0.0021870899945497513
1772699698001264000,1.02126416015625,-0.0017167304176837206,-0.00021778978407382965,0.0012685656547546387
1772699698011221200,1.03122119140625,-0.0014188367640599608,0.001001384574919939,-0.0011306088417768478
1772699698021178000,1.04117822265625,-0.00108301208820194,-0.0003688116557896137,0.0018103201873600483
1772699698031134200,1.05113427734375,-0.00006855977699160576,-0.0006598522886633873,-0.0021102936007082462
1772699698041091300,1.06109130859375,-0.000009970273822546005,0.0006472272798418999,0.0007057329639792442
1772699698051048000,1.0710478515625,0.0004856076557189226,0.000043824780732393265,0.002514998894184828
1772699698061005000,1.081005126953125,-0.0012640891363844275,0.0023522526025772095,-0.004785791039466858
1772699698070962200,1.090962158203125,0.0017104693688452244,0.003357802052050829,-0.0018081814050674438
1772699698080919000,1.1009189453125,-0.0002930266782641411,0.0004656086675822735,0.0008174292743206024
1772699698090876200,1.110876220703125,0.001615889836102724,0.001725542824715376,-0.0005383435636758804
1772699698100833300,1.120833251953125,-0.0004981271922588348,0.0007705334573984146,-0.0010565947741270065
1772699698110790000,1.130789794921875,-0.0022234434727579355,0.0005874978378415108,-0.0011104303412139416
1772699698120747000,1.1407470703125,0.0007411872502416372,-0.0003278306685388088,0.0012469999492168427
1772699698130704100,1.1507041015625,-0.0007785714697092772,0.0003540092147886753,-0.00017378898337483406
1772699698140661200,1.1606611328125,-0.0029935226775705814,-0.0006476058624684811,-0.000979128759354353
1772699698150618000,1.1706181640625,-0.0015238139312714338,0.00009989691898226738,0.00019259611144661903
1772699698160575200,1.1805751953125,0.001581431832164526,0.00008072191849350929,0.0016440190374851227
1772699698170532400,1.190532470703125,-0.000022356631234288216,-0.00040709739550948143,-0.0027144940104335546
1772699698180489000,1.200489013671875,-0.0030642193742096424,0.0019242335110902786,-0.0010542795062065125
1772699698190446000,1.210446044921875,-0.00001118960790336132,-0.0009984108619391918,0.002604721114039421
1772699698200403200,1.2204033203125,0.00047403830103576183,-0.0009952150285243988,0.0004472942091524601
1772699698210359000,1.230359130859375,-0.0006522297626361251,-0.0016094530001282692,0.0007666484452784061
1772699698220316200,1.240316162109375,0.0031728683970868587,-0.0018531321547925472,0.0026127519086003304
1772699698230273000,1.25027294921875,-0.0007292082300409675,-0.0012265155091881752,-0.002481220755726099
1772699698240230100,1.260230224609375,-0.00035822996869683266,0.0013194666244089603,-0.001311826752498746
1772699698250187300,1.270187255859375,-0.00041651888750493526,-0.0007502627559006214,0.0004511205479502678
1772699698260144000,1.28014404296875,-0.0011046797735616565,-0.0006394754163920879,-0.0006857831031084061
1772699698270101000,1.29010107421875,-0.0009241381194442511,0.00080886110663414,-0.0025782089214771986
1772699698280058000,1.30005810546875,0.0015555310528725386,-0.0014140792191028595,0.00027084071189165115
1772699698290015200,1.31001513671875,0.0005784498061984777,0.0017304690554738045,0.0026900488883256912
1772699698299972000,1.31997216796875,-0.0005134462844580412,0.0017096963711082935,-0.0022818061988800764
1772699698309929200,1.32992919921875,-0.0009176577441394329,-0.0020331256091594696,0.0026763002388179302
1772699698319886000,1.339885986328125,-0.00040286872535943985,0.0005165846087038517,0.00009942566975951195
1772699698329843000,1.349843017578125,-0.0007765226764604449,0.002368641085922718,0.00015251664444804192
1772699698339800000,1.359800048828125,-0.0007221940904855728,0.00041174981743097305,-0.00047838594764471054
1772699698349757200,1.369757080078125,-0.0022484874352812767,-0.0013923184014856815,0.00232243025675416
1772699698359714000,1.379714111328125,-0.0009749638848006725,-0.0006567533127963543,0.0015919250436127186
1772699698369671200,1.389671142578125,-0.0016295169480144978,0.0017854580655694008,0.001124305184930563
1772699698379627300,1.399627197265625,0.00035240757279098034,-0.0009916862472891808,0.0009072576649487019
1772699698389584100,1.409584228515625,0.0011322982609272003,-0.000900608953088522,-0.0005380436778068542
1772699698399541200,1.419541259765625,-0.0005968920886516571,0.0005553411319851875,-0.001584932440891862
1772699698409498000,1.429498046875,0.0018010835628956556,-0.0031165184918791056,-0.0006785958539694548
1772699698419455000,1.439455078125,-0.002058369340375066,0.0007296185940504074,-0.0005238661542534828
1772699698429412000,1.449412109375,0.0012665013782680035,-0.00041193002834916115,0.0030458546243608
1772699698439369200,1.459369140625,0.0017623817548155785,-0.0023176881950348616,-0.0007219857070595026
1772699698449326000,1.469326171875,0.00009085587225854397,-0.0018555200658738613,0.002445025835186243
1772699698459283200,1.479283203125,-0.0008966440800577402,0.0009085750207304955,0.0012942738831043243
1772699698469240000,1.489239990234375,0.001467354129999876,0.0006553856655955315,0.0012359744869172573
1772699698479197000,1.499197021484375,-0.0019167244900017977,-0.001122540794312954,-0.0000929427333176136
1772699698489154000,1.509154052734375,-0.0012365623842924833,0.00045627402141690254,0.0004924098029732704
1772699698499111200,1.519111083984375,-0.001128438045270741,0.0006016828119754791,-0.0011291890405118465
1772699698509068000,1.529068115234375,0.0011022631078958511,-0.0008516949601471424,0.003140040673315525
1772699698519025200,1.539025146484375,-0.0005627451464533806,0.0007379460148513317,-0.0006648174021393061
1772699698528982300,1.548982177734375,-0.00057776621542871,-0.0016840589232742786,0.0014747194945812225
1772699698538938000,1.558938232421875,-0.0010518089402467012,0.0021985634230077267,-0.0015032270457595587
1772699698548895200,1.568895263671875,-0.004095761105418205,0.0007155649363994598,-0.00022791186347603798
1772699698558852000,1.57885205078125,0.0009195036254823208,-0.0015901997685432434,-0.005783531814813614
1772699698568809000,1.58880908203125,-0.0005281534977257252,-0.0022403921466320753,-0.0005749035626649857
1772699698578766000,1.59876611328125,0.0007429732941091061,0.0022084182128310204,0.002198778558522463
1772699698588723200,1.60872314453125,-0.00022156396880745888,0.00045754294842481613,-0.0003736913204193115
1772699698598680000,1.61868017578125,0.001345173455774784,-0.0003970656543970108,-0.00031483545899391174
1772699698608637200,1.62863720703125,-0.0013089909916743636,0.0005691968835890293,0.0025527854450047016
1772699698618594000,1.638593994140625,0.00013976870104670525,-0.0011267038062214851,-0.002642509061843157
1772699698628551200,1.64855126953125,0.0004209158942103386,0.000617567915469408,-0.0017784121446311474
1772699698638508000,1.658508056640625,-0.000588954659178853,-0.0010626204311847687,0.0003403988666832447
1772699698648465200,1.668465087890625,-0.0007119070505723357,-0.001056100707501173,-0.0011767172254621983
1772699698658422300,1.67842236328125,0.00241091544739902,0.0002781427465379238,0.0007239808328449726
1772699698668379100,1.688379150390625,0.0007728151977062225,0.0011311299167573452,-0.0015669579152017832
1772699698678336300,1.698336181640625,-0.0015478632412850857,0.0022400706075131893,0.0003534476272761822
1772699698688293000,1.708293212890625,0.0017268205992877483,0.0012510363012552261,-0.001065041869878769
1772699698698249200,1.718249267578125,0.00214227382093668,0.003549344837665558,0.0033195866271853447
1772699698708206000,1.7282060546875,-0.0009299212833866477,0.001837323885411024,-0.0027887995820492506
1772699698718163000,1.738162841796875,-0.0014476397773250937,-0.001418923493474722,-0.0021898546256124973
1772699698728120000,1.7481201171875,0.0003494813572615385,0.0009089098311960697,0.002761569805443287
1772699698738077200,1.7580771484375,0.00024455273523926735,0.0015560579486191273,-0.002352498471736908
1772699698748034300,1.768034423828125,0.00021429616026580334,0.0007605408318340778,0.0010624118149280548
1772699698757991400,1.777991455078125,0.0010428056120872498,-0.00007755588740110397,-0.0003642435185611248
1772699698767948000,1.787947998046875,-0.0017680602613836527,-0.0007294155657291412,-0.0015781426336616278
1772699698777905200,1.7979052734375,0.002759846393018961,-0.0006505860947072506,0.002063463907688856
1772699698787862300,1.8078623046875,0.003372207749634981,-0.003311547916382551,-0.0018076470587402582
1772699698797819100,1.817819091796875,0.001125831389799714,0.0009708148427307606,-0.001444391906261444
1772699698807776300,1.8277763671875,-0.000453015323728323,-0.002032050397247076,0.0012357840314507484
1772699698817733400,1.8377333984375,-0.00021812436170876026,-0.00011004693806171417,0.00026053423061966896
1772699698827690200,1.847690185546875,0.00009370408952236176,-0.0020152628421783447,0.0019144313409924507
1772699698837647000,1.857647216796875,0.0029936202336102724,0.00008197641000151634,-0.0028675408102571964
1772699698847604200,1.867604248046875,-0.0006070912349969149,0.0006080241873860359,0.002753687556833029
1772699698857560000,1.87756005859375,-0.0005711386911571026,-0.0010974640026688576,0.00011050049215555191
1772699698867517200,1.88751708984375,-0.0003112244885414839,-0.0006703226827085018,0.003004790749400854
1772699698877474300,1.897474365234375,0.0026949518360197544,0.0015291818417608738,-0.00036224350333213806
1772699698887431200,1.90743115234375,-0.0008314796723425388,0.0008608326315879822,0.003268059343099594
1772699698897388300,1.91738818359375,0.0001051540020853281,-0.0006694197654724121,0.0010310038924217224
1772699698907345400,1.927345458984375,0.00343103869818151,0.0002547483891248703,0.0008301963098347187
1772699698917302000,1.937302001953125,-0.00023000896908342838,-0.0006808200851082802,0.0005071545019745827
1772699698927259100,1.947259033203125,0.0021924881730228662,-0.00035165343433618546,-0.000986841507256031
1772699698937216300,1.95721630859375,0.00019644876010715961,0.000052347779273986816,-0.0008776518516242504
1772699698947173400,1.96717333984375,-0.0009576166048645973,-0.00037851370871067047,0.0027119433507323265
1772699698957130200,1.977130126953125,0.0007169789168983698,-0.0007441658526659012,-0.0019597739446908236
1772699698967087400,1.98708740234375,-0.000032249605283141136,-0.0004878183826804161,0.0009474167600274086
1772699698977044200,1.997044189453125,0.0006247521378099918,0.0015942407771945,0.001961016096174717
1772699698987001000,2.0070009765625,0.001985556213185191,-0.0002524210140109062,-0.0008225529454648495
1772699698996958200,2.016958251953125,0.00031096069142222404,-0.0030775023624300957,0.001397457905113697
1772699699006914000,2.0269140625,0.0009299153462052345,-0.000982716679573059,0.0010843346826732159
1772699699016871200,2.03687109375,-0.0008365594549104571,-0.0011646109633147717,-0.001988686854019761
1772699699026828300,2.046828369140625,0.0018065855838358402,0.0002701999619603157,0.0017427988350391388
1772699699036785400,2.056785400390625,-0.0006283427355811,0.0024979347363114357,0.0015316102653741837
1772699699046742300,2.0667421875,-0.0020053484477102757,-0.001545493956655264,0.0022578765638172626
1772699699056699400,2.076699462890625,-0.002731059677898884,-0.00120594073086977,0.000782218761742115
1772699699066656300,2.08665625,-0.0019079474732279778,-0.002981127006933093,0.0027214749716222286
1772699699076613000,2.096613037109375,0.0011070170439779758,-0.0025158727075904608,-0.002425882965326309
1772699699086570200,2.1065703125,0.0038531997706741095,-0.001157398335635662,0.002295291982591152
1772699699096527400,2.11652734375,0.00017590681090950966,0.0014106878079473972,-0.0037407625932246447
1772699699106484200,2.126484130859375,0.0018893892411142588,0.0012176535092294216,-0.0007909401319921017
1772699699116441300,2.13644140625,-0.002263544127345085,-0.0020202179439365864,-0.00014219386503100395
1772699699126398200,2.146398193359375,-0.0005005963612347841,-0.0020347395911812782,-0.0028887582011520863
1772699699136355000,2.15635498046875,0.0012853194493800402,-0.0007444382645189762,0.0009600422345101833
1772699699146312200,2.166312255859375,-0.0023321860935539007,-0.0018350807949900627,-0.00022921059280633926
1772699699156269300,2.176269287109375,0.00016079889610409737,-0.001257441472262144,0.0021439320407807827
1772699699166225200,2.18622509765625,0.0007397567387670279,-0.0010142838582396507,0.0015445235185325146
1772699699176182300,2.196182373046875,-0.0008618682622909546,0.0002334071323275566,0.0008441121317446232
1772699699186139400,2.206139404296875,0.000249574426561594,0.0003047315403819084,-0.0016188481822609901
1772699699196096300,2.21609619140625,0.0008189582731574774,0.000672247726470232,0.00003790436312556267
1772699699206053400,2.226053466796875,0.00043024681508541107,0.0019340012222528458,0.00026129046455025673
1772699699216010200,2.23601025390625,-0.00012049498036503792,0.0010383804328739643,0.003202219493687153
1772699699225967000,2.245967041015625,-0.0013418695889413357,-0.00035207392647862434,0.002076089847832918
1772699699235924200,2.25592431640625,0.0024241062346845865,-0.00067112036049366,0.0002294541336596012
1772699699245881300,2.26588134765625,-0.0008875279454514384,-0.00014102831482887268,0.00001311255618929863
1772699699255838200,2.275838134765625,-0.001645197393372655,0.0011569960042834282,-0.0003711818717420101
1772699699265795300,2.28579541015625,-0.0016780321020632982,0.0007469477131962776,0.000013566575944423676
1772699699275752200,2.295752197265625,0.002263446105644107,0.0007490781135857105,-0.0012527666985988617
1772699699285709000,2.305708984375,0.0011027834843844175,-0.001104065217077732,-0.001897009089589119
1772699699295666200,2.315666259765625,0.0014143732842057943,-0.0008047260344028473,0.0013837390579283237
1772699699305623300,2.325623291015625,-0.0005831744056195021,-0.0004602139815688133,0.0008946564048528671
1772699699315579100,2.3355791015625,-0.0004058079794049263,0.0009656422771513462,-0.0010321405716240406
1772699699325536300,2.345536376953125,0.0021338043734431267,0.0005527343600988388,-0.0017146924510598183
1772699699335493400,2.355493408203125,0.0003942276816815138,0.0005609900690615177,0.0007255622185766697
1772699699345450200,2.3654501953125,0.0004961057566106319,0.0004074634052813053,0.0016396492719650269
1772699699355407400,2.375407470703125,-0.0007662326097488403,-0.0003805658780038357,0.0007552136667072773
1772699699365364200,2.3853642578125,0.0023978552781045437,0.0027166567742824554,-0.0016800214070826769
1772699699375321000,2.395321044921875,0.00008836179040372372,-0.002263454021885991,0.0025935531593859196
1772699699385278200,2.4052783203125,0.0002536713145673275,0.00222304230555892,0.004142872989177704
1772699699395235300,2.4152353515625,-0.00037936214357614517,0.00022673700004816055,0.002246436197310686
1772699699405192200,2.425192138671875,0.0008082583080977201,-0.0004696217365562916,-0.00005685165524482727
1772699699415149300,2.4351494140625,-0.0006580781191587448,0.0014177602715790272,0.00043290387839078903
1772699699425106200,2.445106201171875,0.0007138496730476618,-0.0004857657477259636,-0.00011347094550728798
1772699699435063300,2.455063232421875,0.00014979206025600433,-0.00012677162885665894,0.0011912118643522263
1772699699445020200,2.465020263671875,0.0009196961764246225,-0.0002560596913099289,0.0029285126365721226
1772699699454977300,2.474977294921875,0.0007676298264414072,-0.002875811420381069,0.0014113099314272404
1772699699464933000,2.48493310546875,0.0009383948054164648,0.001194802112877369,0.0013019260950386524
1772699699474890200,2.49489013671875,-0.0019474065629765391,-0.0011082999408245087,-0.0006879877764731646
1772699699484847400,2.504847412109375,0.00107083679176867,-0.0032754899002611637,0.002755912486463785
1772699699494804200,2.51480419921875,-0.0016490495763719082,0.0007075336761772633,-0.0015070096123963594
1772699699504761300,2.52476123046875,0.0010504033416509628,-0.002094369614496827,-0.000041808467358350754
1772699699514718200,2.53471826171875,0.00047462782822549343,-0.0008653206750750542,0.0007712547667324543
1772699699524675300,2.54467529296875,0.0003659771755337715,-0.0025359413120895624,0.0008176099509000778
1772699699534632200,2.554632080078125,0.00003574509173631668,-0.0006341780535876751,0.003270115237683058
1772699699544589300,2.56458935546875,-0.001619962858967483,-0.00014096777886152267,0.0011589308269321918
1772699699554546400,2.57454638671875,0.0011254898272454739,-0.0010160827077925205,0.000274494756013155
1772699699564503300,2.58450341796875,-0.003051137551665306,0.000509635079652071,0.003311735577881336
1772699699574460200,2.594460205078125,-0.000543238827958703,0.00045903492718935013,-0.0011149710044264793
1772699699584417300,2.604417236328125,0.0031043218914419413,0.0006767786107957363,-0.0007473302539438009
1772699699594374100,2.6143740234375,-0.00012848945334553719,0.00041632167994976044,0.0016902610659599304
1772699699604331300,2.624331298828125,-0.0006879658903926611,0.0006265360862016678,-0.0008607902564108372
1772699699614287000,2.634287109375,0.0016217934899032116,0.001328278798609972,-0.00016677053645253181
1772699699624244200,2.644244140625,-0.00022902130149304867,0.00028864992782473564,-0.0008418054785579443
1772699699634201300,2.654201416015625,0.0009558189194649458,-0.0012551844120025635,-0.0002465890720486641
1772699699644158500,2.664158447265625,0.00019366713240742683,0.0010829572565853596,0.00029287440702319145
1772699699654115300,2.674115234375,0.0022397737484425306,-0.00025235163047909737,0.0034889336675405502
1772699699664072200,2.684072265625,0.0008110434282571077,0.0010416670702397823,-0.0007562623359262943
1772699699674029300,2.694029296875,-0.0013189527671784163,0.0017990702763199806,-0.0005277632735669613
1772699699683986200,2.703986083984375,0.0000333874486386776,-0.003313547233119607,0.0016653155907988548
1772699699693943300,2.713943359375,0.0009175569284707308,-0.0004826067015528679,0.0030762585811316967
1772699699703900400,2.723900390625,0.002636980963870883,-0.000003261025995016098,0.0015194248408079147
1772699699713857300,2.733857177734375,-0.002031540498137474,-0.0004892880097031593,-0.0008092434145510197
1772699699723814100,2.743814208984375,0.0029631664510816336,-0.002887508599087596,0.0010838392190635204
1772699699733771300,2.753771240234375,0.0010675285011529922,-0.0012059886939823627,0.001433778554201126
1772699699743728000,2.76372802734375,-0.0006485907360911369,0.00032007554545998573,-0.0003963313065469265
1772699699753684000,2.77368408203125,-0.00031755981035530567,0.00030276505276560783,-0.00024133548140525818
1772699699763641000,2.78364111328125,0.0007869112305343151,0.0000025932677090168,-0.002760816365480423
1772699699773598200,2.79359814453125,0.0005823804531246424,0.0005144528113305569,-0.002795703709125519
1772699699783555000,2.80355517578125,-0.0013554805191233754,-0.0005881134420633316,0.0032825632952153683
1772699699793512200,2.81351220703125,-0.001312337233684957,-0.001023806631565094,0.0002862405963242054
1772699699803469000,2.823468994140625,-0.00397885125130415,0.0018511195667088032,0.002552789170295
1772699699813426000,2.833426025390625,0.000044386135414242744,0.0015081046149134636,0.0035141906701028347
1772699699823383000,2.843383056640625,0.0006217923946678638,-0.0001507652923464775,-0.0007643357384949923
1772699699833340200,2.853340087890625,0.0011328528635203838,-0.0015262882225215435,0.0012117298319935799
1772699699843297300,2.86329736328125,-0.000338883139193058,-0.00029786350205540657,-0.001646765973418951
1772699699853254100,2.873254150390625,0.002794592408463359,-0.0012832335196435452,-0.00015086866915225983
1772699699863211300,2.883211181640625,-0.003092485014349222,0.0038345353677868843,-0.0036106163170188665
1772699699873168100,2.893168212890625,0.00025351066142320633,0.002471795305609703,0.0018896101973950863
1772699699883125000,2.903125,0.0006823104340583086,0.0006110626272857189,0.0019435393624007702
1772699699893082000,2.91308203125,-0.0012341003166511655,0.0006896257400512695,-0.0007494490128010511
1772699699903039200,2.923039306640625,-0.00038344087079167366,-0.0017657643184065819,0.0013003968633711338
1772699699912995000,2.9329951171875,-0.0016918517649173737,0.002631913870573044,-0.001783277140930295
1772699699922952200,2.9429521484375,0.00040594208985567093,0.0015995269641280174,-0.0013430672697722912
1772699699932909000,2.952908935546875,0.002787340898066759,0.0007984479889273643,0.0002585579641163349
1772699699942866200,2.9628662109375,-0.0009136321023106575,-0.00009165192022919655,-0.000893804244697094
1772699699952823000,2.972822998046875,-0.0006193527951836586,-0.0022251105401664972,0.0033014738000929356
1772699699962780200,2.9827802734375,-0.001913443673402071,-0.000863031018525362,-0.0004510115832090378
1772699699972737000,2.992737060546875,0.0008551785722374916,-0.0002337261103093624,0.00011704070493578911
1772699699982694100,3.002694091796875,-0.0009300499223172665,0.00088519137352705,0.0008341483771800995
1772699699992651300,3.0126513671875,-0.0031130430288612843,0.0018402012065052986,-0.0007530958391726017
1772699700002608000,3.022608154296875,0.0007850085385143757,-0.0005118683911859989,0.00046426383778452873
1772699700012565200,3.032565185546875,0.0027754551265388727,0.001392824575304985,0.0008869078010320663
1772699700022522000,3.042522216796875,0.00011730799451470375,0.002374510746449232,-0.0020279239397495985
1772699700032479000,3.05247900390625,0.0022446410730481148,0.00137049937620759,0.0016871858388185501
1772699700042436000,3.06243603515625,-0.00058006402105093,-0.001575214322656393,0.0017150449566543102
1772699700052393200,3.072393310546875,-0.0003560921177268028,0.00028819963335990906,-0.0008256109431385994
1772699700062349000,3.08234912109375,-0.0006811150815337896,-0.000031429342925548553,0.0021777693182229996
1772699700072306200,3.09230615234375,-0.000712007749825716,0.0016037514433264732,-0.0004835277795791626
1772699700082263300,3.10226318359375,-0.0030712406150996685,0.00039516761898994446,0.0013653319329023361
1772699700092220200,3.11222021484375,-0.0012517690192908049,0.0024434044025838375,-0.003161775413900614
1772699700102177000,3.122177001953125,-0.0018586467485874891,0.0018156012520194054,-0.0021789034362882376
1772699700112134100,3.132134033203125,0.001013039844110608,0.00005977880209684372,-0.0011871422175318003
1772699700122091000,3.142091064453125,-0.0003791246563196182,-0.0001774849370121956,-0.00012602563947439194
1772699700132048100,3.152048095703125,-0.0032297722063958645,-0.0005897423252463341,0.0011477642692625523
1772699700142005200,3.162005126953125,-0.0011369379935786128,-0.0007272344082593918,-0.0029019454959779978
1772699700151962000,3.171962158203125,-0.00013558939099311829,-0.0005029961466789246,0.00007120752707123756
1772699700161919200,3.181919189453125,0.0011204301845282316,-0.0009080427698791027,0.0004648398607969284
1772699700171876000,3.1918759765625,0.0020858258940279484,0.000832599587738514,0.0023500914685428143
1772699700181833000,3.2018330078125,0.0017679589800536633,0.0006456924602389336,-0.0015728501603007317
1772699700191790000,3.2117900390625,-0.00026882649399340153,0.0001420886255800724,-0.0006660439539700747
1772699700201746200,3.22174609375,0.0010479707270860672,-0.0016749161295592785,-0.0009624408558011055
1772699700211703000,3.231703125,0.0013680828269571066,-0.0018147318623960018,-0.00009664706885814667
1772699700221660200,3.24166015625,-0.00004989840090274811,0.00009216321632266045,-0.003343988675624132
1772699700231617300,3.2516171875,-0.002713059540838003,0.0015893923118710518,-0.00012209638953208923
1772699700241574100,3.26157421875,-0.0029702407773584127,0.00023303460329771042,0.002382280770689249
1772699700251531000,3.271531005859375,-0.0008935078512877226,0.0023971195332705975,-0.0007203016430139542
1772699700261488000,3.281488037109375,-0.0002997377887368202,0.0013030245900154114,-0.0002988874912261963
1772699700271445000,3.291445068359375,-0.000015578465536236763,-0.00018514972180128098,-0.0004445626400411129
1772699700281402000,3.301402099609375,-0.0013691146159544587,-0.0006438544951379299,-0.0008153899107128382
1772699700291359200,3.311359130859375,0.0016059025656431913,0.0011710897088050842,-0.0012454905081540346
1772699700301316000,3.321316162109375,-0.0020720278844237328,0.0008357125334441662,0.0023143389262259007
1772699700311273200,3.331273193359375,0.0015290984883904457,0.0005446290597319603,-0.000445761252194643
1772699700321230000,3.34122998046875,0.0018396119121462107,0.0007059569470584393,0.00011470075696706772
1772699700331187000,3.35118701171875,-0.0009319399250671268,0.0005211331881582737,-0.00031247036531567574
1772699700341144000,3.36114404296875,-0.001414978178218007,0.0020131533965468407,-0.0020937249064445496
1772699700351101200,3.37110107421875,-0.0028568136040121317,0.0013771899975836277,0.000005112495273351669
1772699700361057000,3.38105712890625,-0.0004107537679374218,-0.0008993539959192276,-0.0034043295308947563
1772699700371014100,3.39101416015625,-0.0001337849535048008,0.0007502078078687191,-0.0004540798254311085
1772699700380971300,3.40097119140625,0.00020651216618716717,0.0009584189392626286,0.0005914857611060143
1772699700390928100,3.41092822265625,-0.00042732013389468193,0.00013283919543027878,0.00016165152192115784
1772699700400885000,3.420885009765625,0.0011942947749048471,-0.0028825809713453054,0.0017788028344511986
1772699700410842000,3.430842041015625,-0.0012779176468029618,0.00037712836638092995,0.0018701492808759212
1772699700420799000,3.440799072265625,-0.0002150402870029211,-0.0011586369946599007,0.0014429348520934582
1772699700430756000,3.450756103515625,-0.00014206976629793644,-0.000532261561602354,-0.0015059832949191332
1772699700440713200,3.460713134765625,-0.00014309282414615154,0.0010146270506083965,-0.00009361328557133675
1772699700450670300,3.47067041015625,-0.00043098069727420807,-0.0011859429068863392,0.001307209488004446
1772699700460627200,3.480627197265625,0.0006960299797356129,-0.00009160954505205154,0.0015831333585083485
1772699700470584000,3.490583984375,0.0018459830898791552,0.0014948351308703423,0.00004435889422893524
1772699700480541200,3.500541259765625,-0.00039728754200041294,0.00037964433431625366,0.0019842246547341347
1772699700490498000,3.510498046875,-0.0018353944178670645,0.0016196118667721748,-0.0034696629736572504
1772699700500454100,3.5204541015625,0.0007278746925294399,-0.00029017776250839233,-0.0017281165346503258
1772699700510411000,3.530410888671875,-0.002011452801525593,0.0013191704638302326,-0.0006681785453110933
1772699700520368000,3.5403681640625,-0.0005286566447466612,-0.00007259100675582886,-0.0016075791791081429
1772699700530325200,3.5503251953125,-0.001554239890538156,-0.001337059773504734,0.0014033904299139977
1772699700540282000,3.5602822265625,-0.0001329728402197361,0.000930562149733305,0.0013686143793165684
1772699700550239000,3.570239013671875,0.000040665268898010254,-0.00013470230624079704,-0.0010066588874906301
1772699700560196000,3.580196044921875,-0.0011519989930093288,0.003253045491874218,0.0016777939163148403
1772699700570153200,3.5901533203125,-0.0027786577120423317,-0.0012516914866864681,0.002029597759246826
1772699700580110000,3.600110107421875,0.00030841422267258167,-0.0000962703488767147,-0.0005453452467918396
1772699700590067200,3.610067138671875,-0.0005187636706978083,0.000764729455113411,0.0012943665497004986
1772699700600024300,3.6200244140625,-0.001951371319591999,0.00032848725095391273,0.00101558119058609
1772699700609981200,3.629981201171875,-0.001784657477401197,0.0017538107931613922,0.00045631732791662216
1772699700619938000,3.63993798828125,0.0021359126549214125,0.000363378319889307,0.003392839338630438
1772699700629895200,3.649895263671875,0.0027271343860775232,0.00031464267522096634,-0.00026234937831759453
1772699700639852000,3.65985205078125,-0.001421973924152553,-0.001125396229326725,-0.00265197129920125
1772699700649808100,3.66980810546875,-0.0024606066290289164,-0.000529114156961441,0.002370217815041542
1772699700659765200,3.67976513671875,0.0023945767898112535,-0.0035536326467990875,0.0003144722431898117
1772699700669722000,3.68972216796875,0.000429696636274457,-0.0008571818470954895,-0.00013533607125282288
1772699700679679200,3.69967919921875,-0.0009020381839945912,0.0027216444723308086,-0.0015214616432785988
1772699700689636400,3.70963623046875,-0.00021574157290160656,0.0035988898016512394,-0.00037337280809879303
1772699700699593000,3.719593017578125,-0.0002554538659751415,0.0005058003589510918,-0.00043526338413357735
1772699700709550000,3.729550048828125,-0.001012057880870998,0.0013779853470623493,0.0011964552104473114
1772699700719507200,3.739507080078125,-0.0006006569601595402,0.001210094429552555,0.0003715241327881813
1772699700729464000,3.749464111328125,-0.0013615221250802279,-0.0031455052085220814,0.0010434393770992756
1772699700739421200,3.759421142578125,-0.0016151536256074905,-0.0021881400607526302,-0.0006081191822886467
1772699700749378600,3.769378662109375,-0.00009848340414464474,0.0004760865122079849,-0.0006648444104939699
1772699700759335200,3.779335205078125,-0.0016442424384877086,0.0021563535556197166,0.0011567752808332443
1772699700769292300,3.789292236328125,0.004103658255189657,-0.002319088438525796,0.003949631936848164
1772699700779249400,3.79924951171875,0.000670774606987834,-0.0014283298514783382,0.002576380968093872
1772699700789206300,3.809206298828125,-0.001304758246988058,0.00010511837899684906,-0.0012551089748740196
1772699700799162400,3.819162353515625,-0.0006767063168808818,-0.0010746107436716557,0.0028730323538184166
1772699700809119500,3.829119384765625,-0.00032277218997478485,0.0015661795623600483,-0.0009704416152089834
1772699700819076400,3.839076416015625,0.0011670275125652552,-0.0001333826221525669,-0.003380503272637725
1772699700829033500,3.849033447265625,0.0005342604126781225,0.001464247703552246,-0.002777563640847802
1772699700838990300,3.858990234375,-0.001879718853160739,0.0015777810476720333,-0.00027123698964715004
1772699700848947200,3.868947265625,0.0006468219216912985,0.0012502125464379787,-0.0027501070871949196
1772699700858904300,3.878904296875,-0.0004069886635988951,-0.0021662109065800905,0.0033684521913528442
1772699700868861400,3.888861328125,0.0005834409967064857,-0.00046658143401145935,-0.0008127111941576004
1772699700878818300,3.898818359375,-0.00008698017336428165,0.00048816949129104614,-0.0015178483445197344
1772699700888775400,3.908775390625,0.0017998693510890007,-0.0016988185234367847,-0.0006970621179789305
1772699700898732500,3.918732666015625,-0.0003159854095429182,0.000749688595533371,0.0015092147514224052
1772699700908689200,3.928689208984375,0.0008635285776108503,0.0006042802706360817,-0.0009158595930784941
1772699700918646300,3.938646240234375,0.0006396824028342962,0.0012475578114390373,0.0004023783840239048
1772699700928603400,3.948603271484375,-0.0020455829799175262,0.0015407721512019634,-0.002309784758836031
1772699700938559200,3.958559326171875,0.002928059780970216,-0.0023371337447315454,-0.0008220786694437265
1772699700948516400,3.968516357421875,0.001740289619192481,0.0004954044707119465,-0.003971266560256481
1772699700958473500,3.978473388671875,-0.0015307386638596654,0.0011251014657318592,-0.0007029871921986341
1772699700968430300,3.988430419921875,-0.0016194218769669533,0.0015610610134899616,0.0011167507618665695
1772699700978387500,3.998387451171875,0.0009248517453670502,0.0026843687519431114,-0.0009504077024757862
1772699700988344300,4.00834423828125,-0.00031218654476106167,-0.001284806989133358,0.0011968989856541157
1772699700998301200,4.01830126953125,0.0010139322839677334,0.0005418104119598866,0.0011837035417556763
1772699701008258300,4.02825830078125,-0.0012915661791339517,0.0016789799556136131,-0.0013867795933037996
1772699701018215400,4.03821533203125,0.00016238167881965637,0.0013155164197087288,-0.002632660325616598
1772699701028172500,4.048172607421875,0.0002262976486235857,-0.0017889305017888546,0.0035956744104623795
1772699701038129400,4.05812939453125,0.0011223885230720043,-0.0007226630114018917,0.0005056052468717098
1772699701048086500,4.06808642578125,0.000279764411970973,-0.00006646011024713516,0.0009064106270670891
1772699701058043400,4.07804345703125,-0.002333734417334199,-0.001286087092012167,0.0008054706268012524
1772699701068000300,4.088000244140625,0.0012847024481743574,-0.001329763326793909,-0.000832107150927186
1772699701077957400,4.097957275390625,-0.0008287261007353663,0.0014155646786093712,0.0002711033448576927
1772699701087914500,4.10791455078125,-0.0014849290018901229,0.0002174084074795246,-0.0039550671353936195
1772699701097870300,4.117870361328125,-0.0003122515045106411,0.001111161895096302,0.002498894464224577
1772699701107827500,4.127827392578125,0.00047923997044563293,-0.0013296250253915787,0.00013374118134379387
1772699701117784300,4.137784423828125,0.0009664003737270832,0.0020172037184238434,0.0010190242901444435
1772699701127741400,4.147741455078125,-0.0020637442357838154,-0.0013719354756176472,-0.001334677217528224
1772699701137698300,4.1576982421875,0.0007914877496659756,-0.0005883262492716312,-0.0011074678041040897
1772699701147655400,4.167655517578125,-0.0017829900607466698,-0.0007547736167907715,0.001375929918140173
1772699701157612300,4.1776123046875,0.0012522060424089432,-0.0008170176297426224,0.0012906179763376713
1772699701167569400,4.1875693359375,0.00276035419665277,0.0007848734967410564,0.00019499333575367928
1772699701177526500,4.197526611328125,0.00044419639743864536,0.0010468363761901855,0.001793854869902134
1772699701187483400,4.2074833984375,0.0008774925954639912,0.0006385738961398602,-0.002416336676105857
1772699701197440500,4.2174404296875,0.0011274409480392933,-0.00014379573985934258,0.0018880409188568592
1772699701207397400,4.2273974609375,-0.002470755949616432,-0.000062569510191679,-0.002186062978580594
1772699701217354200,4.237354248046875,-0.0004915702156722546,-0.0010017375461757183,0.0009799306280910969
1772699701227311400,4.247311279296875,0.00014306115917861462,-0.0001434008590877056,-0.0036475779488682747
1772699701237268500,4.2572685546875,-0.000014626653864979744,-0.00041012465953826904,0.0005387277342379093
1772699701247224300,4.267224365234375,0.0006309235468506813,-0.00019147945567965508,0.000044445041567087173
1772699701257181400,4.277181396484375,0.00497492216527462,-0.0007817898876965046,0.0026523410342633724
1772699701267138600,4.287138671875,-0.0005394192412495613,-0.0006198696792125702,-0.00030536577105522156
1772699701277095400,4.297095458984375,0.0006669566500931978,-0.0005921688862144947,0.0018030684441328049
1772699701287052300,4.30705224609375,-0.0002710085827857256,-0.0020180251449346542,0.0005689598619937897
1772699701297009400,4.317009521484375,-0.0005854014307260513,0.0008136839605867863,-0.0009557094890624285
1772699701306966300,4.32696630859375,0.0006835947278887033,-0.002975461771711707,0.0008512455970048904
1772699701316923400,4.33692333984375,-0.0016295909881591797,-0.0010069990530610085,-0.0017930783797055483
1772699701326880500,4.346880615234375,0.00045939255505800247,-0.00038568349555134773,-0.0011198313441127539
1772699701336837400,4.35683740234375,0.0016557106282562017,0.000758705660700798,0.0010816194117069244
1772699701346794200,4.366794189453125,-0.0004487191326916218,0.0009123701602220535,0.0018179835751652718
1772699701356751400,4.37675146484375,0.0010275463573634624,-0.0012475699186325073,0.000008387025445699692
1772699701366708200,4.386708251953125,0.0002485716249793768,-0.0017794030718505383,-0.00116340396925807
1772699701376665300,4.396665283203125,0.0018933052197098732,-0.0001261504366993904,-0.0015785982832312584
1772699701386622500,4.40662255859375,-0.0009621361969038844,-0.00026516709476709366,0.0021740617230534554
1772699701396578300,4.416578369140625,-0.0007695694221183658,0.002050209790468216,0.002960505895316601
1772699701406535400,4.426535400390625,0.00027172663249075413,0.0017348909750580788,0.001026784535497427
1772699701416492500,4.436492431640625,-0.0018233736045658588,-0.0010280301794409752,-0.0017755080480128527
1772699701426449400,4.446449462890625,0.00089225172996521,-0.0002788831479847431,0.0010445131920278072
1772699701436406300,4.45640625,0.0007584267295897007,-0.0004574377089738846,0.0024529006332159042
1772699701446363400,4.46636328125,0.00008358177728950977,0.0003721369430422783,0.0015490236692130566
1772699701456320300,4.4763203125,0.0030719987116754055,-0.001609371043741703,0.0031513897702097893
1772699701466277400,4.48627734375,0.00025703758001327515,-0.0023284247145056725,-0.0014814450405538082
1772699701476234500,4.496234375,0.0006592306308448315,0.0007311110384762287,-0.0003394712693989277
1772699701486191400,4.50619140625,-0.0010659650433808565,0.00197054585441947,-0.001720586558803916
1772699701496148200,4.516148193359375,0.0007146887946873903,-0.003273069392889738,0.0024321340024471283
1772699701506105300,4.526105224609375,0.0006409191992133856,-0.0011526602320373058,0.000883505679666996
1772699701516062200,4.536062255859375,0.0005333074368536472,-0.001059974543750286,-0.0013012185227125883
1772699701526019300,4.546019287109375,0.0010464985389262438,-0.0009174952283501625,0.00021811481565237045
1772699701535976400,4.5559765625,-0.0011620301520451903,0.0007721725851297379,0.001145003829151392
1772699701545932300,4.565932373046875,0.0005679591558873653,-0.001990857068449259,0.003456094767898321
1772699701555889400,4.575889404296875,-0.00047233281657099724,-0.000275628175586462,0.0013129296712577343
1772699701565846500,4.585846435546875,0.0012046596966683865,-0.00021490780636668205,-0.002400582190603018
1772699701575803400,4.595803466796875,0.00025808042846620083,-0.000718983355909586,0.0022286144085228443
1772699701585760300,4.60576025390625,-0.0004045139066874981,0.0015961024910211563,-0.0006713015027344227
1772699701595717400,4.61571728515625,0.0009714702609926462,-0.0015838835388422012,0.0022663958370685577
1772699701605674200,4.62567431640625,-0.0001646340824663639,0.00046248966827988625,0.0023050112649798393
1772699701615631400,4.63563134765625,0.001749980030581355,-0.00034505128860473633,0.0005573984235525131
1772699701625588500,4.64558837890625,-0.0009818905964493752,-0.0007605045102536678,0.0004362245090305805
1772699701635545600,4.655545654296875,-0.0017981035634875298,-0.0013534296303987503,-0.0004878225736320019
1772699701645502200,4.665502197265625,-0.0027669614646583796,-0.0006098747253417969,-0.00018235808238387108
1772699701655459300,4.675459228515625,0.0010451339185237885,0.0016188179142773151,-0.0028225581627339125
1772699701665416400,4.68541650390625,-0.00043531740084290504,-0.001257662195712328,-0.0008531506173312664
1772699701675373300,4.695373291015625,0.001855642069131136,0.0006476100534200668,0.001228508073836565
1772699701685330400,4.705330322265625,-0.0008141767466440797,0.002369876019656658,0.0012247799895703793
1772699701695286300,4.715286376953125,0.0011950219050049782,-0.0029542194679379463,0.00112068559974432
1772699701705243400,4.725243408203125,-0.0018500364385545254,0.00038538454100489616,-0.0026404969394207
1772699701715200500,4.735200439453125,-0.0004166141152381897,-0.0009487150236964226,-0.0006018718704581261
1772699701725157400,4.745157470703125,0.0008345390670001507,-0.002699210774153471,0.0010058782063424587
1772699701735114200,4.7551142578125,-0.0005176973063498735,-0.0006587142124772072,0.001068980898708105
1772699701745071400,4.7650712890625,0.0016956559848040342,-0.0021349042654037476,-0.0025164326652884483
1772699701755028000,4.775028076171875,-0.001628573052585125,0.0008583595044910908,-0.0027235052548348904
1772699701764985000,4.784985107421875,0.0014859940856695175,-0.0020202514715492725,-0.0007511682342737913
1772699701774942200,4.794942138671875,-0.002291375072672963,0.0016447552479803562,-0.001657100161537528
1772699701784899300,4.8048994140625,0.0014711387921124697,-0.00026419851928949356,0.0021312464959919453
1772699701794856200,4.814856201171875,-0.0007000513141974807,-0.0007597114890813828,0.0005561225116252899
1772699701804813000,4.82481298828125,0.0000437695998698473,0.0015188893303275108,0.00003494182601571083
1772699701814770200,4.834770263671875,0.0016934555023908615,-0.0011822301894426346,0.000369352288544178
1772699701824727000,4.84472705078125,0.0006939712911844254,0.000520861241966486,-0.0015254870522767305
1772699701834684200,4.85468408203125,0.000746934674680233,-0.0002260175533592701,0.001007947139441967
1772699701844640000,4.864639892578125,0.000594601733610034,-0.0014548003673553467,0.00024894624948501587
1772699701854597000,4.87459716796875,0.0006350523326545954,-0.000023995060473680496,0.004378092475235462
1772699701864554200,4.88455419921875,0.0019330771174281836,0.0026735207065939903,0.00018121721222996712
1772699701874511400,4.894511474609375,0.00033415411598980427,-0.0017784833908081055,0.0010639261454343796
1772699701884468000,4.904468017578125,0.002581862034276128,0.001512650866061449,-0.000992300221696496
1772699701894425000,4.914425048828125,0.00015336833894252777,0.000770903192460537,0.0015476210974156857
1772699701904382200,4.92438232421875,-0.0010487826075404882,0.0012105912901461124,0.00028208689764142036
1772699701914339000,4.934339111328125,-0.0007250432390719652,-0.0012366189621388912,0.0008677779696881771
1772699701924296200,4.944296142578125,0.0009942934848368168,-0.00008240481838583946,-0.004007937386631966
1772699701934253300,4.95425341796875,0.001838124357163906,-0.0014147465117275715,0.0002780389040708542
1772699701944210200,4.964210205078125,-0.0009459442226216197,0.0017051463946700096,0.0009193280711770058
1772699701954167000,4.9741669921875,0.00023402157239615917,0.0005470728501677513,0.0005218787118792534
1772699701964124200,4.984124267578125,-0.0005260445177555084,-0.0033866821322590113,0.0014771544374525547
1772699701974081000,4.9940810546875,-0.003010412212461233,0.0006078379228711128,-0.003575159003958106
1772699701984038100,5.0040380859375,0.002670642687007785,-0.002871581818908453,0.00013995077461004257
1772699701993995300,5.013995361328125,-0.002441314049065113,0.00038774777203798294,0.001419764943420887
1772699702003951000,5.023951171875,-0.0007334287511184812,-0.0022091008722782135,0.002495415974408388
1772699702013908200,5.033908203125,-0.0013115359470248222,-0.0024058797862380743,0.00005098944529891014
1772699702023865300,5.043865234375,-0.0012441579019650817,0.00020934408530592918,-0.0006017512641847134
1772699702033822000,5.053822021484375,0.0005708592943847179,-0.00028084032237529755,0.000054150354117155075
1772699702043779000,5.063779052734375,0.0009271902963519096,-0.000055270735174417496,-0.0010276255197823048
1772699702053736200,5.073736083984375,-0.0004820232279598713,-0.001760873943567276,0.0005405661650002003
1772699702063693000,5.083693115234375,0.00029695150442421436,0.000898292288184166,-0.0005372152663767338
1772699702073650200,5.093650146484375,-0.0013856199802830815,0.0015138192102313042,0.0020960653200745583
1772699702083607300,5.103607177734375,-0.001027158461511135,0.002623558510094881,-0.0007375380955636501
1772699702093564200,5.113564208984375,0.0006167436949908733,-0.001069351565092802,0.001298319548368454
1772699702103521000,5.12352099609375,0.00019623059779405594,-0.000049626920372247696,-0.00010436773300170898
1772699702113478100,5.13347802734375,0.0003146147355437279,-0.0014849575236439705,-0.00013658450916409492
1772699702123435000,5.14343505859375,0.00017373356968164444,0.001000037882477045,-0.0025675178039819
1772699702133392100,5.15339208984375,-0.0005879963282495737,0.00047406554222106934,-0.00008794479072093964
1772699702143349200,5.163349365234375,0.00245759473182261,0.000598435290157795,0.0001485440880060196
1772699702153305000,5.17330517578125,-0.003590760752558708,0.00033292779698967934,-0.004517863038927317
1772699702163262200,5.18326220703125,0.000351516529917717,-0.0032847104594111443,-0.0023982529528439045
1772699702173219300,5.19321923828125,-0.00018941517919301987,0.0007457328028976917,0.0007034465670585632
1772699702183176000,5.203176025390625,0.001583717530593276,0.0005182991735637188,-0.0006249379366636276
1772699702193133000,5.213133056640625,-0.0005525525193661451,-0.0026143647264689207,-0.0017824741080403328
1772699702203090200,5.223090087890625,0.0009638515766710043,0.0015625371597707272,-0.0023915390484035015
1772699702213047000,5.233047119140625,-0.001277888542972505,-0.00226931762881577,0.002222056034952402
1772699702223004200,5.243004150390625,-0.00013113138265907764,0.0018596476875245571,-0.0008003655821084976
1772699702232961300,5.252961181640625,-0.0010791707318276167,0.000004586298018693924,0.000608811154961586
1772699702242918000,5.26291796875,0.000208201352506876,0.00007196422666311264,0.0002511488273739815
1772699702252875000,5.272875,0.0012077323626726866,-0.0003472566604614258,0.0010472256690263748
1772699702262832000,5.28283203125,-0.0001009451225399971,0.0001933649182319641,-0.0016881069168448448
1772699702272789200,5.292789306640625,-0.0001690206117928028,-0.0013944818638265133,-0.0035666432231664658
1772699702282746000,5.30274609375,-0.0006438621785491705,0.00014642300084233284,-0.0028832759708166122
1772699702292703200,5.312703125,0.000741275493055582,0.0011123837903141975,-0.000395182054489851
1772699702302659000,5.3226591796875,0.0006946702487766743,-0.0017079035751521587,0.003327650483697653
1772699702312616200,5.3326162109375,-0.0008809096179902554,0.00030759675428271294,0.001519903540611267
1772699702322573300,5.3425732421875,-0.001204217318445444,-0.0004074620082974434,-0.0003554942086338997
1772699702332530000,5.352530029296875,0.0014037610962986946,0.00024088332429528236,0.00019150087609887123
1772699702342487000,5.362487060546875,-0.0018966945353895426,0.0011785821989178658,0.0006293244659900665
1772699702352444200,5.372444091796875,0.0015518355648964643,0.001136869192123413,0.00002498738467693329
1772699702362401000,5.382401123046875,0.00110469083301723,-0.0013385391794145107,-0.0005246889777481556
1772699702372358100,5.392358154296875,0.0005194437690079212,0.00026845652610063553,-0.0014535172376781702
1772699702382315300,5.402315185546875,-0.0021828659810125828,-0.00014380086213350296,-0.0028777755796909332
1772699702392272100,5.412272216796875,0.00013238238170742989,-0.000047062989324331284,0.00024683261290192604
1772699702402229000,5.42222900390625,-0.0014213058166205883,-0.00017303042113780975,0.0023190383799374104
1772699702412186000,5.43218603515625,-0.0010390131501480937,-0.0010336493141949177,0.0027001742273569107
1772699702422143200,5.442143310546875,0.0006768614985048771,0.0012867627665400505,0.0011771125718951225
1772699702432100000,5.45210009765625,-0.0010062343208119273,0.0000070212408900260925,0.0006723166443407536
1772699702442057200,5.46205712890625,0.0022422897163778543,0.0012123677879571915,-0.002891791984438896
1772699702452013000,5.472012939453125,0.001512229209765792,-0.0018449812196195126,0.00039848778396844864
1772699702461970200,5.48197021484375,-0.00012881052680313587,0.0000698319636285305,0.0009127440862357616
1772699702471927000,5.491927001953125,0.00091979606077075,0.000471518374979496,-0.0016290831845253706
1772699702481884200,5.50188427734375,0.0019331290386617184,-0.0003479365259408951,-0.004967089276760817
1772699702491841000,5.511841064453125,0.0006202380172908306,0.00005765724927186966,0.0010627810843288898
1772699702501798100,5.521798095703125,-0.0002210545353591442,0.0025317338295280933,0.0005067130550742149
1772699702511755300,5.53175537109375,-0.002235621912404895,0.001128985546529293,0.0002687680535018444
1772699702521712000,5.541712158203125,0.0005162225570529699,-0.0003165784291923046,-0.0011405767872929573
1772699702531669200,5.551669189453125,-0.0006133971037343144,-0.00014966540038585663,-0.0008454788476228714
1772699702541626000,5.561626220703125,0.00037170620635151863,-0.0012396969832479954,-0.0005448078736662865
1772699702551583000,5.5715830078125,-0.0012139701284468174,-0.0005798586644232273,0.0034096366725862026
1772699702561540000,5.5815400390625,0.0041624195873737335,-0.0018318104557693005,0.0032141609117388725
1772699702571497200,5.591497314453125,-0.0017457138746976852,-0.001007199753075838,0.0041128285229206085
1772699702581454000,5.6014541015625,0.0015803079586476088,0.0016032303683459759,-0.00037433160468935966
1772699702591411200,5.6114111328125,0.0005001360550522804,-0.00021926593035459518,0.0017668195068836212
1772699702601368000,5.6213681640625,0.0005299632903188467,-0.0012656217440962791,-0.0018108710646629333
1772699702611324200,5.63132421875,0.002092726295813918,0.0021293913014233112,-0.002593901939690113
1772699702621281000,5.641281005859375,0.0005933667998760939,0.0015826444141566753,-0.002453819615766406
1772699702631238100,5.651238037109375,0.001125846989452839,-0.0011822623200714588,0.00023995107039809227
1772699702641195000,5.661195068359375,0.002699508797377348,-0.0006959689781069756,0.0011994880624115467
1772699702651152100,5.671152099609375,0.00005523255094885826,-0.0026019078213721514,-0.00011351238936185837
1772699702661109200,5.681109130859375,0.00028666132129728794,-0.0005898899398744106,-0.0008781061042100191
1772699702671066000,5.691066162109375,-0.0012251969892531633,-0.00010876823216676712,0.0007460438646376133
1772699702681023200,5.701023193359375,0.0003591175191104412,0.0008747372776269913,0.0037961620837450027
1772699702690980000,5.71097998046875,-0.0003054917324334383,-0.0001665414310991764,0.0020033144392073154
1772699702700937000,5.72093701171875,0.0018213088624179363,0.001864118967205286,-0.001558663323521614
1772699702710894000,5.73089404296875,-0.0009214315796270967,0.0003933953121304512,-0.0012590419501066208
1772699702720851200,5.740851318359375,0.0026591885834932327,-0.0013387249782681465,-0.000420945230871439
1772699702730808000,5.75080810546875,0.0022663427516818047,0.0006695501506328583,-0.0009591311682015657
1772699702740765200,5.76076513671875,-0.0001536714844405651,0.002076498232781887,0.0023578358814120293
1772699702750722000,5.77072216796875,0.0004982247482985258,0.0027297944761812687,0.003306930884718895
1772699702760678400,5.780678466796875,-0.0023929027374833822,-0.0001711864024400711,-0.0011967408936470747
1772699702770635300,5.79063525390625,-0.0010798594448715448,0.0005931342020630836,0.0028569940477609634
1772699702780592000,5.800592041015625,0.00013454188592731953,-0.00015148567035794258,-0.0017806345131248236
1772699702790549200,5.81054931640625,0.0005666594952344894,-0.0001966618001461029,-0.00031407736241817474
1772699702800506400,5.82050634765625,-0.0019415055867284536,-0.0013937526382505894,-0.00035269325599074364
1772699702810463200,5.830463134765625,-0.00007716752588748932,0.0028090141713619232,-0.0005667568184435368
1772699702820420400,5.84042041015625,0.001904490403831005,-0.00026960019022226334,-0.000020009465515613556
1772699702830377200,5.850377197265625,0.000811474397778511,0.0009407196193933487,0.0013859267346560955
1772699702840334000,5.860333984375,0.00044395821169018745,-0.00035091349855065346,-0.00079120765440166
1772699702850291200,5.870291259765625,0.00044193235225975513,0.000662642065435648,0.003298745024949312
1772699702860248300,5.880248291015625,-0.0019826095085591078,-0.0003011561930179596,0.0009346571750938892
1772699702870205200,5.890205078125,0.000638648634776473,0.0011113537475466728,0.0005033873021602631
1772699702880162300,5.900162353515625,-0.0003195567987859249,0.002149453852325678,-0.0001783818006515503
1772699702890119400,5.910119384765625,-0.0007186890579760075,0.00040317000821232796,-0.00004185410216450691
1772699702900076000,5.920075927734375,0.0026760422624647617,-0.0008652936667203903,-0.0030863797292113304
1772699702910032400,5.930032470703125,0.0003611666616052389,0.00034125708043575287,-0.003785552456974983
1772699702919989200,5.9399892578125,0.0006101722829043865,0.0010035852901637554,0.0011202562600374222
1772699702929946000,5.949946044921875,-0.0005825504194945097,0.0007862281054258347,-0.0017582632135599852
1772699702939903200,5.9599033203125,-0.0007197032682597637,0.0006014048121869564,-0.0020871637389063835
1772699702949860400,5.9698603515625,0.0016126660630106926,-0.002322557382285595,0.00033026980236172676
1772699702959817200,5.979817138671875,0.0003910739906132221,-0.00017818016931414604,-0.0007544355466961861
1772699702969774300,5.9897744140625,0.0015822765417397022,0.0002824668772518635,-0.0006400812417268753
1772699702979731200,5.999731201171875,-0.0029698647558689117,-0.0010781418532133102,-0.0010488764382898808
1772699702989688000,6.00968798828125,-0.0003059385344386101,0.0020447433926165104,0.00044450070708990097
1772699702999645200,6.019645263671875,-0.00034721754491329193,-0.0008626291528344154,-0.0017994786612689495
1772699703009602300,6.029602294921875,-0.00040550902485847473,-0.001365206204354763,0.00007433397695422173
1772699703019559200,6.03955908203125,0.00021314341574907303,-0.0008629336953163147,0.0017896760255098343
1772699703029516300,6.049516357421875,0.0008570514619350433,-0.0010296246036887169,0.0009617935866117477
1772699703039473400,6.059473388671875,0.0014626544434577227,-0.00015850458294153214,0.0013026781380176544
1772699703049430000,6.069429931640625,-0.00006254715844988823,-0.0021537868306040764,0.0012630377896130085
1772699703059387100,6.07938720703125,0.001054116291925311,-0.000007811468094587326,-0.00027706846594810486
1772699703069343200,6.08934326171875,-0.00009286566637456417,-0.001879516988992691,-0.0003139534965157509
1772699703079300000,6.099300048828125,-0.0004899429623037577,0.000022512394934892654,0.0033004884608089924
1772699703089257200,6.10925732421875,0.000096859410405159,-0.00012819888070225716,0.0013861996121704578
1772699703099214300,6.11921435546875,-0.0010517619084566832,0.0006089643575251102,0.0011883266270160675
1772699703109171200,6.129171142578125,0.0014421744272112846,-0.0020744423381984234,-0.0000647716224193573
1772699703119128300,6.13912841796875,0.0005153941456228495,0.000543711706995964,0.0024037123657763004
1772699703129085200,6.149085205078125,0.0014534462243318558,0.0025803493335843086,-0.000717496732249856
1772699703139042000,6.1590419921875,-0.0009386048186570406,-0.000030613504350185394,-0.001899141352623701
1772699703148999200,6.168999267578125,-0.0019761305302381516,-0.0012644021771848202,-0.0015512083191424608
1772699703158956300,6.178956298828125,0.002060689264908433,-0.0009328387677669525,-0.00006729504093527794
1772699703168913400,6.188913330078125,-0.000710558844730258,-0.0015693181194365025,0.0010110060684382915
1772699703178870300,6.198870361328125,0.0006969217211008072,0.00017292192205786705,-0.0011964880395680666
1772699703188827400,6.208827392578125,0.00032785418443381786,-0.002133952919393778,0.0054419273510575294
1772699703198784300,6.2187841796875,-0.0012801624834537506,-0.0006015701219439507,-0.0003733518533408642
1772699703208741000,6.2287412109375,0.00022616051137447357,0.0026137130334973335,-0.0013552424497902393
1772699703218697200,6.238697265625,-0.0006718575023114681,0.0008933111093938351,-0.0005632182583212852
1772699703228654000,6.248654052734375,0.0009019558783620596,0.0005453280173242092,-0.00030817557126283646
1772699703238611200,6.258611083984375,-0.0016096713952720165,0.0011682412587106228,-0.00032522017136216164
1772699703248568300,6.268568359375,0.0010047005489468575,0.0003243740648031235,0.0023027905263006687
1772699703258525200,6.278525146484375,0.002016967860981822,-0.0004135877825319767,0.0020995913073420525
1772699703268482300,6.288482421875,0.00018573575653135777,0.000595747958868742,0.000023987144231796265
1772699703278439200,6.298439208984375,0.00019692117348313332,-0.00012490339577198029,0.001155564095824957
1772699703288396300,6.308396240234375,-0.00039094453677535057,-0.0017764507792890072,-0.00009733298793435097
1772699703298353200,6.318353271484375,-0.0023395796306431293,-0.0003197016194462776,-0.0008153212256729603
1772699703308310300,6.328310302734375,0.0021380640100687742,-0.001214403659105301,0.00033096037805080414
1772699703318267400,6.338267333984375,-0.0026929101441055536,0.001239965669810772,0.0007054009474813938
1772699703328224300,6.348224365234375,-0.0005576831754297018,0.0007398459129035473,-0.0021706726402044296
1772699703338181400,6.358181396484375,-0.003032824955880642,-0.00039466051384806633,-0.0023986392188817263
1772699703348138200,6.36813818359375,0.0006082416512072086,0.001014243345707655,0.0012422194704413414
1772699703358095000,6.37809521484375,0.000049244146794080734,0.0011601843871176243,0.004287011455744505
1772699703368052200,6.38805224609375,-0.00025366107001900673,-0.003387186210602522,0.0016347989439964294
1772699703378008300,6.39800830078125,0.000872589647769928,-0.0011906111612915993,0.000672598835080862
1772699703387965200,6.407965087890625,0.00010671233758330345,0.000470663420855999,-0.002359735546633601
1772699703397922300,6.41792236328125,0.0019645332358777523,0.0017684218473732471,0.00022938987240195274
1772699703407879400,6.42787939453125,0.002861865097656846,0.0022827829234302044,-0.0010682521387934685
1772699703417836300,6.437836181640625,-0.002550743520259857,-0.000009932555258274078,0.0008766544051468372
1772699703427793200,6.447793212890625,0.0019338454585522413,0.0000468534417450428,-0.002686305670067668
1772699703437750300,6.457750244140625,-0.00006006332114338875,-0.00014223111793398857,0.001945197582244873
1772699703447707100,6.46770703125,0.0009751473553478718,-0.0018718796782195568,-0.0011233121622353792
1772699703457664300,6.477664306640625,-0.0008507159072905779,-0.00014961324632167816,-0.0014849696308374405
1772699703467621400,6.487621337890625,0.002103575970977545,-0.0013331281952559948,-0.002938315737992525
1772699703477578200,6.497578125,-0.000041333725675940514,0.00044186878949403763,-0.0003193630836904049
1772699703487535400,6.507535400390625,0.000368127366527915,0.001171264797449112,0.0014106486923992634
1772699703497492200,6.5174921875,0.001828871201723814,0.0010058828629553318,0.0006681592203676701
1772699703507449000,6.527448974609375,0.0004142823163419962,-0.0004112054593861103,-0.000045233406126499176
1772699703517406200,6.53740625,-0.0004238144028931856,0.0002324804663658142,-0.0015038468409329653
1772699703527363300,6.54736328125,0.0009949994273483753,-0.0018118247389793396,-0.0021809914615005255
1772699703537319200,6.557319091796875,0.0010972646996378899,-0.0013982360251247883,-0.0010440880432724953
1772699703547276300,6.5672763671875,0.00026433239690959454,0.00018660351634025574,0.0012004105374217033
1772699703557233400,6.5772333984375,0.0009333183988928795,-0.0003034179098904133,0.0009045330807566643
1772699703567190300,6.587190185546875,-0.001437924336642027,0.00303101958706975,-0.00009524263441562653
1772699703577147100,6.597147216796875,-0.00034363148733973503,-0.0008460101671516895,-0.00010909093543887138
1772699703587104300,6.607104248046875,0.0020093745552003384,-0.0018321089446544647,0.0021347273141145706
1772699703597061000,6.61706103515625,-0.00039785681292414665,0.002420159988105297,0.00038875872269272804
1772699703607018200,6.627018310546875,-0.0018120601307600737,0.0016796537674963474,0.00036537088453769684
1772699703616975400,6.636975341796875,0.0010180810932070017,0.001694567035883665,0.0004069162532687187
1772699703626932200,6.64693212890625,-0.00046106032095849514,-0.001059182919561863,-0.002459655748680234
1772699703636889300,6.656889404296875,-0.0011353727895766497,-0.0005531818605959415,0.0017220396548509598
1772699703646846200,6.66684619140625,0.0007216690573841333,-0.000496922992169857,-0.0017720558680593967
1772699703656803300,6.67680322265625,-0.0027974320109933615,-0.00005696853622794151,-0.0018397001549601555
1772699703666760200,6.68676025390625,-0.0018290752777829766,-0.00236541498452425,0.0025607547722756863
1772699703676717300,6.69671728515625,-0.0021105713676661253,0.0007512825541198254,-0.0005250498652458191
1772699703686673200,6.706673095703125,0.0009331663604825735,0.0001733577810227871,-0.0005787303671240807
1772699703696630300,6.71663037109375,0.0005976082757115364,0.0006599174812436104,0.002532374579459429
1772699703706587400,6.72658740234375,-0.00011898484081029892,-0.0010618646629154682,0.00006961263716220856
1772699703716544300,6.736544189453125,0.0006554622668772936,-0.0013532144948840141,0.0003279391676187515
1772699703726501000,6.746501220703125,-0.001970132114365697,0.00005106814205646515,0.00003745686262845993
1772699703736458200,6.756458251953125,-0.0014577398542314768,0.0002031349577009678,0.0012318845838308334
1772699703746415000,6.7664150390625,0.0011870292946696281,-0.0007089958526194096,0.0011764224618673325
1772699703756372000,6.7763720703125,-0.0010497596813365817,0.001811952330172062,0.001016632653772831
1772699703766329000,6.7863291015625,-0.00048694945871829987,-0.0007206453010439873,0.0008766171522438526
1772699703776286000,6.796285888671875,-0.00048082415014505386,0.0005720527842640877,-0.00037932954728603363
1772699703786243000,6.8062431640625,0.0020129485055804253,-0.001788693480193615,-0.000012599863111972809
1772699703796200000,6.816199951171875,-0.00022570486180484295,-0.00004938291385769844,-0.000909286318346858
1772699703806157000,6.826156982421875,-0.00007368531078100204,0.001551769208163023,0.0023029339499771595
1772699703816114000,6.836114013671875,-0.0020622676238417625,0.002400518860667944,-0.003987186122685671
1772699703826071000,6.846071044921875,0.0006070116069167852,0.0012605208903551102,-0.0005559916608035564
1772699703836028200,6.856028076171875,-0.0001397386658936739,0.0014980752021074295,-0.00135254324413836
1772699703845984000,6.86598388671875,-0.001425097230821848,-0.0009443527087569237,-0.0015975728165358305
1772699703855941000,6.875941162109375,0.0013872007839381695,0.002438128460198641,-0.00022577866911888123
1772699703865898000,6.88589794921875,0.0010174536146223545,-0.00012195529416203499,0.001013218890875578
1772699703875854800,6.895854736328125,-0.0008829780854284763,-0.0006095799617469311,0.0017605018801987171
1772699703885812000,6.90581201171875,0.0016558507923036814,-0.0033294707536697388,0.0025833132676780224
1772699703895769000,6.91576904296875,0.0016294855158776045,-0.0009720404632389545,0.0017691846005618572
1772699703905726000,6.925725830078125,0.00003774021752178669,0.0016708769835531712,-0.0010259540285915136
1772699703915683000,6.93568310546875,0.0004752976819872856,0.00048763444647192955,0.0022350866347551346
1772699703925640200,6.94564013671875,0.0004520965740084648,0.0004713931120932102,-0.0027395703364163637
1772699703935597000,6.95559716796875,-0.0011663064360618591,0.0017574341036379337,-0.0020607304759323597
1772699703945554000,6.965553955078125,-0.0011489801108837128,-0.0007424778304994106,-0.0036146161146461964
1772699703955511000,6.975510986328125,-0.0010107620619237423,-0.002219466958194971,0.002462717704474926
1772699703965468000,6.985468017578125,0.0005519664846360683,0.001366958487778902,-0.000553397461771965
1772699703975425000,6.995425048828125,0.0006046970374882221,-0.0013505308888852596,-0.002557692350819707
1772699703985382100,7.005382080078125,0.0012701509986072779,0.0006445497274398804,-0.00011480459943413734
1772699703995338000,7.015337890625,-0.0004324079491198063,-0.00029954081401228905,0.00017734430730342865
1772699704005295000,7.025295166015625,0.0010379431769251823,0.0005611246451735497,-0.0008527522440999746
1772699704015252200,7.035252197265625,0.0014712393749505281,-0.003404055954888463,0.002278858795762062
1772699704025208800,7.045208740234375,0.000357186421751976,0.0015723337419331074,-0.0020282347686588764
1772699704035166000,7.055166015625,-0.0008492254419252276,-0.0012085391208529472,0.0007435833103954792
1772699704045123000,7.065123046875,-0.00019063102081418037,-0.000332891009747982,-0.0028538373298943043
1772699704055080000,7.075079833984375,-0.0016079654451459646,-0.002263682894408703,-0.0007810988463461399
1772699704065037000,7.085037109375,-0.001411397592164576,0.0008420920930802822,-0.002506712917238474
1772699704074994200,7.094994140625,-0.0006292271427810192,0.00017656804993748665,-0.002734413370490074
1772699704084951000,7.104950927734375,-0.0022114766761660576,-0.003250656882300973,-0.0024325139820575714
1772699704094908000,7.114907958984375,-0.0014665905619040132,-0.0003384901210665703,-0.00008573615923523903
1772699704104865000,7.124864990234375,0.0010899160988628864,0.0003331592306494713,-0.00045015010982751846
1772699704114822000,7.13482177734375,-0.0010832232655957341,0.002276468090713024,-0.003911194391548634
1772699704124779000,7.144779052734375,-0.0010499476920813322,-0.003202999010682106,-0.0017549986951053143
1772699704134736100,7.154736083984375,0.00013302848674356937,0.0007579205557703972,0.0004692734219133854
1772699704144693000,7.16469287109375,0.0010529679711908102,0.0006764424033463001,-0.000513534527271986
1772699704154649000,7.174649169921875,-0.0018698512576520443,0.0016050864942371845,-0.0008474951609969139
1772699704164606200,7.184606201171875,0.0008547378238290548,0.0012839105911552906,0.00011594081297516823
1772699704174562800,7.194562744140625,-0.0012824489967897534,-0.0008524772711098194,0.0006400509737432003
1772699704184520000,7.20452001953125,0.0009168663527816534,0.0005460656248033047,0.002977528143674135
1772699704194477000,7.21447705078125,0.0014774617739021778,0.0010443427599966526,-0.0016654268838465214
1772699704204434000,7.224433837890625,0.0016234682407230139,-0.0006044548936188221,0.000546477735042572
1772699704214391000,7.23439111328125,-0.0010056042810902,-0.00040019070729613304,0.0013065440580248833
1772699704224348200,7.24434814453125,0.00043693813495337963,-0.00006904406473040581,0.0006300788372755051
1772699704234305000,7.254304931640625,-0.001584401004947722,0.0012002186849713326,0.0004330049268901348
1772699704244262000,7.264261962890625,0.0006551509723067284,0.0007357597351074219,-0.000355603639036417
1772699704254219000,7.274218994140625,0.0003603389486670494,-0.0007385662756860256,-0.0023934543132781982
1772699704264175900,7.28417578125,-0.0010109225986525416,-0.0009968928061425686,0.002091841772198677
1772699704274133000,7.294133056640625,-0.0015126621583476663,0.0005815625190734863,-0.0016088869888335466
1772699704284090000,7.304090087890625,-0.0009369507897645235,-0.00012684892863035202,0.0024158363230526447
1772699704294047200,7.314047119140625,-0.0007523937383666635,0.00008726958185434341,-0.00059087248519063
1772699704304003800,7.32400390625,0.001957247033715248,-0.0007702442817389965,-0.0022631327155977488
1772699704313960200,7.333960205078125,-0.0016667826566845179,0.0022452534176409245,0.00009536277502775192
1772699704323916800,7.343916748046875,-0.000586566049605608,0.000703886616975069,-0.0013578038197010756
1772699704333874000,7.3538740234375,-0.000053401337936520576,-0.0012455475516617298,0.0008459622040390968
1772699704343831000,7.3638310546875,0.003620198229327798,-0.0008129891939461231,-0.00004605855792760849
1772699704353788000,7.373787841796875,-0.0008826743578538299,-0.0020494950003921986,-0.0006109150126576424
1772699704363745000,7.3837451171875,-0.002168501727283001,-0.0006653554737567902,0.0011923322454094887
1772699704373702100,7.3937021484375,0.0003239505458623171,-0.0007290048524737358,-0.00019304407760500908
1772699704383659000,7.403658935546875,0.0003413709346204996,-0.00028878962621092796,0.002125671599060297
1772699704393616000,7.413615966796875,0.0005490975454449654,0.0001812586560845375,-0.001194491283968091
1772699704403573000,7.423572998046875,0.0007499037310481071,0.0015961392782628536,-0.0001416318118572235
1772699704413530000,7.433530029296875,-0.0031401757150888443,-0.00035862065851688385,-0.0010119529906660318
1772699704423487000,7.443487060546875,0.0007711721118539572,0.00028875982388854027,-0.0003899778239428997
1772699704433444000,7.453444091796875,-0.0009447026532143354,0.00041579268872737885,-0.0001782560721039772
1772699704443401200,7.463401123046875,-0.0006168365944176912,-0.0002516089007258415,-0.0006877791602164507
1772699704453357800,7.47335791015625,-0.0005068478640168905,0.0006269677542150021,-0.0010483711957931519
1772699704463315000,7.48331494140625,-0.0005291968118399382,0.0032069068402051926,0.0011823647655546665
1772699704473270800,7.493270751953125,0.000002103857696056366,-0.0017111524939537048,-0.0038853641599416733
1772699704483228000,7.503227783203125,0.0014692305121570826,0.0013291970826685429,0.00037287361919879913
1772699704493185000,7.51318505859375,0.0010670931078493595,-0.001088154036551714,-0.0026186553295701742
1772699704503142100,7.52314208984375,-0.0007537608034908772,-0.0011019418016076088,0.0018548164516687393
1772699704513099000,7.53309912109375,0.0006491923704743385,-0.000763187650591135,0.0025528310798108578
1772699704523056000,7.54305615234375,0.0013506608083844185,0.00042916275560855865,0.0006931452080607414
1772699704533013000,7.553012939453125,0.002536300104111433,0.002690718974918127,0.0028798668645322323
1772699704542969900,7.562969970703125,0.001960203517228365,0.0021386435255408287,0.0002547679468989372
1772699704552927000,7.572927001953125,-0.0019605024717748165,-0.0007871054112911224,0.0008683600462973118
1772699704562884000,7.582884033203125,0.001200542552396655,0.0007651848718523979,-0.002155281836166978
1772699704572841000,7.592841064453125,0.00031903618946671486,-0.0009714621119201183,-0.00002342136576771736
1772699704582798000,7.602798095703125,0.001069467980414629,0.0002721957862377167,0.00014757923781871796
1772699704592755200,7.612755126953125,-0.0011801040964201093,0.0007936423644423485,0.00018992368131875992
1772699704602711800,7.6227119140625,-0.003227886976674199,-0.00026533985510468483,0.0023737982846796513
1772699704612669000,7.6326689453125,-0.0015269259456545115,0.0011607827618718147,-0.003292343346402049
1772699704622626000,7.6426259765625,-0.00032234913669526577,0.00012514181435108185,-0.00007710326462984085
1772699704632582000,7.652581787109375,0.004137912765145302,-0.002267175819724798,0.0006696470081806183
1772699704642539000,7.6625390625,-0.0017225772608071566,-0.000962261576205492,0.00330278929322958
1772699704652496100,7.67249609375,0.0030354263726621866,0.002308100461959839,-0.002076796256005764
1772699704662453000,7.682452880859375,-0.0008424331899732351,0.0011926162987947464,0.0008032042533159256
1772699704672410000,7.69241015625,-0.001934062922373414,0.001262657344341278,0.00041784485802054405
1772699704682367000,7.702366943359375,-0.00043590902350842953,-0.002971908077597618,0.0023750499822199345
1772699704692323800,7.71232373046875,-0.0019709549378603697,-0.000359879806637764,-0.0013911924324929714
1772699704702281000,7.722281005859375,0.003131864359602332,-0.0029091332107782364,0.0005515939556062222
1772699704712238000,7.732238037109375,-0.0009052213281393051,-0.00014530494809150696,-0.002180809387937188
1772699704722195000,7.74219482421875,0.00036604818888008595,-0.00006091734394431114,-0.001493867952376604
1772699704732152000,7.752152099609375,-0.001110142096877098,-0.0032812117133289576,0.004643387161195278
1772699704742109200,7.762109130859375,-0.001469191862270236,-0.0003436827100813389,0.0010657641105353832
1772699704752065800,7.772065673828125,0.000798223540186882,-0.0005764425732195377,0.0014591128565371037
1772699704762023700,7.782023681640625,0.0018168305978178978,-0.000587505754083395,-0.002483899937942624
1772699704771980500,7.79198046875,-0.0013739026617258787,0.000010107643902301788,-0.0018002663273364305
1772699704781937700,7.801937744140625,-0.00019240379333496094,0.0003560138866305351,-0.0006720160599797964
1772699704791893800,7.811893798828125,-0.0008861572714522481,0.00021752947941422462,0.0005804686807096004
1772699704801850600,7.8218505859375,-0.0010711802169680595,0.00047178519889712334,-0.0032591011840850115
1772699704811807700,7.831807861328125,-0.00153696711640805,0.000806278083473444,-0.0004726359620690346
1772699704821764600,7.8417646484375,-0.00014827772974967957,0.0010600723326206207,0.0005742297507822514
1772699704831721500,7.851721435546875,0.0013390977401286364,-0.00013808393850922585,-0.0007546874694526196
1772699704841678600,7.8616787109375,-0.00041278963908553123,0.00048265792429447174,-0.0012951495591551065
1772699704851635700,7.8716357421875,-0.002085787244141102,-0.0007431954145431519,0.0006907694041728973
1772699704861592600,7.881592529296875,0.00021645333617925644,-0.0012234654277563095,-0.0007508206181228161
1772699704871549700,7.8915498046875,-0.000029090093448758125,-0.000866335816681385,0.0032519102096557617
1772699704881506600,7.901506591796875,0.0001669956836849451,-0.0027034934610128403,-0.0008541529532521963
1772699704891463400,7.91146337890625,-0.0014836315531283617,-0.0007884143851697445,0.002415676135569811
1772699704901420500,7.921420654296875,0.00012490921653807163,0.0004447260871529579,0.0001336461864411831
1772699704911377700,7.931377685546875,-0.0009821667335927486,0.00035018380731344223,-0.00044319452717900276
1772699704921334800,7.941334716796875,0.0005613311659544706,0.0002678590826690197,0.0029794685542583466
1772699704931291600,7.951291748046875,0.0004894258454442024,-0.0013303039595484734,-0.0017135536763817072
1772699704941248800,7.961248779296875,-0.00047038798220455647,-0.002806970849633217,-0.0015904293395578861
1772699704951204600,7.97120458984375,0.0017323123756796122,-0.00009161187335848808,0.000823460053652525
1772699704961161700,7.98116162109375,0.0007886772509664297,0.0005458644591271877,0.003066518809646368
1772699704971118600,7.99111865234375,0.0010576567146927118,0.00032189302146434784,0.0003799218684434891
1772699704981075500,8.001075439453125,-0.00018950714729726315,0.0016670874319970608,-0.0005252128466963768
1772699704991032600,8.011032470703125,0.00048001157119870186,0.0006798538379371166,-0.002618989907205105
1772699705000989700,8.02098974609375,0.0014747867826372385,-0.00078172842040658,0.003723642323166132
1772699705010946600,8.030946533203124,0.000019102822989225388,-0.0012629618868231773,-0.002070064190775156
1772699705020903700,8.040903564453124,-0.0019621895626187325,0.0006789406761527061,0.001409466378390789
1772699705030860500,8.050860595703124,-0.0005616333801299334,0.0007524439133703709,-0.001378863351419568
1772699705040817700,8.060817626953124,-0.0008362296503037214,-0.0008540046401321888,0.0007136878557503223
1772699705050774500,8.0707744140625,0.0002071969211101532,0.00006638374179601669,0.0009650900028645992
1772699705060731600,8.080731689453126,-0.0016832720721140504,-0.0012290356680750847,0.001988935749977827
1772699705070688800,8.090688720703126,-0.0010092260781675577,0.0026900721713900566,0.002225157804787159
1772699705080645600,8.100645751953126,-0.0005889399908483028,0.0013779988512396812,0.0022474098950624466
1772699705090602800,8.110602783203126,0.0007594185881316662,0.0016059656627476215,-0.002512990264222026
1772699705100559600,8.1205595703125,-0.001652300008572638,-0.000029443297535181046,0.0011442983523011208
1772699705110515700,8.130515625,-0.004282437730580568,-0.00032878248021006584,-0.0004131183959543705
1772699705120472600,8.14047265625,0.0019832453690469265,-0.0007861284539103508,0.0016409922391176224
1772699705130429700,8.1504296875,0.00021836836822330952,-0.002121704164892435,-0.00006422959268093109
1772699705140386600,8.160386474609375,-0.0016028110403567553,-0.0011080792173743248,0.002815021201968193
1772699705150343700,8.17034375,0.000614536926150322,-0.000040418002754449844,0.001439764630049467
1772699705160300800,8.18030078125,-0.0008504383731633425,0.0004346040077507496,-0.0021384472493082285
1772699705170257700,8.190257568359375,-0.0013886631932109594,-0.0014378647319972515,0.0022847969084978104
1772699705180214500,8.200214599609374,0.0006211937870830297,-0.00017460109665989876,0.00045885564759373665
1772699705190171600,8.210171630859374,0.0004382345359772444,-0.0011581061407923698,0.0010490119457244873
1772699705200128500,8.22012841796875,0.00025032274425029755,-0.0010955305770039558,0.0010336735285818577
1772699705210085600,8.230085693359374,-0.0010317229898646474,0.0012597693130373955,-0.0020638492424041033
1772699705220042800,8.240042724609374,-0.00005266931839287281,-0.0006487942300736904,0.0016548526473343372
1772699705229999600,8.24999951171875,-0.0017016986384987831,0.0016652261838316917,-0.0000916486606001854
1772699705239956700,8.259956787109376,0.001419957261532545,-0.0003862287849187851,0.0014324774965643883
1772699705249913600,8.26991357421875,-0.0039841290563344955,0.0018007592298090458,-0.00034571532160043716
1772699705259870500,8.279870361328125,0.0005815830081701279,-0.0012139594182372093,0.0008637169376015663
1772699705269826600,8.28982666015625,0.001196773024275899,0.0015096557326614857,-0.0013152817264199257
1772699705279783700,8.29978369140625,-0.0007551579037681222,0.0027554677799344063,0.0001133936457335949
1772699705289740500,8.309740478515625,-0.00035408581607043743,0.002592748962342739,0.0017397860065102577
1772699705299697700,8.31969775390625,-0.002169761573895812,-0.00021375995129346848,0.0007890323176980019
1772699705309654800,8.32965478515625,-0.0032155849039554596,0.00278469268232584,-0.0007236432284116745
1772699705319611600,8.339611572265625,-0.0028095333836972713,-0.001403124537318945,0.003445627633482218
1772699705329568500,8.349568603515625,-0.0004766040947288275,-0.0018462743610143661,-0.0009797471575438976
1772699705339525600,8.359525634765625,-0.0009251333540305495,-0.0016447058878839016,-0.0009647118858993053
1772699705349482500,8.369482421875,0.003440320258960128,0.0012088711373507977,-0.0005343449302017689
1772699705359439600,8.379439697265624,0.0003657001070678234,-0.0006841998547315598,0.0017975084483623505
1772699705369396700,8.389396728515624,-0.001051367842592299,-0.0012410669587552547,-0.002431857865303755
1772699705379353600,8.399353515625,-0.0018312479369342327,0.00035686884075403214,0.0029374095611274242
1772699705389310700,8.409310791015624,0.00034215766936540604,-0.0013579404912889004,-0.0005848873406648636
1772699705399267600,8.419267578125,0.000864110654219985,-0.0010326295159757137,0.0029034949839115143
1772699705409224400,8.429224365234376,0.0003780836705118418,-0.0004541906528174877,-0.00015967292711138725
1772699705419181600,8.439181640625,-0.00011481437832117081,-0.0013870391994714737,-0.00033588754013180733
1772699705429137700,8.4491376953125,-0.00005036592483520508,0.0006332346238195896,0.0009514843113720417
1772699705439094500,8.459094482421875,0.00018261722289025784,0.0007708054035902023,0.004433060064911842
1772699705449051600,8.4690517578125,-0.0005145983304828405,-0.002109136898070574,0.000863359309732914
1772699705459008800,8.4790087890625,0.0005606913473457098,-0.00010759755969047546,0.0022389041259884834
1772699705468965600,8.488965576171875,-0.0020638538990169764,-0.0004918915219604969,0.0010857554152607918
1772699705478922500,8.498922607421875,0.0011081472039222717,-0.0011298456229269505,0.0019291792996227741
1772699705488879600,8.508879638671875,-0.0008596624247729778,0.002214552368968725,-0.0016130914445966482
1772699705498836500,8.51883642578125,-0.0007209586910903454,-0.0009247581474483013,0.0031325328163802624
1772699705508793600,8.528793701171875,-0.0007081753574311733,0.001671025063842535,-0.00023370282724499702
1772699705518750700,8.538750732421875,0.0006692963652312756,0.0013174614869058132,0.0005882373079657555
1772699705528707800,8.548707763671874,0.0026978258974850178,0.0006993417628109455,0.00042898068204522133
1772699705538664700,8.558664794921874,-0.000985855353064835,-0.0012796996161341667,0.0025266832672059536
1772699705548621600,8.56862158203125,0.00008287117816507816,-0.0010168454609811306,0.0004952237941324711
1772699705558578700,8.57857861328125,-0.0005304338410496712,0.0010256115347146988,-0.00035931821912527084
1772699705568535600,8.58853564453125,0.0013494915328919888,-0.0010114405304193497,0.0016308622434735298
1772699705578492700,8.59849267578125,0.0008924186695367098,0.000030953437089920044,-0.0013013025745749474
1772699705588448500,8.608448486328125,0.0018724619876593351,0.000867186114192009,-0.00042166048660874367
1772699705598405600,8.618405517578125,-0.0014361657667905092,-0.0009221769869327545,0.002080291509628296
1772699705608362800,8.62836279296875,-0.002033779164776206,-0.0005480032414197922,-0.0017032616306096315
1772699705618319600,8.638319580078125,-0.0007758705178275704,-0.0013098055496811867,0.0021951720118522644
1772699705628276500,8.6482763671875,-0.0006163471844047308,-0.004399871453642845,0.00039727194234728813
1772699705638233600,8.658233642578125,-0.0006926932837814093,0.0017093871720135212,-0.002368174958974123
1772699705648190700,8.668190673828125,-0.000058860983699560165,0.0009485227055847645,0.00017301319167017937
1772699705658147600,8.678147705078125,-0.0005104027222841978,0.0006897165440022945,-0.001785488799214363
1772699705668104700,8.688104736328125,0.0016158649232238531,-0.001048794947564602,-0.00004697730764746666
1772699705678061800,8.698061767578125,-0.0030646082013845444,-0.0006914185360074043,0.0028059305623173714
1772699705688018700,8.708018798828125,-0.001283485908061266,0.0009213914163410664,0.00041094981133937836
1772699705697975600,8.7179755859375,0.002723804907873273,-0.002461654832586646,0.0005408343859016895
1772699705707932700,8.7279326171875,-0.0008829142898321152,0.00041961902752518654,-0.000018695835024118423
1772699705717889500,8.7378896484375,0.000531910452991724,-0.0004460611380636692,0.0021036388352513313
1772699705727846700,8.7478466796875,0.00038170814514160156,-0.0014343601651489735,-0.00016857031732797623
1772699705737803800,8.7578037109375,0.0005695756990462542,0.0018258867785334587,-0.000623705331236124
1772699705747760600,8.7677607421875,0.00011018035002052784,0.0005944413132965565,0.0010974956676363945
1772699705757717500,8.777717529296876,-0.0006248438730835915,-0.0004965499974787235,0.001231372356414795
1772699705767673900,8.787673828125,-0.0014397710328921676,-0.0013090805150568485,0.0028649549931287766
1772699705777630500,8.79763037109375,0.0018402829300612211,-0.00195698207244277,0.0012462176382541656
1772699705787587600,8.807587646484375,-0.0020868144929409027,0.0010864781215786934,0.0006997371092438698
1772699705797544700,8.817544677734375,0.0004355337005108595,0.0008952324278652668,0.002313015516847372
1772699705807501600,8.82750146484375,0.000169483944773674,0.0016521024517714977,0.0009148558601737022
1772699705817458700,8.837458740234375,-0.00017064204439520836,-0.000019226688891649246,-0.0005251383408904076
1772699705827415800,8.847415771484375,0.0008211191743612289,0.0016260743141174316,-0.0013480549678206444
1772699705837372400,8.857372314453125,0.0004751710221171379,0.000620553269982338,0.000257173553109169
1772699705847329500,8.86732958984375,-0.00009368010796606541,0.00022320961579680443,0.001267576590180397
1772699705857286700,8.87728662109375,-0.0013169031590223312,-0.000935134943574667,-0.0005471738986670971
1772699705867243500,8.887243408203124,0.000028792070224881172,0.00017380528151988983,0.00020463624969124794
1772699705877200600,8.89720068359375,0.00030383234843611717,0.0023227743804454803,0.000610788818448782
1772699705887157800,8.90715771484375,0.0009549751412123442,0.0000974372960627079,-0.00276290369220078
1772699705897114600,8.917114501953124,0.0014423055108636618,-0.00011743232607841492,0.0007825787179172039
1772699705907071500,8.927071533203126,0.0003211149014532566,0.0012426436878740788,-0.00043395301327109337
1772699705917028600,8.937028564453126,0.003069806843996048,0.0006684167310595512,-0.0000795130617916584
1772699705926984400,8.946984375,0.0018463507294654846,-0.0004090983420610428,0.00026936084032058716
1772699705936941600,8.956941650390625,0.001007384853437543,-0.002428152598440647,0.00044326623901724815
1772699705946898700,8.966898681640625,0.0008047183509916067,-0.001419347245246172,0.005560529883950949
1772699705956855600,8.97685546875,0.000752379884943366,-0.0001318063586950302,0.0015766364522278309
1772699705966812700,8.986812744140625,-0.000541383633390069,-0.0002732202410697937,0.000932417344301939
1772699705976769800,8.996769775390625,0.00013425620272755623,-0.0009503648616373539,0.0023078457452356815
1772699705986726400,9.006726318359375,-0.0014034529449418187,-0.0010172100737690926,-0.0012749051675200462
1772699705996683500,9.01668359375,-0.00005993666127324104,0.00022644037380814552,-0.0003052172251045704
1772699706006640600,9.026640625,-0.0023308140225708485,0.001167601440101862,-0.0012245404068380594
1772699706016597500,9.036597412109375,-0.0009183519287034869,-0.000955529510974884,0.001375400461256504
1772699706026554600,9.0465546875,-0.002974045928567648,0.0006530196405947208,-0.002865151036530733
1772699706036511700,9.05651171875,0.0001134334597736597,-0.000650312751531601,0.0006207898259162903
1772699706046468600,9.066468505859374,0.0015757752116769552,-0.00036109331995248795,0.002102040220052004
1772699706056425500,9.076425537109374,-0.0005949416663497686,0.0009151292033493519,0.0011622533202171326
1772699706066382600,9.086382568359374,-0.0003970686811953783,0.0009995512664318085,0.002117529045790434
1772699706076338400,9.09633837890625,0.0009288466535508633,-0.0006566205993294716,0.0006434088572859764
1772699706086295600,9.106295654296876,0.0003048679791390896,-0.0007306565530598164,-0.00066606723703444
1772699706096252700,9.116252685546876,0.00005009467713534832,0.000010958407074213028,0.0004510977305471897
1772699706106209500,9.12620947265625,-0.00014937599189579487,0.002354805823415518,0.0013152938336133957
1772699706116166700,9.136166748046875,0.00018560700118541718,-0.00005976064130663872,0.0003660772927105427
1772699706126123800,9.146123779296875,0.002148622879758477,-0.0009122383780777454,0.0008028354495763779
1772699706136080600,9.15608056640625,0.00005127443000674248,-0.0005803308449685574,0.004104427993297577
1772699706146037500,9.16603759765625,0.0010494270827621222,-0.0011095008812844753,0.0021368847228586674
1772699706155994600,9.17599462890625,-0.0013060333440080285,-0.002290841657668352,0.00023005716502666473
1772699706165951700,9.18595166015625,0.0010713704396039248,0.002637071069329977,-0.001738551538437605
1772699706175908600,9.19590869140625,-0.0007675040978938341,-0.001671778503805399,-0.0006419571582227945
1772699706185865700,9.20586572265625,0.0009688769932836294,0.0005658096633851528,-0.0021085599437355995
1772699706195822600,9.215822509765625,-0.0017149728955700994,0.0006424076855182648,0.0020936988294124603
1772699706205779500,9.225779541015624,0.0022185160778462887,-0.0004670652560889721,-0.0007521552033722401
1772699706215736600,9.235736572265624,0.0005682611372321844,0.0016962876543402672,0.001208556815981865
1772699706225693700,9.245693603515624,0.00039915041998028755,-0.00005527352914214134,0.0007544877007603645
1772699706235650600,9.255650634765624,0.001200894359499216,-0.000626630149781704,0.0002879602834582329
1772699706245606700,9.265606689453126,0.001371070509776473,-0.0004082508385181427,0.001546570099890232
1772699706255563800,9.275563720703126,0.0010281938593834639,-0.0011878148652613163,0.0004161344841122627
1772699706265520600,9.285520751953126,-0.002023522276431322,-0.0019785077311098576,0.0010920451022684574
1772699706275477800,9.295477783203125,0.000426960876211524,-0.001311915460973978,0.0011923420242965221
1772699706285434600,9.3054345703125,-0.0018404542934149504,-0.0005004503764212132,0.001798743847757578
1772699706295391500,9.3153916015625,0.0007473542355000973,-0.0022120759822428226,0.0011457041837275028
1772699706305348600,9.3253486328125,-0.0014257851289585233,0.0022604367695748806,0.0040943557396531105
1772699706315305700,9.3353056640625,-0.0005064825527369976,0.014741076156497002,0.010556943714618683
1772699706325262600,9.3452626953125,-0.0009477683342993259,-0.0007020630873739719,-0.0016272838693112135
1772699706335219700,9.3552197265625,0.0010402391199022532,-0.0034198935609310865,-0.0024652094580233097
1772699706345176600,9.365176513671875,-0.0000766906887292862,-0.006924879737198353,-0.0040905368514359
1772699706355133400,9.375133544921875,0.0006384407170116901,-0.0037234711926430464,-0.000901911174878478
1772699706365090600,9.385090576171875,-0.001116848667152226,-0.0007604383863508701,-0.0024923509918153286
