time,seconds_elapsed,z,y,x
1772537067985894100,0.07489404296875,-0.10288257458657026,0.02523030284643173,-0.015822569162398575
1772537067995961000,0.084961181640625,-0.10487579423040151,0.09385726434886454,0.04442885124795139
1772537068006029000,0.095029052734375,-0.08880231904685497,0.12305413273870944,0.075929977992177
1772537068016096000,0.105095947265625,-0.03912146555483341,0.08869593606293201,0.044618601666390895
1772537068026164200,0.115164306640625,-0.01707563796341419,0.06461772586107253,0.06335172451324761
1772537068036232200,0.125232177734375,-0.03204319773167372,0.10910802497267723,0.061095762280002235
1772537068046299100,0.135299072265625,-0.0842307733476162,0.10361585729718208,-0.008908844251185655
1772537068056367000,0.1453671875,-0.10505173531919718,0.09406360057592392,-0.038171032962203026
1772537068066435000,0.15543505859375,-0.1405082486256957,0.09345394424498081,-0.033943989851698275
1772537068076502300,0.165502197265625,-0.1373462774634361,0.1256751288920641,0.0036008740361779925
1772537068086570200,0.1755703125,-0.129903267981112,0.19981530085802077,0.06520619327351451
1772537068096637200,0.18563720703125,-0.1006321653112769,0.24182313550412654,0.10252075553685426
1772537068106705200,0.195705078125,-0.04410977536141872,0.21556348960995672,0.08286167695149779
1772537068116773000,0.205773193359375,-0.01113923365175724,0.18579905046522616,0.03484802601933479
1772537068126840000,0.215840087890625,0.0030082419052720067,0.14337620527744294,-0.028917320796102285
1772537068136908300,0.225908203125,-0.007145195579528808,0.07163666471242905,-0.08387523790821433
1772537068146975200,0.235975341796875,0.026437925070524212,0.05096037190854549,-0.0922812472037971
1772537068157043200,0.246043212890625,0.05416179829835891,0.05257131423652172,-0.0069086103446781635
1772537068167111200,0.256111083984375,0.04919716162830591,0.09505611874461173,-0.0021619272742420433
1772537068177178000,0.26617822265625,-0.04557692530453205,0.09063187256157397,-0.07399316471070051
1772537068187246300,0.276246337890625,-0.15126958887577055,0.05362696076929569,-0.15844941737726329
1772537068197314300,0.286314208984375,-0.2513105102956295,-0.00710720165669918,-0.22828991938792167
1772537068207381200,0.29638134765625,-0.3066968819528818,-0.0272837282449007,-0.2391252016570419
1772537068217449200,0.30644921875,-0.2777437591910362,-0.04681786527633667,-0.21787994985878467
1772537068227516200,0.31651611328125,-0.2790636096179485,-0.0830628986120224,-0.14908091972507537
1772537068237584100,0.326584228515625,-0.26352321839779613,-0.04174246170818805,-0.13568959629759192
1772537068247652400,0.33665234375,-0.2244204575434327,-0.013563830450177191,-0.08745346172116697
1772537068257719300,0.34671923828125,-0.16046441046148538,0.030528409254550932,-0.029937311493605373
1772537068267787300,0.356787353515625,-0.15007453387230635,0.07968027043640613,-0.021227935337275267
1772537068277855200,0.366855224609375,-0.1715501603603363,0.1190735386699438,-0.036250951619818804
1772537068287922200,0.376922119140625,-0.13452128317058085,0.14790449635684488,0.0011246201157569884
1772537068297990400,0.386990478515625,-0.11413988166004418,0.12602175037264823,0.0055626756284385915
1772537068308057300,0.397057373046875,-0.13789309769123792,0.11060147840082644,-0.02376731762178242
1772537068318125300,0.407125244140625,-0.16527005717754362,0.12093991706371307,-0.05713438436836004
1772537068328193300,0.417193359375,-0.14162234734743834,0.09001052579283714,-0.07573876626901328
1772537068338260200,0.42726025390625,-0.12531506340801715,0.04630757766664028,-0.054639718008413905
1772537068348328200,0.437328125,-0.06895692410916089,0.057628597626090045,-0.003767901166155934
1772537068358395100,0.44739501953125,-0.05678396349549293,0.08895604830384254,0.002339548863470554
1772537068368463400,0.45746337890625,-0.10116671057939529,0.11992284897565841,0.021627236853167413
1772537068378531300,0.46753125,-0.09497808507233857,0.1548842722415924,0.04890387777015567
1772537068388598300,0.477598388671875,-0.09071896632313728,0.15395254434943198,0.04848740592375397
1772537068398666200,0.487666259765625,-0.08669453311264515,0.12688918085694312,0.03330320773012936
1772537068408734200,0.497734130859375,-0.04641162256300449,0.11204232485890388,0.05304295033626258
1772537068418801400,0.507801513671875,-0.0864174697369337,0.072858315461874,0.009860665083304047
1772537068428869000,0.517869140625,-0.1558341203123331,0.030572248396277427,-0.05142725876793265
1772537068438936300,0.527936279296875,-0.20398469549715517,-0.0011877484798431396,-0.1038711472325027
1772537068449004300,0.53800439453125,-0.20189912139475344,0.0027718028008937834,-0.11950564647689461
1772537068459072000,0.548072021484375,-0.21816402749717234,-0.019900632256269455,-0.12449885165430605
1772537068469139200,0.55813916015625,-0.18082886083722113,-0.04722995320856571,-0.10174166092313826
1772537068479207200,0.568207275390625,-0.127853641974926,-0.028421207842230796,-0.0409394016969949
1772537068489275100,0.578275146484375,-0.08817278897166252,-0.008314239358901977,-0.006221139537170529
1772537068499342000,0.588342041015625,-0.12477847231328487,-0.0025648820519447325,-0.048809696680679915
1772537068509410000,0.59841015625,-0.16761866613030432,0.017032383343577383,-0.06379786084555089
1772537068519477200,0.608477294921875,-0.11485445967018604,0.06855974148511886,-0.011703370340541005
1772537068529545200,0.618545166015625,-0.0644385699018836,0.11663023717105388,0.04614040440618992
1772537068539613200,0.62861328125,-0.040300738467276095,0.1754319702297449,0.05170388375222683
1772537068549680000,0.63868017578125,-0.012481295910477638,0.18075287299156187,0.06581753010489046
1772537068559748000,0.648748046875,0.011897650803625584,0.1560825421154499,0.05040383400432765
1772537068569815000,0.65881494140625,0.06569821457415818,0.16808920625150203,0.040229280666261906
1772537068579883000,0.668883056640625,0.11353665506988764,0.11663900499939918,0.010739128418266772
1772537068589951200,0.678951171875,0.013117255726456641,0.05794540849030017,-0.08366985152922571
1772537068600018200,0.68901806640625,-0.008520867846906185,0.048337622189521784,-0.1251251668591052
1772537068610086100,0.699086181640625,-0.022968787655234336,0.045098201876878734,-0.07990326553732156
1772537068620154000,0.709154052734375,-0.1033858479335904,0.0487117161989212,-0.06745718707069755
1772537068630221000,0.719220947265625,-0.14525924254506825,0.08245616489052772,-0.026130685752257705
1772537068640289300,0.729289306640625,-0.1226373686313629,0.0980120459407568,0.05022898889407515
1772537068650356200,0.739356201171875,-0.11559241855591534,0.07421908242106437,0.0637074791483581
1772537068660424200,0.749424072265625,-0.12798895879238842,0.04909340899288654,0.053978769881650804
1772537068670492200,0.7594921875,-0.15274667569100855,0.03784311618208885,0.04342435038052499
1772537068680559000,0.76955908203125,-0.16517653367519378,0.05802782607674598,0.06696516577005386
1772537068690627000,0.779626953125,-0.14414222121387718,0.06724807436466217,0.11034516555219888
1772537068700695300,0.7896953125,-0.17855857781767845,0.08434241702854633,0.08123414881490171
1772537068710762200,0.79976220703125,-0.20324264495819805,0.0797556737601757,-0.01146247425675392
1772537068720830200,0.809830322265625,-0.19567980848848818,0.05860533370375633,-0.025077888763695953
1772537068730897200,0.819897216796875,-0.1706307074278593,0.054554597008228296,-0.015214228005707263
1772537068740965000,0.829965087890625,-0.22661095332503317,0.07102642385959625,-0.06451828407458961
1772537068751033300,0.840033447265625,-0.2875947065979242,0.04522153599560261,-0.11523717537745833
1772537068761100300,0.850100341796875,-0.28849048639386893,0.0129448217689991,-0.10093297488875687
1772537068771168000,0.86016796875,-0.25490765800476073,0.002362052956223488,-0.0875786224707961
1772537068781235000,0.87023486328125,-0.20637626680880783,-0.02229191130697727,-0.08622698866613208
1772537068791303000,0.880302978515625,-0.149825235286355,-0.028531682479381558,-0.06124912621080875
1772537068801371000,0.890370849609375,-0.12436813794672488,-0.013051204752922057,-0.06285320040658116
1772537068811438000,0.90043798828125,-0.10939239487200975,0.015302198550105095,-0.07472615516036749
1772537068821506000,0.910506103515625,-0.11483429366499184,0.05875380226373672,-0.10630144311934708
1772537068831574000,0.920573974609375,-0.06932429611682892,0.0696732556849718,-0.1173453266378492
1772537068841641000,0.930640869140625,0.023057634982466695,0.07327741765677928,-0.055825712922587985
1772537068851709000,0.940708984375,0.08294307162463664,0.0841822580307722,-0.04796104396209121
1772537068861776000,0.95077587890625,0.11704758580029011,0.09356383436024189,-0.026717691859975457
1772537068871844000,0.960843994140625,0.13891747230291365,0.10688625726997851,-0.001420095930993557
1772537068881912000,0.970912109375,0.09475041379630565,0.07798457243442534,0.00423091556802392
1772537068891979000,0.98097900390625,0.05961246491968632,0.06507949815392494,0.017487068308517335
1772537068902047000,0.991046875,0.06137947459220886,0.0635562341094017,0.028151962446793913
1772537068912114000,1.001114013671875,-0.009711246675252914,0.027790508723258972,0.01208104454651475
1772537068922182100,1.01118212890625,-0.03310965791940689,0.008090951997041702,0.004468085324764251
1772537068932250000,1.02125,-0.10701163721531629,0.019092823004722596,-0.00858801479898393
1772537068942317000,1.031317138671875,-0.17211100911349056,0.01055588080585003,-0.0526900452453643
1772537068952385000,1.041385009765625,-0.2074289907321334,-0.04282558076977729,-0.06852598534598946
1772537068962453000,1.051452880859375,-0.22511866894066332,-0.05407938071191311,-0.09617153264060616
1772537068972520000,1.06152001953125,-0.2198778456777334,-0.06670797613859177,-0.07294789344146847
1772537068982588200,1.071588134765625,-0.2104129749789834,-0.05756020856499672,-0.06540003534518182
1772537068992655000,1.081655029296875,-0.18607845192849634,-0.021959318351745603,-0.07774038841500878
1772537069002723000,1.09172314453125,-0.16034925964921712,-0.010128010782599449,-0.0553849834177643
1772537069012791000,1.101791015625,-0.1263069970548153,0.01975216369628906,-0.03498904192522168
1772537069022858000,1.11185791015625,-0.13350596864819525,0.059115621313452715,-0.07642367979325354
1772537069032926200,1.12192626953125,-0.13750848228782414,0.05753741221129894,-0.11395977585278451
1772537069042994000,1.131993896484375,-0.09986088867783546,0.08361293371021747,-0.06994725032076239
1772537069053061000,1.14206103515625,-0.04574526760876178,0.10458850172162056,-0.009074994598329066
1772537069063128800,1.15212890625,-0.032251579785346984,0.10134206714630126,-0.003361658452823758
1772537069073196000,1.162196044921875,-0.050348962011933326,0.0998065281420946,-0.021867840676009654
1772537069083264000,1.172263916015625,-0.05739800374060869,0.11807342171669005,-0.0158841631565243
1772537069093332000,1.18233203125,-0.05442483314871788,0.1424836403518915,-0.040347792479395864
1772537069103399000,1.19239892578125,-0.013353987091779708,0.1476683495134115,0.004658712526038289
1772537069113467000,1.202466796875,0.050664311571419235,0.18789163883030413,0.052298780905455346
1772537069123534000,1.2125341796875,0.041433249628543854,0.18637655809223652,0.06806603968404233
1772537069133601800,1.222601806640625,0.03208031487166881,0.1589630659878254,0.04751688039116561
1772537069143670000,1.232669921875,0.029765023666620254,0.14908230796456337,0.06158471484072506
1772537069153737000,1.242737060546875,-0.029145430463552474,0.16286299603581428,0.04013838751241564
1772537069163805000,1.252804931640625,-0.13105857549607752,0.1670364823281765,-0.00014824936427175998
1772537069173873000,1.262872802734375,-0.19226093995571136,0.1870090107768774,0.0030294308237731457
1772537069183939800,1.27293994140625,-0.2075236832782626,0.20503566585481164,0.054587695560231804
1772537069194007800,1.2830078125,-0.19978081406652926,0.20360300270318984,0.07504537717737257
1772537069204074800,1.29307470703125,-0.16208996583670376,0.18010054656267166,0.07263130177296698
1772537069214143000,1.30314306640625,-0.16118191108107566,0.13593056544661522,0.04111220098063349
1772537069224211000,1.3132109375,-0.15557342354953288,0.0975239701628685,0.009741787943989038
1772537069234278000,1.32327783203125,-0.13732523467540741,0.07262333766222,-0.023894743393734097
1772537069244345900,1.333345947265625,-0.14936346299350262,0.03493687334656715,-0.06529387155696749
1772537069254412800,1.343412841796875,-0.20281623623967168,0.0030202246040105817,-0.10366093854792416
1772537069264481000,1.35348095703125,-0.22043723312616348,-0.013886486533284186,-0.08013802414126693
1772537069274549000,1.363549072265625,-0.21839432912170886,-0.03275485313236713,-0.05410473434887826
1772537069284616000,1.373615966796875,-0.26310265489816664,-0.04285480686426162,-0.06534143702574075
1772537069294684000,1.383683837890625,-0.26440847679972646,-0.02719020474255085,-0.04862820263393223
1772537069304751900,1.393751953125,-0.18901304407566785,0.012639116820693016,0.017679668271169065
1772537069314818800,1.40381884765625,-0.11462152769714594,0.03875029415488243,0.03698803372271359
1772537069324887000,1.413886962890625,-0.09028934273421764,0.03837503110170364,0.036966844804212445
1772537069334954000,1.4239541015625,-0.06166647484004497,0.03993453550338745,0.0043117257192730905
1772537069345022000,1.43402197265625,-0.039249475848674775,0.04257832801043987,-0.036550519088283176
1772537069355090000,1.44408984375,-0.06390811628699303,0.012820903128385543,-0.07827851387970149
1772537069365156900,1.454156982421875,-0.08400368659347296,-0.008384966507554053,-0.11022314660772681
1772537069375225000,1.46422509765625,-0.07160480826944113,-0.014649287599325178,-0.10616693001948296
1772537069385293000,1.47429296875,-0.049016544364392754,0.027667174604535102,-0.10134674332141876
1772537069395360000,1.484360107421875,-0.06390753176510333,0.04370820882320404,-0.12120821261107921
1772537069405428000,1.494427978515625,-0.047810091184079646,0.05470131200253963,-0.13278634913675486
1772537069415495000,1.504494873046875,-0.018417407961189746,0.06412205129861831,-0.09792743639722466
1772537069425563000,1.51456298828125,0.03075461922585964,0.08581833480000495,-0.04796681611575186
1772537069435631000,1.524631103515625,0.06167348910272121,0.11229951449036597,-0.0030491584375500675
1772537069445698000,1.534697998046875,0.01736322273313999,0.12596388270556927,-0.008406520752236246
1772537069455766000,1.54476611328125,-0.03857376854419708,0.1180979716360569,-0.04474675809070468
1772537069465833000,1.5548330078125,-0.05466653295010328,0.10617138699889182,-0.05611695095412433
1772537069475901000,1.56490087890625,-0.09022913697957992,0.08441665130853652,-0.09032594841755925
1772537069485969200,1.57496923828125,-0.0913233619570732,0.051854690399765965,-0.08428462242670356
1772537069496036000,1.5850361328125,-0.10010054265260696,0.03227379161715507,-0.10034501893296838
1772537069506104000,1.59510400390625,-0.11885346617847681,0.016033435434103013,-0.08834288484156132
1772537069516172000,1.605172119140625,-0.11048691211044788,0.02828209163248539,-0.06720569652765988
1772537069526239000,1.615239013671875,-0.12347148136794567,0.03901975874602794,-0.06016819910630583
1772537069536307000,1.625306884765625,-0.13931056327372787,0.019096330136060713,-0.044931540073081845
1772537069546374100,1.6353740234375,-0.12686726128607986,0.02596095520853996,-0.011121697995066642
1772537069556442000,1.645442138671875,-0.10312778151929378,0.05921148290336132,0.009834726924449205
1772537069566510000,1.655510009765625,-0.14718348860591648,0.055685062342882154,-0.00008102934695780277
1772537069576577000,1.665576904296875,-0.18905191478133201,0.040623686811327935,-0.053690673655271526
1772537069586645000,1.67564501953125,-0.23006255508363246,0.01142155772447586,-0.10791910744905471
1772537069596712000,1.6857119140625,-0.17524112383276222,-0.01864215662777424,-0.09629771630354225
1772537069606780200,1.6957802734375,-0.04282674981355667,0.006921323695778846,-0.031970643952116365
1772537069616848000,1.705847900390625,-0.026617957812547683,0.010834113225340843,-0.05584909379817545
1772537069626915000,1.7159150390625,-0.05026420633792877,-0.0029307927548885343,-0.10063136159367858
1772537069636983000,1.725983154296875,-0.04535393020361662,0.016119944673776625,-0.09591302783489226
1772537069647050800,1.73605078125,-0.051094811943173404,0.04692191017270088,-0.06182612238116562
1772537069657118200,1.7461181640625,-0.023353110797703264,0.06814356189966202,-0.02486424601301551
1772537069667186000,1.75618603515625,-0.02597410695105791,0.06547521947324275,0.01917502139545977
1772537069677253000,1.766253173828125,0.0019718845948576928,0.10911562375724315,0.052674336219578975
1772537069687320800,1.77632080078125,-0.003849368904531002,0.12443535796403885,0.06499532700181007
1772537069697388800,1.786388916015625,-0.022516659973561764,0.13690963961184024,0.027424232694134115
1772537069707456000,1.7964560546875,-0.029050445656478404,0.13292670745551585,0.001247442777827382
1772537069717524000,1.80652392578125,-0.08799421753436326,0.1036018287718296,-0.01528320158869028
1772537069727592000,1.816592041015625,-0.11165186423659323,0.11819032609462737,-0.031876316732168196
1772537069737659000,1.826658935546875,-0.07185323007255792,0.12144435945451258,0.0036507775925099847
1772537069747726800,1.836726806640625,-0.05022270528376102,0.10741641862392425,0.030021847971901296
1772537069757793800,1.846793701171875,-0.0708297322437167,0.0812327605754137,0.04026135630495846
1772537069767862000,1.856862060546875,-0.09983809232413768,0.09222644827663898,0.06263327404558658
1772537069777929700,1.8669296875,-0.16484627880752087,0.09750526546239853,0.045663946000859136
1772537069787996700,1.87699658203125,-0.26919804916381834,0.11707155119776726,-0.022272695149853826
1772537069798065000,1.88706494140625,-0.26451895143687726,0.11970248422324657,0.0016110153932124376
1772537069808131800,1.8971318359375,-0.19734043517708777,0.1337748487174511,0.03587700374089181
1772537069818199800,1.90719970703125,-0.17493863375484942,0.10568740287423133,-0.020373218204081056
1772537069828267800,1.917267822265625,-0.22733108429312704,-0.004264087185263633,-0.07407375566624104
1772537069838334700,1.927334716796875,-0.1941933693230152,-0.001146247425675392,-0.06758198249414563
1772537069848403000,1.93740283203125,-0.1387760180056095,0.039817046603560446,-0.03962605407610535
1772537069858471000,1.947470947265625,-0.14141045816242695,0.031657705545425414,-0.011727627998962998
1772537069868537900,1.957537841796875,-0.15159224495887755,0.06367898370623588,0.02475873981192708
1772537069878605800,1.967605712890625,-0.16175854192525146,0.11928513559401034,0.02803615404739976
1772537069888672800,1.9776728515625,-0.17930325870513916,0.12511807953119278,0.008389423486962914
1772537069898740700,1.98774072265625,-0.1885056790754199,0.10238894585072994,0.012280731837078928
1772537069908809000,1.99780908203125,-0.13211802142113446,0.12636954089701175,-0.006322773280739784
1772537069918876000,2.0078759765625,-0.07750000378787517,0.10855915891826153,-0.04025193088948727
1772537069928943900,2.01794384765625,-0.08912877452224492,0.07931728234291076,-0.11315152820982038
1772537069939010800,2.0280107421875,-0.09274404240995646,0.06774725605845451,-0.15895093715861439
1772537069949078800,2.038078857421875,-0.09609043022841214,0.04752338319718837,-0.16162278671637176
1772537069959147000,2.04814697265625,-0.08098463103324174,0.027895722663402556,-0.11943316576257347
1772537069969214000,2.0582138671875,-0.041781040152907366,0.035597967603802676,-0.08130553355067968
1772537069979282000,2.068281982421875,-0.04325725018531084,0.022945406779646873,-0.04698942245095968
1772537069989350000,2.078349853515625,-0.014191899220645426,0.04153086478412151,-0.013928352913632988
1772537069999416800,2.088416748046875,-0.032494448630511756,0.05791442883014679,-0.0047623920962214464
1772537070009484800,2.09848486328125,-0.042431320755183695,0.06827507932484149,0.0017605799317359924
1772537070019552000,2.108552001953125,-0.0546437365964055,0.07338029350936412,-0.005452712447941303
1772537070029620000,2.118619873046875,-0.017796645714342592,0.054100423499941826,0.03396335213929415
1772537070039688000,2.12868798828125,-0.013565876276791095,0.040945173850655554,0.040864802090823646
1772537070049755000,2.1387548828125,-0.07316898884624243,0.03302548676729202,-0.01870462740473449
1772537070059822800,2.14882275390625,-0.11399053631722926,0.040131519380211825,-0.056750499617308374
1772537070069889800,2.158889892578125,-0.1597422336667776,0.060792614614963526,-0.08246697854548692
1772537070079958000,2.1689580078125,-0.24394494996368885,0.07766133182942866,-0.10372231334634124
1772537070090026000,2.17902587890625,-0.12469547020494937,0.06099661275446414,-0.012600684506446122
1772537070100093000,2.189093017578125,-0.06492547663599252,0.03985913217961788,-0.024758228355273602
1772537070110161000,2.199160888671875,-0.0740308663725853,0.010173603489995003,-0.08137238824181259
1772537070120227800,2.209227783203125,-0.07712649430036544,-0.013514146089553833,-0.10092851790934801
1772537070130296000,2.219296142578125,-0.04325461983680725,0.0009434183299541472,-0.025466741950809953
1772537070140364000,2.229364013671875,-0.0196525027140975,0.026899697363376617,0.05214359034374356
1772537070150431000,2.239430908203125,-0.03725800977051258,0.05244038133323192,0.08623743699491024
1772537070160499000,2.2494990234375,-0.06964402959048747,0.0921335092961788,0.06859678555987775
1772537070170567000,2.25956689453125,-0.12395283514410256,0.11394728169739246,0.004609174295887351
1772537070180633900,2.2696337890625,-0.2180591058179736,0.09609364509880543,-0.07250329147912561
1772537070190702000,2.2797021484375,-0.26316899813264605,0.06184884566962719,-0.12177139945179223
1772537070200769000,2.28976904296875,-0.25952625771611926,0.05424012423157692,-0.14482194710634647
1772537070210837000,2.2998369140625,-0.2365437337964773,0.03887655088305473,-0.10482486776076257
1772537070220904700,2.30990478515625,-0.1550456002831459,0.050204585105180735,-0.03451959778256714
1772537070230972000,2.319971923828125,-0.10222118806838988,0.06099719727635383,0.010406973854452372
1772537070241040000,2.330039794921875,-0.1255477031201124,0.06363923621773719,0.02301182307936251
1772537070251107800,2.34010791015625,-0.10493190833181142,0.09250760330557822,0.040582404952868814
1772537070261175000,2.350175048828125,0.0022580080598592757,0.07605798828601837,0.1189985737375915
1772537070271242800,2.36024267578125,0.05822890160679817,0.08430266954004764,0.14487060855366288
1772537070281310000,2.37031005859375,0.08599836754202843,0.05854337438344955,0.11234320750162005
1772537070291377700,2.380377685546875,0.030921792486310003,0.057040568605065345,0.06517616346143186
1772537070301446000,2.39044580078125,-0.10766951660215854,0.02992459814250469,-0.058152110043540595
1772537070311512800,2.400512939453125,-0.24156799169927834,0.0211707983225584,-0.15191475491151213
1772537070321580800,2.410580810546875,-0.2512850835934281,0.04858195233941078,-0.1214181290347129
1772537070331648000,2.42064794921875,-0.15134060828536747,0.054286301460862156,-0.029234277790784833
1772537070341715700,2.4307158203125,-0.12166852359920739,0.06577098754942416,0.011354264641925692
1772537070351784000,2.440783935546875,-0.2016004307091236,0.0661135173767805,-0.04181012011691928
1772537070361851000,2.450850830078125,-0.19434242240488528,0.0373790058016777,-0.016347250623628497
1772537070371918800,2.4609189453125,-0.12068828039020299,0.013278583768010138,0.02727203780710697
1772537070381985800,2.47098583984375,-0.09494096793234348,-0.010522563058137892,0.02550437054745853
1772537070392053800,2.4810537109375,-0.08173544940054416,0.0317804551422596,0.006931845089793205
1772537070402121700,2.491121826171875,-0.08064414703249931,0.065873863402009,-0.04632715914994478
1772537070412188700,2.501188720703125,-0.08844605295509099,0.06455518201887607,-0.07421689046397804
1772537070422257000,2.5112568359375,-0.027865619786083696,0.08834230031967162,-0.07385178347863257
1772537070432324900,2.521324951171875,0.03315525062680244,0.11536766988933085,-0.02646430162079632
1772537070442391800,2.531391845703125,0.0241445534363389,0.1171434473901987,-0.017015578339248896
1772537070452459800,2.541459716796875,-0.023845862750709056,0.13580840037167072,-0.032928456133604046
1772537070462526700,2.551526611328125,-0.038872459229826926,0.153150580316782,-0.0021085165865719316
1772537070472595000,2.561594970703125,-0.02570142748951912,0.16169278321266173,0.025887013189494608
1772537070482663000,2.571662841796875,-0.05218728335499763,0.13910685739517212,-0.016801570262387395
1772537070492729900,2.581729736328125,-0.07198328619301318,0.1177624560713768,-0.037492695309221745
1772537070502797800,2.5917978515625,-0.07303133394122123,0.0928267522573471,-0.02367664366364479
1772537070512864800,2.60186474609375,-0.11846563590466976,0.048778351694345475,-0.0392638697002083
1772537070522932700,2.6119326171875,-0.14752631069421768,0.023090952730178832,-0.07888765875399112
1772537070533001000,2.6220009765625,-0.182384565846622,0.0004804769933223724,-0.09511018701940774
1772537070543068000,2.63206787109375,-0.17371230683028696,-0.0025227964758872986,-0.08000811415128409
1772537070553135900,2.642135986328125,-0.14623217923045156,0.007024784070253372,-0.09129932349435985
1772537070563203800,2.652203857421875,-0.16430238118916748,-0.022029460978507994,-0.13720358105711639
1772537070573270800,2.662270751953125,-0.1596551399052143,-0.03420680550634861,-0.1305426618631929
1772537070583339000,2.672339111328125,-0.1295367727562785,-0.014013327783346175,-0.1323384592387825
1772537070593406000,2.682406005859375,-0.11984101591110229,0.004961421799659729,-0.10092603369131684
1772537070603474000,2.692473876953125,-0.10095014521926642,0.028314824858307837,-0.06254859143681823
1772537070613542000,2.7025419921875,-0.10300094026923179,0.03032850276827812,-0.0403453082613647
1772537070623608800,2.71260888671875,-0.06299976927042007,0.05505787035524845,-0.023362974604591726
1772537070633676800,2.7226767578125,-0.05680909793674945,0.06591594897806644,-0.011577113612368703
1772537070643745000,2.7327451171875,-0.04432838654816151,0.09790390939116478,0.01382474640868604
1772537070653812000,2.74281201171875,-0.03606792320311069,0.0960901379674673,0.04139649781472981
1772537070663880000,2.7528798828125,-0.034709202070534226,0.08125088075399399,0.06214768248572945
1772537070673947000,2.76294677734375,-0.04193360036611557,0.08782792105674743,0.04800597908236086
1772537070684014800,2.773014892578125,-0.032120062360167505,0.06951251216530799,0.0195789260212332
1772537070694083000,2.7830830078125,-0.06986877825707197,0.03988368209898471,0.000033829204365611074
1772537070704150000,2.79314990234375,-0.05638239695727825,0.04575461995899677,-0.009692688105255365
1772537070714218000,2.803218017578125,-0.04522036695182323,0.04130816194415092,-0.0011172405268996953
1772537070724285000,2.813284912109375,-0.04662321948707104,0.0638350510507822,-0.0020707418594509363
1772537070734353000,2.823352783203125,-0.0705149672061205,0.06924480113983154,0.002674918297678232
1772537070744420900,2.8334208984375,-0.05832417867481708,0.0908358707010746,0.02935549301765859
1772537070754488000,2.843488037109375,-0.08066723564714193,0.09180500799417496,0.020542583421617744
1772537070764556000,2.85355615234375,-0.16987608966827392,0.03769932379722595,-0.08494030985645949
1772537070774623700,2.863623779296875,-0.20528058052659034,0.0024269348859786988,-0.12848580239862203
1772537070784691000,2.87369091796875,-0.13599077120125294,0.0004816460371017456,-0.08236782901994884
1772537070794759000,2.883759033203125,-0.05559533823281526,0.0034323125362396237,-0.03514079842083156
1772537070804825900,2.893825927734375,-0.04500672420114279,0.031873978644609446,-0.046279374485462904
1772537070814893800,2.903893798828125,-0.057579497787356375,0.07199030045568942,-0.011862068033590913
1772537070824961500,2.91396142578125,-0.05184387674480676,0.14049977305829525,-0.00942958018966019
1772537070835028700,2.92402880859375,-0.01599777959883213,0.17129589333832262,0.06222725052796304
1772537070845096700,2.9340966796875,0.005671615895628929,0.13504384573996067,0.07755027267038822
1772537070855164000,2.944163818359375,-0.06045183835327625,0.12569500263631342,0.005408434914797544
1772537070865232000,2.95423193359375,-0.1079737602457404,0.14414543608427047,-0.03513246898390353
1772537070875299600,2.964299560546875,-0.04728606730997562,0.13845628453195094,0.029300694090500474
1772537070885366800,2.97436669921875,-0.04073912988454103,0.10297814391553402,0.026144129755720495
1772537070895434800,2.984434814453125,-0.066754153367877,0.07122633034586906,0.007950009156391024
1772537070905502700,2.994502685546875,-0.06676905867606402,0.06714461399018765,0.03732040748223662
1772537070915569700,3.004569580078125,-0.05999474223554134,0.060113400179147715,0.035263182691484686
1772537070925637600,3.0146376953125,-0.12457798130512236,0.015392214921116828,0.02177862802259624
1772537070935704800,3.024704833984375,-0.15631021339148282,0.042918519750237465,0.001651347403600812
1772537070945772500,3.0347724609375,-0.16637071189582348,0.05518880325853824,-0.01019208899475634
1772537070955840800,3.0448408203125,-0.23456980337500571,0.011876315754652023,-0.020673735520616174
1772537070965907700,3.05490771484375,-0.2708718275949359,-0.014870236873626708,-0.05058021348454058
1772537070975975700,3.0649755859375,-0.2774927070394158,-0.027989830687642096,-0.10613514664173125
1772537070986042600,3.075042724609375,-0.23111878613829612,-0.043944940188527105,-0.059534723508358
1772537070996110600,3.085110595703125,-0.15227379748225212,-0.044507834768295285,-0.002552680157497525
1772537071006178800,3.0951787109375,-0.1125055584564805,-0.02457271572053432,-0.0405532519236207
1772537071016245800,3.105245849609375,-0.12143208449482917,-0.05073123932778835,-0.0541671320606023
1772537071026313700,3.115313720703125,-0.07130524080097675,-0.03453063063323498,-0.02127805808931589
1772537071036381700,3.125381591796875,-0.018787410317361353,0.014928689062595367,0.011562427499890327
1772537071046448600,3.13544873046875,-0.06653788026869296,0.046886254337429996,-0.004863295187428594
1772537071056516600,3.1455166015625,-0.09303133491873741,0.08644435774385928,-0.013445903158932923
1772537071066583800,3.155583740234375,-0.0748585493683815,0.10419979466497897,0.004948123926669359
1772537071076651800,3.16565185546875,-0.021515666237473488,0.12427461444437503,0.03141147569939494
1772537071086719700,3.1757197265625,-0.016502221989631652,0.11699731691777705,0.011298004410043357
1772537071096786700,3.18578662109375,-0.01109656355381012,0.1264198097795248,-0.01409808345735073
1772537071106854700,3.195854736328125,0.021979776617884635,0.1456172622025013,-0.022565686747059225
1772537071116921600,3.205921630859375,0.010976152044534683,0.1165770456790924,-0.037183410164341325
1772537071126989800,3.21598974609375,-0.11305997746884822,0.09404664944112301,-0.12209668588340282
1772537071137057800,3.226057861328125,-0.1585439637929201,0.0918769041866064,-0.16355528914891182
1772537071147124700,3.236124755859375,-0.10488602336347103,0.0670633654475212,-0.11604688432514666
1772537071157192700,3.246192626953125,-0.06791969001591205,0.022892215287685393,-0.052846331785619254
1772537071167260700,3.2562607421875,-0.04868482819199562,0.047559623554348944,-0.03150185739658773
1772537071177327900,3.266327880859375,-0.05550765994936228,0.06435936718583106,0.0004923135615885258
1772537071187395800,3.276395751953125,-0.09479425293803215,0.08144318845570087,0.008347703237086534
1772537071197462800,3.286462890625,-0.13572481374144554,0.10091127451360225,-0.02268419856019318
1772537071207530800,3.29653076171875,-0.13904577485769987,0.1313432376563549,-0.03439246427156031
1772537071217598700,3.3065986328125,-0.15743775611668825,0.10852408760488033,-0.07036847140751779
1772537071227665700,3.316665771484375,-0.1390656486019492,0.058035424861311906,-0.0804929019935429
1772537071237734000,3.32673388671875,-0.07796732903867959,0.051554830670356745,-0.055262526081874964
1772537071247800800,3.33680078125,-0.04596095618605613,0.05507599053382873,-0.06937003495469689
1772537071257868800,3.346868896484375,-0.08656710734069346,0.0038058220237493514,-0.10697101294398308
1772537071267936800,3.356936767578125,-0.12004179918020963,-0.01993044287264347,-0.12626096595600247
1772537071278003700,3.367003662109375,-0.1023778399348259,-0.00033259295523166654,-0.10490297449827193
1772537071288072000,3.377072021484375,-0.09142536102682351,-0.002734393399953842,-0.11154102427326142
1772537071298140000,3.387139892578125,-0.0826861742541194,-0.0037573067069053647,-0.08461838442571461
1772537071308206800,3.397206787109375,-0.028253450059890745,0.016896774265170098,-0.059709130227193236
1772537071318274800,3.40727490234375,0.022307693397998807,0.024642858347296712,-0.027061902187764643
1772537071328341800,3.417341796875,0.054906479185819625,0.03334405119717121,-0.027736951905116436
1772537071338409700,3.42740966796875,0.037412323549389837,0.06318038653433322,-0.03629924774095416
1772537071348478000,3.43747802734375,0.01691460218280554,0.08357493978738784,-0.05770904245115816
1772537071358545000,3.447544921875,-0.015594751755893229,0.0884784939199686,-0.08801759840995073
1772537071368612900,3.45761279296875,-0.03145955262482166,0.0780342567950487,-0.07661766799539327
1772537071378679800,3.4676796875,-0.022072131076455115,0.07648878091871739,-0.02818177306316793
1772537071388747800,3.477747802734375,-0.04356120156794786,0.08523439743220805,0.006987520799785852
1772537071398815700,3.487815673828125,-0.05408960984498262,0.07100888820290566,0.01499817410223186
1772537071408883000,3.497883056640625,-0.06942191127240657,0.03680032913088798,-0.02635243874415755
1772537071418951000,3.507950927734375,-0.12412731492817401,0.01656242774426937,-0.07017521385774016
1772537071429018600,3.5180185546875,-0.17215864764750002,0.02651566648185253,-0.08046974031366408
1772537071439085800,3.5280859375,-0.1885226302102208,0.04580021266639232,-0.05626710001453757
1772537071449153500,3.538153564453125,-0.17881839779764414,0.04646715214252472,-0.013859671591594815
1772537071459220700,3.548220703125,-0.15563655191361903,0.04106324727237224,0.027923049061745402
1772537071469288700,3.558288818359375,-0.1325119891747832,0.046285950356721874,0.043389498262852426
1772537071479356700,3.568356689453125,-0.10090747512131928,0.07285889998376369,0.039376828555390236
1772537071489424000,3.578423828125,-0.07615092726647854,0.06365443378686904,0.034947102479636664
1772537071499491600,3.58849169921875,-0.017211831563711165,0.05718143838047981,0.07610438471101225
1772537071509558800,3.598558837890625,0.013124562250077723,0.05272562801539898,0.11403949002549052
1772537071519626800,3.608626708984375,-0.03174450704604387,0.04959142164289951,0.07375767545439302
1772537071529694700,3.61869482421875,-0.10756313361823558,0.07693827825188636,0.019069807455316185
1772537071539761700,3.62876171875,-0.11484978349506854,0.09694587801396846,0.02120243556983769
1772537071549829600,3.63882958984375,-0.12351824311912059,0.10244213734269142,0.021641996030882
1772537071559897600,3.648897705078125,-0.14350509235411882,0.09639876552522182,-0.00679733198992908
1772537071569964500,3.658964599609375,-0.10757511631697415,0.09545534719526767,0.03694470603764057
1772537071580032800,3.66903271484375,-0.0830623140901327,0.08468260876834392,0.05625555570721626
1772537071590099700,3.679099609375,-0.120718091006577,0.05173953958749771,0.040624052137508984
1772537071600167700,3.689167724609375,-0.1461445009469986,0.05305412931740284,0.02686915609464049
1772537071610235600,3.699235595703125,-0.17301760256439447,0.05926642796099186,0.000020604396611452103
1772537071620302600,3.709302490234375,-0.1932367992505431,0.038571430456638335,0.002933788429573178
1772537071630370800,3.719370849609375,-0.18034370766878127,0.06535831509530544,-0.009697729606553912
1772537071640437800,3.729437744140625,-0.13811989218443632,0.05444470689296722,-0.027966011420637368
1772537071650505700,3.739505615234375,-0.07458528538495302,0.04286240564882755,-0.008758037603646516
1772537071660573700,3.74957373046875,-0.05589636700600385,-0.0005646481454372405,-0.023276026973500848
1772537071670640600,3.759640625,-0.047502924931049344,0.05956745673418045,-0.1190525689471513
1772537071680708600,3.76970849609375,-0.049075873336195945,0.015077157622575759,-0.10818922962732612
1772537071690776800,3.77977685546875,0.010981997263431548,0.05041442846357822,-0.0553410712108016
1772537071700843800,3.78984375,-0.010672785183787345,0.06495207238197326,-0.05198094712793827
1772537071710911700,3.799911865234375,-0.05056815772056579,0.045263621571660036,-0.056784109625965355
1772537071720978700,3.809978759765625,-0.03909662337452173,0.06637655222713947,-0.04119534921944141
1772537071731046700,3.820046630859375,-0.039082010327279565,0.06482055495679379,-0.013732976472005247
1772537071741115000,3.830114990234375,-0.043108489364385605,0.05674889218211174,-0.005627265297248959
1772537071751181800,3.840181884765625,-0.02574702019691467,0.04464753549993038,-0.04789579670615494
1772537071761249800,3.850249755859375,-0.028507132560014723,0.006000701719522476,-0.07424881997220217
1772537071771316700,3.860316650390625,-0.030438977405428884,-0.029150106638669966,-0.05931085162460804
1772537071781385500,3.870385498046875,-0.016601006188988684,-0.014691373175382614,-0.044071708373352884
1772537071791453400,3.880453369140625,0.0165916538387537,0.01182546235024929,-0.04277217008210718
1772537071801520400,3.890520263671875,-0.017249825486540794,0.02885141595304012,-0.007690992894023656
1772537071811588600,3.900588623046875,-0.048257542690634724,0.06497896038889885,-0.0032813597582280634
1772537071821656600,3.910656494140625,-0.0863917507737875,0.07606617159247397,-0.0010937135208398104
1772537071831723500,3.9207236328125,-0.1656470737963915,0.0730588064700365,-0.007756459345668554
1772537071841791500,3.93079150390625,-0.22909400231242177,0.05087386266887187,-0.030010449795052407
1772537071851858400,3.9408583984375,-0.20473463708162307,0.03588204524219036,-0.007248144497349858
1772537071861926700,3.9509267578125,-0.1463552210882306,0.050990182524919506,-0.01790368628539145
1772537071871994400,3.960994384765625,-0.11283581332415342,0.007595277434587478,-0.037627135343849656
1772537071882061600,3.9710615234375,-0.07650748561918735,-0.010664017355442047,-0.04782207388281822
1772537071892129500,3.981129638671875,-0.03020867578089237,0.009065349987149238,-0.04475077667869627
1772537071902196500,3.991196533203125,-0.03142974200844764,0.03329787396788597,-0.05889087264686822
1772537071912264400,4.001264404296875,-0.06961334219127893,0.02173603098988533,-0.04166625466682017
1772537071922332400,4.01133251953125,-0.10302958184182644,0.05673135652542114,-0.0012417436894029377
1772537071932399600,4.021399658203125,-0.12187632113099098,0.09684066407382488,0.031115415362268684
1772537071942467300,4.03146728515625,-0.1234717736288905,0.12166706229448318,0.05533486066572368
1772537071952535300,4.041535400390625,-0.09139116649627685,0.13774550591409204,0.09126330233290791
1772537071962602500,4.0516025390625,-0.031121991233527657,0.16311609401404856,0.1232652182061225
1772537071972670500,4.06167041015625,-0.024589959116280077,0.1636415791928768,0.03518354158401489
1772537071982737700,4.071737548828125,-0.0992778280928731,0.08014613438248634,-0.07868285689689218
1772537071992805400,4.081805419921875,-0.14678513693809508,0.0065390463799238204,-0.12493337061405181
1772537072002873300,4.091873291015625,-0.06861760915219783,0.01716857694387436,-0.05449840984158218
1772537072012940300,4.101940185546875,-0.0025520225703716277,0.03950257382690906,-0.015535276653617619
1772537072023008300,4.11200830078125,-0.06775719293057918,0.019788988575339315,-0.04983392516188323
1772537072033075500,4.122075439453125,-0.13423954361975193,0.03440086677372455,-0.05093421455398202
1772537072043143400,4.132143310546875,-0.10437895062416791,0.07243979778885841,0.01620389663018286
1772537072053211400,4.14221142578125,-0.06781418381482363,0.07484744345247744,0.04194726356528699
1772537072063278300,4.1522783203125,-0.10179887100309133,0.08302198207974433,-0.002891264462098479
1772537072073346300,4.16234619140625,-0.11782675347924232,0.09817571206986904,-0.01157075693681836
1772537072083414500,4.17241455078125,-0.03162468005865812,0.13130232112407683,0.03476670441143215
1772537072093481500,4.1824814453125,0.012862111921608447,0.1129740527510643,0.03609751462377608
1772537072103549400,4.192549560546875,-0.0722770084425807,0.051716158711910244,-0.02396072130203247
1772537072113616400,4.202616455078125,-0.10890081196278333,0.06496084021031856,-0.06793276869319378
1772537072123684400,4.212684326171875,-0.05848784480392932,0.09501520221233367,-0.04993943136297166
1772537072133752300,4.22275244140625,-0.05463993720412254,0.05927227317988872,-0.08348791909106075
1772537072143819500,4.232819580078125,-0.048937341648340224,0.03907236571609974,-0.08326675062105059
1772537072153887500,4.242887451171875,0.03980857103615999,0.07384206580221653,-0.013011530329659581
1772537072163954400,4.252954345703125,0.07376286308616399,0.07858429189324379,0.04170001080594957
1772537072174022400,4.2630224609375,0.009437105908989905,0.0371960504502058,0.0350323696102947
1772537072184090400,4.27309033203125,-0.0753249978363514,0.031363691034913065,0.04437149503752589
1772537072194157300,4.2831572265625,-0.08765373353362083,0.062919689771533,0.0717612409401685
1772537072204225500,4.2932255859375,-0.06697773299068212,0.060467035922408104,0.07148359304256736
1772537072214293500,4.30329345703125,-0.0793418322622776,0.023097382470965384,0.02689933203719556
1772537072224360400,4.3133603515625,-0.07285334702581167,0.02763794851005077,-0.015495017708465456
1772537072234428400,4.323428466796875,-0.08191752796918153,0.03472586094439029,-0.0774137868091464
1772537072244495400,4.333495361328125,-0.14810352606028318,0.006841244196891784,-0.09403305930718779
1772537072254563600,4.3435634765625,-0.17672259456217287,0.008037175983190536,-0.07240501873642206
1772537072264631600,4.353631591796875,-0.16084756456017493,0.046671734803915024,-0.01744308303631842
1772537072274698500,4.363698486328125,-0.15681056412905453,0.04844634326100349,0.021300635247305036
1772537072284766500,4.373766357421875,-0.14721768313646316,0.05170329923033714,0.024870383492857216
1772537072294833400,4.38383349609375,-0.15381109005212784,0.04985153388381004,0.019576880194619298
1772537072304901400,4.3939013671875,-0.12405658777952193,0.06920096199810505,0.006224135211855173
1772537072314969600,4.403969482421875,-0.09338555518388747,0.055119829675555225,0.029703794998675582
1772537072325036500,4.41403662109375,-0.0429039067029953,0.06510404807329177,0.01774155452623963
1772537072335104500,4.4241044921875,-0.049151861181855196,0.06886369286775589,-0.02876855997517705
1772537072345172500,4.43417236328125,-0.0344774391412735,0.07324234634339809,-0.036583033118396995
1772537072355239400,4.444239501953125,-0.023874212062358856,0.07406652220785617,-0.038191491228342055
1772537072365307600,4.4543076171875,-0.03399316275566816,0.06294307064712047,-0.02508468383066356
1772537072375374600,4.46437451171875,-0.02381225274205208,0.08597498666644096,-0.025794585665687916
1772537072385442600,4.474442626953125,-0.025406243935227394,0.08442308104932307,0.0009389613505452871
1772537072395510500,4.484510498046875,-0.01982990510761738,0.06499883413314819,-0.006739318192377686
1772537072405577500,4.494577392578125,-0.04705722699016333,0.0452262121707201,-0.03649820437915623
1772537072415645400,4.5046455078125,-0.09724690678715706,0.01210427929162979,-0.07876293639577925
1772537072425712400,4.51471240234375,-0.15556582476496694,0.004839841246604919,-0.12416815839521586
1772537072435780600,4.524780517578125,-0.14915303511321543,-0.011646014130115508,-0.10896445178352296
1772537072445848600,4.5348486328125,-0.08073650149106978,0.0015448913544416428,-0.04896642161235213
1772537072455915500,4.54491552734375,-0.04144318650066852,0.032037644773721695,-0.010859028470888734
1772537072465983500,4.5549833984375,-0.04061462672203779,0.043806408500671384,0.011193594187498093
1772537072476051500,4.565051513671875,-0.09906564664691686,0.04017594304382801,-0.03229688023179769
1772537072486118700,4.57511865234375,-0.14280454286932945,0.04652501980960369,-0.03369863678850234
1772537072496186400,4.585186279296875,-0.11484218471050262,0.07151742224693299,0.01467690625861287
1772537072506253600,4.595253662109375,-0.07857552406489848,0.09103460814356804,0.0615188099976629
1772537072516321500,4.605321533203125,-0.06624298897534608,0.08957797959446906,0.06898468889892101
1772537072526389200,4.61538916015625,-0.05920476090162992,0.09743044666051864,0.0648564299877733
1772537072536456400,4.62545654296875,-0.057040568605065345,0.0850976193100214,0.05240772117264569
1772537072546524400,4.6355244140625,-0.11124269891381264,0.050210430324077605,0.005468348408490419
1772537072556592400,4.64559228515625,-0.11036387025266885,0.03256955969333648,-0.023868951365351675
1772537072566659300,4.655659423828125,-0.09158347419798374,0.02000876880586147,-0.048353185084834695
1772537072576727300,4.665727294921875,-0.10325725311785935,0.0018558569997549055,-0.06988865200132131
1772537072586794500,4.67579443359375,-0.08372194704264402,0.006425064611434936,-0.0807527950387448
1772537072596862500,4.685862548828125,-0.09065992961227894,0.022118892827630042,-0.08165303181409836
1772537072606930400,4.695930419921875,-0.10386252553462981,0.036837154009938235,-0.09471789976619184
1772537072616997400,4.705997314453125,-0.09625497314035891,0.0549772063344717,-0.06717844319455325
1772537072627065300,4.7160654296875,-0.0630769261598587,0.07246551675200462,-0.023184622363001107
1772537072637132300,4.72613232421875,-0.05998480536341667,0.06937982569634914,-0.005256532288715243
1772537072647200500,4.736200439453125,-0.04442191005051136,0.07581307361423968,-0.002864522585645318
1772537072657268500,4.7462685546875,-0.017651684285700322,0.07176292144060134,-0.007993848298117518
1772537072667335400,4.75633544921875,-0.0064954994991421695,0.07271978377401829,0.007071326625719666
1772537072677403400,4.7664033203125,-0.002009001734852791,0.09267945274114608,-0.009541954522952437
1772537072687471400,4.776471435546875,0.006358721376955509,0.09695230775475501,-0.004118906560912728
1772537072697538300,4.786538330078125,-0.02261427512913942,0.08763444431126118,-0.02718414032794535
1772537072707606500,4.7966064453125,-0.048043899939954275,0.09626432549059391,-0.03559636016860604
1772537072717673500,4.806673583984375,-0.060870648287236685,0.08965279839634895,-0.02077200826331973
1772537072727741400,4.816741455078125,-0.04859188921153545,0.09499942012131214,0.0035320465836673975
1772537072737809400,4.826809326171875,-0.05462123250365257,0.08568097215592861,0.03710413438305259
1772537072747876400,4.83687646484375,-0.0621311697423458,0.06659574793577194,0.010697262037917972
1772537072757944600,4.846944580078125,-0.05038344880342483,0.07423194190263747,0.007627133877575397
1772537072768011500,4.857011474609375,-0.03724164315760135,0.08396832301914692,0.024220468216761944
1772537072778079200,4.867079345703125,-0.0191252639696002,0.08181845150887966,0.04152509263046086
1772537072788147200,4.877147216796875,-0.06266776083707809,0.07005787108838558,0.038725378909334536
1772537072798214100,4.887214111328125,-0.10728694702535867,0.06842939310371875,0.015203560481220483
1772537072808282400,4.897282470703125,-0.1505596870407462,0.0694464611917734,-0.003616363866254687
1772537072818350300,4.907350341796875,-0.11431085431277752,0.06769348004460335,0.015712605981901287
1772537072828417300,4.917417236328125,-0.0984954455435276,0.06916179903149604,0.02259907756000757
1772537072838485200,4.9274853515625,-0.11774550493657589,0.049914077726006506,-0.00899359992519021
1772537072848552200,4.93755224609375,-0.09599544542133807,0.04808043255805969,-0.010786255495622753
1772537072858620200,4.9476201171875,-0.04004091848731041,0.049293315479159355,0.020281886658817527
1772537072868688400,4.9576884765625,-0.007775310176610946,0.03863981951773166,0.018571137218177318
1772537072878755300,4.96775537109375,-0.008559154030680655,0.024161796832084654,0.027842531171441077
1772537072888823300,4.9778232421875,-0.016665888118743897,0.015936404800415038,0.02145626420043409
1772537072898890200,4.98789013671875,-0.027573651102185247,-0.008666706058382987,0.006963336206600069
1772537072908958200,4.997958251953125,-0.07797638912796974,-0.012279635858535766,-0.03326901319958269
1772537072919026400,5.0080263671875,-0.12528642183542252,-0.027613983112573622,-0.09335625602416693
1772537072929093400,5.01809326171875,-0.15168196906894443,-0.02674304549694061,-0.11630619284845888
1772537072939161300,5.028161376953125,-0.15354396354854105,-0.016783961540460586,-0.09051073039993643
1772537072949229300,5.038229248046875,-0.12695756991803644,-0.00748714088499546,-0.07640848222412168
1772537072959296300,5.048296142578125,-0.11771715562492609,-0.02998305033147335,-0.06687113081105053
1772537072969364200,5.0583642578125,-0.1119298043951392,-0.02230243270099163,-0.059512950067967176
1772537072979431200,5.06843115234375,-0.1168923952385783,-0.002072130098938942,-0.061421998559683555
1772537072989499400,5.07849951171875,-0.10071955133378505,0.026978607818484306,-0.043663419833406804
1772537072999567400,5.0885673828125,-0.08653554315865039,0.02798223190307617,-0.0015887304961681365
1772537073009634300,5.09863427734375,-0.06131283909678459,0.060111646613478655,-0.014822890600562095
1772537073019702300,5.108702392578125,-0.032197803771495816,0.08333177868127822,-0.011667568374797701
1772537073029770500,5.1187705078125,-0.007872925332188606,0.08625731073915958,-0.010538052888214588
1772537073039837400,5.12883740234375,0.004677344161272049,0.0917068083167076,-0.03670819386802614
1772537073049905400,5.138905517578125,0.011523849055171013,0.10274316611588001,-0.050332157007604836
1772537073059972400,5.148972412109375,0.010726268936693668,0.10987199508249759,-0.051984454259276384
1772537073070040300,5.159040283203125,0.008400748598575591,0.09103110101222991,-0.040425753086432814
1772537073080108300,5.1691083984375,0.01414689103513956,0.08714344592392444,-0.038867271598055954
1772537073090175200,5.17917529296875,0.02383563361763954,0.07338906133770942,-0.03373465794995427
1772537073100243500,5.189243408203125,-0.02021978120803833,0.05801145946383476,-0.038455402861535544
1772537073110310400,5.199310302734375,-0.033036300422251225,0.05532441233694553,-0.011108253991603851
1772537073120378400,5.20937841796875,-0.035865678629279134,0.06779635589718819,0.007599442153051495
1772537073130446000,5.219446044921875,-0.07350216632336377,0.06542611963450909,-0.009851751124486326
1772537073140513300,5.22951318359375,-0.09903642055243253,0.05086801744997501,-0.017618293472751973
1772537073150581200,5.239581298828125,-0.08732523223161696,0.04532324280440807,0.005354658900946378
1772537073160649200,5.249649169921875,-0.06333528483510018,0.0563975945264101,0.03373999171219766
1772537073170716200,5.259716064453125,-0.06652092913389206,0.06253390532433986,0.035612726781517265
1772537073180784000,5.2697841796875,-0.08647036896795034,0.040698505613207814,0.01859539487659931
1772537073190851300,5.279851318359375,-0.10564677860289812,0.03220657159984112,0.014889526095986365
1772537073200919000,5.2899189453125,-0.09051905983686447,0.045563481301069256,0.03400105380117893
1772537073210987300,5.2999873046875,-0.06421557480096816,0.027801030117273327,0.03955576531887054
1772537073221054200,5.31005419921875,-0.06887099939137697,0.011457798081636428,0.05378828881084919
1772537073231122200,5.3201220703125,-0.06259440333992243,0.017576573222875595,0.055286418414115905
1772537073241189000,5.330189208984375,-0.0520338463589549,0.056172553598880764,0.07067417635582388
1772537073251257000,5.340257080078125,-0.08220043656378984,0.060652913883328434,0.07689297780543565
1772537073261325300,5.3503251953125,-0.09132833039313554,0.05789046343266964,0.06590995762869716
1772537073271392300,5.360392333984375,-0.08836568119525909,0.07166939793825149,0.05810140276961028
1772537073281460200,5.370460205078125,-0.08418459611833096,0.06804653126597404,0.03062682812772691
1772537073291528200,5.380528076171875,-0.07350362762808799,0.021449615263938904,0.0183644356649369
1772537073301595100,5.39059521484375,-0.03725567168295383,-0.002055178964138031,-0.00897679492086172
1772537073311663000,5.4006630859375,-0.023901100069284437,-0.008083353212475776,-0.03996617275066674
1772537073321730300,5.410730224609375,-0.056315469200909136,-0.0004857376903295517,-0.04585734968110919
1772537073331798300,5.42079833984375,-0.07037818908393383,0.0228396083176136,-0.03617861703597009
1772537073341866200,5.4308662109375,-0.0694666271969676,0.0485462965041399,-0.018355229445174336
1772537073351933200,5.44093310546875,-0.07151829902976752,0.04111994589567184,0.00020012568198144435
1772537073362001200,5.451001220703125,-0.07998743668943643,0.057789925667643544,-0.005439926031604409
1772537073372069400,5.4610693359375,-0.031182781510055064,0.07197334932088852,0.012684417267143725
1772537073382136300,5.47113623046875,-0.020001170021295547,0.06737374657094478,-0.014144114556163549
1772537073392204300,5.481204345703125,-0.018418869265913962,0.037188451665639874,-0.03334880043752491
1772537073402271200,5.491271240234375,-0.01271773501485586,0.03669336162507534,-0.05323913049548864
1772537073412339200,5.501339111328125,-0.048481414574384686,0.025543022057414055,-0.09458258294872939
1772537073422407200,5.5114072265625,-0.04971767837107181,0.006444353833794593,-0.1060787402793765
1772537073432474400,5.521474365234375,-0.03366612275838852,-0.009535305586457252,-0.09545768528282642
1772537073442542300,5.531542236328125,-0.03392038978040218,0.006868716725707054,-0.06567651419900357
1772537073452609300,5.541609375,-0.025362989315390584,0.027233459362387656,-0.038333310851827264
1772537073462677200,5.55167724609375,-0.010966215172410011,0.05008125098645687,-0.002672799405828118
1772537073472745200,5.5617451171875,-0.033196459420025345,0.06982347781062126,0.009665142511203885
1772537073482812200,5.571812255859375,-0.05960837326645851,0.0614735826164484,0.006755027218163013
1772537073492880400,5.58188037109375,-0.057760991834104054,0.06295651465058326,0.03880735810436308
1772537073502948400,5.5919482421875,-0.042130584242939945,0.08903963493406772,0.04755502044446766
1772537073513015300,5.602015380859375,-0.06930763724297284,0.06158113464415073,-0.001455970961973071
1772537073523083300,5.612083251953125,-0.09112433225363492,0.04930559043884277,-0.028163506754115223
1772537073533150200,5.622150146484375,-0.05289017092734575,0.05433189416825771,-0.011012027075514196
1772537073543218400,5.632218505859375,-0.03090454909056425,0.06185936706364154,-0.029009602189436552
1772537073553286400,5.642286376953125,0.0008957797959446907,0.036406361377239224,0.00809336314983666
1772537073563353300,5.652353271484375,0.017519582338631153,0.02980477115511894,0.04574300258643925
1772537073573421300,5.66242138671875,-0.007792261311411857,0.029545827957987783,0.05967537408806383
1772537073583488300,5.67248828125,-0.07048164945840835,0.0270136791318655,0.034236762253195045
1772537073593556200,5.68255615234375,-0.12594079409092665,0.012124153035879135,0.0011035042624920606
1772537073603624400,5.69262451171875,-0.14792787723243236,0.0170230309933424,-0.030569325786828992
1772537073613691400,5.70269140625,-0.1490548354357481,0.033223639687895774,-0.05854315518774092
1772537073623759400,5.71275927734375,-0.10796323885172605,0.043945524710416795,-0.046013417025655506
1772537073633827300,5.722827392578125,-0.06269260301738977,0.04460544992387294,-0.04531703225933015
1772537073643894300,5.732894287109375,-0.06635901657044888,0.013750877454876898,-0.0312248670861125
1772537073653962500,5.74296240234375,-0.056331543552875514,0.03277531139850616,-0.005071384980157017
1772537073664031200,5.75303125,-0.01433598386645317,0.05504384182989597,0.034967414615303276
1772537073674098200,5.76309814453125,0.017208908954262733,0.046646015840768815,0.08089899857640266
1772537073684166100,5.773166259765625,-0.015468495027720927,0.03909808467924595,0.0582601735278964
1772537073694234400,5.783234375,-0.08935644579827785,0.0035129765570163724,-0.021692411043867467
1772537073704301300,5.79330126953125,-0.1179231995910406,0.0029740473747253415,-0.04874159988053143
1772537073714369300,5.803369384765625,-0.07011632327735423,-0.0010971475869417189,-0.017591040139645336
1772537073724437200,5.813437255859375,-0.06225567290484905,0.010431962165236473,-0.02287234154343605
1772537073734504200,5.823504150390625,-0.10336305157989263,0.01968377463519573,-0.04028912109471857
1772537073744572200,5.833572265625,-0.13490472953021526,-0.003129530197381973,-0.0697663407959044
1772537073754639000,5.84363916015625,-0.09923018955886363,0.014009820652008056,-0.04025565721653401
1772537073764707300,5.853707275390625,-0.05529898563474416,0.05135901583731174,-0.01932582804299891
1772537073774775300,5.863775390625,-0.07012918275892734,0.04920037649869918,-0.022975948048382995
1772537073784842200,5.87384228515625,-0.06271802971959113,0.05932312658429145,-0.004199278320744634
1772537073794910500,5.883910400390625,-0.0379237802028656,0.08142565279901028,0.0302176628049463
1772537073804977400,5.893977294921875,-0.07815349926054477,0.1051876366585493,0.010004530533403158
1772537073815045400,5.90404541015625,-0.08473609252125024,0.12223346400558947,0.008579393101111055
1772537073825113300,5.91411328125,-0.061574704903364176,0.12699673288464544,0.025681846006214617
1772537073835180300,5.92418017578125,-0.04382452867925167,0.13522855465710162,0.025807737408205866
1772537073845248300,5.934248291015625,-0.06929828489273786,0.13186872283518314,-0.02156381622813642
1772537073855316500,5.94431640625,-0.07019289564490318,0.11942775893509387,-0.01708433272652328
1772537073865383400,5.954383544921875,-0.003942015624046325,0.10958148770332336,-0.00649016573689878
1772537073875451400,5.964451416015625,-0.0044458734929561615,0.0737736767411232,-0.012587240502983332
1772537073885518300,5.974518310546875,-0.024299159476161,0.049022681844234466,-0.020201368768513202
1772537073895586300,5.98458642578125,-0.018800854320824144,0.06681786625385285,-0.010328136464580893
1772537073905654500,5.994654541015625,-0.035654958488047124,0.0758212569206953,0.020317323298379777
1772537073915721500,6.004721435546875,-0.02412672551870346,0.09696867436766624,0.020247107606381178
1772537073925789400,6.01478955078125,-0.07268734280914067,0.10083996284306049,-0.03469751163274049
1772537073935857400,6.024857421875,-0.08660860839486122,0.08365151215493678,-0.053668534888699646
1772537073945924400,6.03492431640625,-0.03442746251970529,0.0702004944294691,-0.020179156936705113
1772537073955992300,6.044992431640625,-0.004613923536241054,0.039326048216223715,-0.010454612388461827
1772537073966059500,6.0550595703125,-0.02948532994240522,0.005703764599561691,-0.04796893500760197
1772537073976127500,6.06512744140625,-0.055396600790321826,-0.00443067592382431,-0.056163639640063046
1772537073986195200,6.0751953125,-0.05445552054792642,-0.008749123644828796,-0.059475175340846176
1772537073996262400,6.085262451171875,-0.04347527685016393,-0.029086978274583813,-0.027410861755907533
1772537074006330400,6.095330322265625,-0.028326515296101567,-0.011419219636917114,-0.04399535520151257
1772537074016398300,6.1053984375,-0.032256255960464476,-0.01767126576900482,-0.019688377745077014
1772537074026465500,6.115465576171875,-0.02946984011232853,-0.00717559071779251,-0.0156391023542732
1772537074036533200,6.125533203125,-0.05600041190236806,-0.0024421324551105496,-0.03208163004592061
1772537074046600400,6.135600341796875,-0.0410454193547368,0.018270985227823257,-0.02343801260218024
1772537074056668200,6.145668212890625,-0.03426058152019977,0.023279168778657912,-0.016757146598771214
1772537074066736000,6.155736083984375,0.004533551776409149,0.011558920368552206,0.0345220089353621
1772537074076803300,6.16580322265625,0.0496548422679305,0.04349953450858593,0.061102265086024996
1772537074086871300,6.175871337890625,0.01638473308980465,0.0264081144541502,0.029235373769327996
1772537074096938500,6.1859384765625,-0.0435749378323555,0.017098434317111968,-0.017509353205561635
1772537074107006200,6.196006103515625,-0.05861410153210163,0.03000000146627426,-0.0019702040944248435
1772537074117074200,6.20607421875,-0.0947331704005599,0.06038111120462417,-0.03510368128083646
1772537074127141000,6.21614111328125,-0.10935615451484917,0.05389350275099277,-0.05173932039178908
1772537074137209300,6.226209228515625,-0.10150018031746148,0.021350246542692183,-0.028201792937889693
1772537074147277300,6.23627734375,-0.07746668604016303,-0.0000046761751174926755,-0.023353841450065374
1772537074157344300,6.24634423828125,-0.07453297067582607,0.004288052582740783,-0.040657369885221124
1772537074167412200,6.256412109375,-0.0603252893641591,0.01984510267674923,-0.0452586531355977
1772537074177479200,6.266479248046875,-0.021365444111824033,0.02800444373488426,-0.0002801321156322956
1772537074187547400,6.27654736328125,0.001340308693051338,0.05591945562064647,0.03199212513156235
1772537074197615400,6.286615478515625,-0.018971242451667786,0.06217851601541042,0.043544323498383164
1772537074207682300,6.296682373046875,-0.038251696982979776,0.0706231037557125,0.05425919425822794
1772537074217750300,6.306750244140625,-0.04239800300747156,0.09157119923830032,0.0605811638213694
1772537074227818200,6.316818359375,-0.08692074308395385,0.10101882654130458,0.04057648666873574
1772537074237885200,6.32688525390625,-0.0935369463533163,0.12028700611293315,-0.010205021541565657
1772537074247953400,6.336953369140625,-0.05788111108243465,0.11827449724674224,-0.022411299902945755
1772537074258020400,6.347020263671875,0.012692892834544181,0.07972177149057388,-0.007261077044159173
1772537074268088300,6.35708837890625,0.06382920583188534,0.04130348576903343,0.011310352434962987
1772537074278156300,6.36715625,0.07872516166865826,0.020788521006703375,0.028655820315703746
1772537074288223200,6.37722314453125,0.03337006242126226,0.0024146599262952805,0.03676007018573582
1772537074298291500,6.38729150390625,-0.027560207098722457,0.013145897299051284,0.04569602163955569
1772537074308359400,6.397359375,-0.054845688909292215,0.06132277596890926,0.040354295285418625
1772537074318426400,6.40742626953125,-0.09487754730731249,0.07278934187889098,-0.007855828066915272
1772537074328494300,6.417494384765625,-0.14374708441644907,0.062443304431438446,-0.06865874488018453
1772537074338561300,6.427561279296875,-0.1607218923538923,0.03747252930402756,-0.08039506764225661
1772537074348629200,6.437629150390625,-0.13878537035584448,0.03567804710268974,-0.08190627592280507
1772537074358697500,6.447697509765625,-0.10542495254576205,0.0299111541390419,-0.020205314291268588
1772537074368764400,6.457764404296875,-0.038948739336431025,0.051557753279805184,0.029493367118388413
1772537074378832400,6.467832275390625,-0.02061930191963911,0.07065466793775559,0.057874389080703255
1772537074388899300,6.4778994140625,-0.008173077322542667,0.08159984032213688,0.06307904505170882
1772537074398967300,6.48796728515625,-0.023873919801414012,0.09169453335702418,0.04604702703431248
1772537074409035500,6.498035400390625,-0.06372808354496956,0.08848317009508609,0.002094780322164297
1772537074419102500,6.5081025390625,-0.02601151635199785,0.07853285396695137,0.0023142682917416096
1772537074429170400,6.51817041015625,0.01843552813977003,0.0597743774831295,0.018357932858914135
1772537074439238400,6.52823828125,-0.013394903624057769,0.02855506335496902,-0.03850749837495386
1772537074449305300,6.538305419921875,-0.07064882271885871,0.011706219884753226,-0.10865969668328762
1772537074459373300,6.548373291015625,-0.07433072610199451,0.011470073041319846,-0.05212400886043906
1772537074469440300,6.558440185546875,-0.07690963667929172,0.03706862467825413,-0.033031258920952676
1772537074479508500,6.568508544921875,-0.09414777172803879,0.04196925620138645,-0.0007441694308072328
1772537074489576400,6.578576416015625,-0.08966858048737049,0.04571545699238777,0.024644758043438193
1772537074499643400,6.588643310546875,-0.04644289448410272,0.04871113167703151,0.052279857009276745
1772537074509711400,6.59871142578125,-0.007853928370773791,0.032713936600089075,0.0794485805723816
1772537074519779300,6.608779296875,-0.025483693085610864,0.020230302602052688,0.043542789128422736
1772537074529846500,6.618846435546875,-0.06931874315887689,0.024535890841484068,-0.012009075288847088
1772537074539914500,6.62891455078125,-0.1386626207590103,0.026534371182322502,-0.07272409462295472
1772537074549981400,6.6389814453125,-0.1256961716800928,0.028232991793751716,-0.0697879681058228
1772537074560049400,6.64904931640625,-0.03979191216230392,0.03551204288601875,-0.010633987543359398
1772537074570117000,6.6591171875,-0.00023468553870916364,0.017822656938433646,0.007123714400082826
1772537074580184300,6.669184326171875,-0.024160335527360438,0.008079846081137657,-0.0362063818257302
1772537074590252300,6.679252197265625,-0.03671381989121437,0.006458966881036758,-0.028711422960460184
1772537074600320300,6.6893203125,-0.00877425808608532,0.02962123128175735,0.01614953609444201
1772537074610387200,6.69938720703125,0.0133586632668972,0.0693774876087904,0.05416004473268986
1772537074620455200,6.709455078125,0.01223930384814739,0.09986848746240139,0.06538761425502598
1772537074630522400,6.7195224609375,-0.013684241959452628,0.08375497252941132,0.03612403730452061
1772537074640590300,6.72959033203125,-0.009936579863727093,0.08958440933525562,0.010461115194484592
1772537074650658300,6.739658203125,-0.0269832839936018,0.08941431346535682,-0.028546514722332356
1772537074660725200,6.749725341796875,0.0022235212683677672,0.07918459587395191,-0.016371873608231544
1772537074670793200,6.759793212890625,0.021315759751200675,0.07091887183189392,-0.03265658038966358
1772537074680861200,6.769861083984375,-0.018317162457108495,0.026938860329985617,-0.06401669122800231
1772537074690928400,6.779928466796875,-0.08515548697710036,-0.00436053329706192,-0.0964985726378858
1772537074700996400,6.789996337890625,-0.12896920200139284,-0.005141454541683197,-0.08882577298767864
1772537074711063300,6.800063232421875,-0.13993337134718895,0.020828268495202064,-0.07258782795742154
1772537074721131300,6.81013134765625,-0.1290466511517763,0.039327801781892775,-0.04943170103654265
1772537074731199200,6.82019921875,-0.09698094932734966,0.04314999041855335,-0.01653480908498168
1772537074741266200,6.83026611328125,-0.046986499841511244,0.0571644872456789,0.030249738443642853
1772537074751334400,6.84033447265625,-0.015204291133582591,0.07674421698451042,0.04564838310554623
1772537074761402400,6.85040234375,-0.0025815409258008,0.06294599325656891,0.04883205464296043
1772537074771469300,6.86046923828125,-0.006793021140992641,0.06261106221377849,0.037914354787394404
1772537074781536800,6.870536865234375,-0.03496113100498915,0.0592296030819416,-0.0024389906499534845
1772537074791603700,6.880603759765625,-0.05471095661371946,0.0410042105615139,-0.020826003472879526
1772537074801671700,6.890671630859375,-0.04088175322562456,0.0504939234405756,-0.04261193801909685
1772537074811739600,6.90073974609375,-0.0380412691026926,0.03449731288552284,-0.06397131771631538
1772537074821806600,6.910806640625,-0.02498509591370821,0.007703998506069183,-0.03618694647289812
1772537074831874800,6.920874755859375,-0.019270809920132158,0.02076221752166748,-0.03906973536759615
1772537074841942800,6.93094287109375,-0.042888416872918604,0.017335165682435035,-0.03461860117763281
1772537074852009700,6.941009765625,-0.03361293126642704,0.04527706557512283,-0.00011003624573349952
1772537074862077700,6.95107763671875,-0.015053484486043453,0.057661915373802185,0.05102145444601774
1772537074872144600,6.96114453125,-0.0433677248224616,0.030146131938695905,0.057745721199736
1772537074882212600,6.971212646484375,-0.07041296813637017,0.03299099997580051,0.038917175154387945
1772537074892280800,6.98128076171875,-0.09228723855316638,0.008427636605501174,0.018851196268573404
1772537074902347800,6.99134765625,-0.10471592749357223,-0.004925765964388847,0.029123657023161647
1772537074912415700,7.001415771484375,-0.08147796750813723,0.015613748717308043,0.01681457587443292
1772537074922482700,7.011482666015625,-0.0935956908032298,0.023487258571386335,-0.022868176824972032
1772537074932550700,7.021550537109375,-0.1140372980684042,0.026610359027981756,-0.040594826043024654
1772537074942619000,7.031618896484375,-0.04560556687712669,0.058492520979046815,-0.005817381041869521
1772537074952685800,7.041685791015625,0.018070786480605602,0.059252983957529065,0.04299290016070008
1772537074962753800,7.05175390625,0.025346038180589673,0.05521919839680194,0.054027212133258576
1772537074972821800,7.06182177734375,0.03348345966786146,0.04229074324071407,0.08149024246782063
1772537074982888700,7.071888671875,-0.00889057794213295,0.044589667832851405,0.05819390335865318
1772537074992956700,7.081956787109375,-0.08342617896646261,0.031792145580053326,0.002309153725206852
1772537075003024000,7.09202392578125,-0.11760083576887845,0.05525426971018314,-0.017374255583807827
1772537075013091800,7.102091796875,-0.13259557580500841,0.08051613673865794,-0.02824497449249029
1772537075023159800,7.112159912109375,-0.1189317921116948,0.06914017172157765,-0.06518361611552537
1772537075033226800,7.122226806640625,-0.09565233107209205,0.03164426154196262,-0.06375212200768292
1772537075043294700,7.132294677734375,-0.08341711887717247,0.0015817162334918974,-0.07065101467594503
1772537075053363000,7.142363037109375,-0.0994426632657647,0.008126607832312583,-0.06786247993595898
1772537075063430000,7.152429931640625,-0.10925795483738183,0.023278584256768226,-0.03928030937835574
1772537075073497900,7.162497802734375,-0.11774784302413463,0.0492301871150732,0.007405088624730706
1772537075083564800,7.172564697265625,-0.08480711193084717,0.07998363729715346,0.06260784734338522
1772537075093632800,7.1826328125,-0.07700783635675906,0.08907236815989017,0.05871624673232436
1772537075103700700,7.19270068359375,-0.09946575188040732,0.07459609903991223,0.025869842858985064
1772537075113768000,7.202767822265625,-0.08439064008444547,0.06875555631816387,-0.02295220184661448
1772537075123836000,7.2128359375,-0.0782110746666789,0.05263093546926975,-0.05601166394874453
1772537075133903600,7.222903564453125,-0.04039221614301204,0.03706453302502632,-0.07264255381934344
1772537075143970800,7.232970703125,-0.03180588184446096,0.01260229194164276,-0.09671601478084921
1772537075154038800,7.243038818359375,-0.046727848905324935,0.004801847323775291,-0.12457330513000488
1772537075164105700,7.253105712890625,-0.05370090278834104,0.023540450063347814,-0.12481602784469722
1772537075174174000,7.263174072265625,-0.027049042706191538,0.045834699457883835,-0.06807546509951352
1772537075184241700,7.27324169921875,0.0074801266223192215,0.05890694699883461,-0.006797843446582555
1772537075194308900,7.283308837890625,0.0030637714847922323,0.0900602101534605,0.01013349067531526
1772537075204376600,7.29337646484375,-0.008907236815989017,0.10188333441615104,0.030780045928061005
1772537075214443800,7.30344384765625,-0.021431787346303462,0.11680267112851142,0.023762495316192508
1772537075224511700,7.31351171875,-0.05722264717370271,0.12720540719926357,-0.022996040988340974
1772537075234579700,7.323579833984375,-0.07886603144407271,0.11674772607088088,-0.053287645812332626
1772537075244647000,7.33364697265625,-0.07087094103693961,0.09859247617721557,-0.04834273675605654
1772537075254714600,7.343714599609375,-0.03926058176457882,0.07883329821825028,-0.05136851431801915
1772537075264782600,7.353782470703125,-0.024127310040593146,0.039728199276328084,-0.060790495723113416
1772537075274849500,7.363849609375,-0.03002688947319984,0.008382628419995307,-0.048791357306390996
1772537075284917800,7.373917724609375,-0.06887976721972226,0.034660979014635086,-0.04575118589289486
1772537075294984700,7.383984619140625,-0.11979863807410002,0.02977729862630367,-0.0432091001946479
1772537075305052700,7.394052734375,-0.13302461487203834,0.026196517530083653,-0.018639087887853383
1772537075315120600,7.40412060546875,-0.10982231072187423,0.020417349606752396,0.03313632673062384
1772537075325187600,7.4141875,-0.08015227186232805,0.04332943863868713,0.05712386297434568
1772537075335255800,7.424255859375,-0.07525164033919572,0.05250643230676651,0.04846650926619768
1772537075345323800,7.43432373046875,-0.07028466558158397,0.03724573481082916,0.03037102673575282
1772537075355390700,7.444390625,-0.03434358362853527,0.04312777858674526,0.04726780100092291
1772537075365458700,7.454458740234375,-0.006129296535253524,0.04519873964190483,0.06063260174766182
1772537075375525600,7.464525634765625,-0.031029636774957178,0.03214928845465183,-0.0028448680371046067
1772537075385593600,7.474593505859375,-0.11416443157941103,-0.012749006935954094,-0.06304616569541395
1772537075395661800,7.484661865234375,-0.15390636712014674,-0.025335516786575314,-0.08448167936876416
1772537075405728800,7.494728759765625,-0.1586424557313323,-0.01969955672621727,-0.06436784275323153
1772537075415796700,7.504796630859375,-0.11329904692173004,0.017083821269869803,-0.008637918355315924
1772537075425864700,7.51486474609375,-0.10849544603228568,0.0247305366307497,-0.0041335926733911035
1772537075435931600,7.524931640625,-0.10932838972508907,0.018409516915678978,-0.010805325522273779
1772537075445999900,7.534999755859375,-0.05907938095629215,0.038490181913971896,0.0019653817888349292
1772537075456066800,7.54506689453125,-0.03505085511505603,0.052103112202882766,-0.011963409516215323
1772537075466134800,7.555134765625,-0.05450783525705337,0.058712885731458664,-0.03410071478337049
1772537075476202800,7.56520263671875,-0.04190963496863842,0.07012859823703765,-0.04735599074102938
1772537075486269700,7.575269775390625,-0.007597031000256538,0.0851800368964672,-0.032504750828817486
1772537075496337700,7.585337646484375,0.033116379921138285,0.0833802939981222,-0.01167713992074132
1772537075506406000,7.595406005859375,0.011511866356432436,0.08555822255909443,-0.030659342157840726
1772537075516472800,7.605472900390625,-0.03780015382319689,0.09194587776958942,-0.042256402579694985
1772537075526540800,7.615540771484375,-0.053985564948618406,0.0908352861791849,-0.04206833266168832
1772537075536607700,7.625607666015625,-0.08367109363824128,0.07613456065356732,-0.03471300146281719
1772537075546675700,7.63567578125,-0.07268120532929898,0.08122574631273746,-0.01802628975175321
1772537075556744000,7.645743896484375,-0.05972030920833349,0.06213526139557361,-0.007298194184154272
1772537075566811000,7.655810791015625,-0.04710398874133825,0.05688391673862934,-0.025473756213486194
1772537075576878800,7.66587890625,-0.03840951789319515,0.04757599016726017,-0.034574177514016625
1772537075586945800,7.67594580078125,-0.0153629888266325,0.053875382572412485,-0.027480931317433715
1772537075597013800,7.686013671875,-0.009747487032413482,0.04466799376606941,-0.021424700018391012
1772537075607081700,7.696081787109375,-0.04473521378338337,0.019968436795473096,-0.04030504931621253
1772537075617148700,7.706148681640625,-0.09442834223508834,-0.002316460248827934,-0.06050999828130006
1772537075627217000,7.716216796875,-0.08215192124694586,0.00962298386991024,-0.056874564388394354
1772537075637284900,7.726284912109375,-0.03999591030180454,0.04418167155385017,-0.015422171667963265
1772537075647351800,7.736351806640625,0.03867430630922317,0.03674012337625027,0.040217444097995755
1772537075657419800,7.746419677734375,0.09925649304389952,0.028164602732658386,0.08653598155006766
1772537075667486700,7.75648681640625,0.0702484252244234,0.02720072613656521,0.0639579467780888
1772537075677555000,7.766554931640625,0.02833294503688812,0.013763736936450003,0.04204232143759727
1772537075687623000,7.776622802734375,-0.01283843878507614,0.023381460109353065,0.06508695080801845
1772537075697689900,7.78668994140625,-0.025590952852368353,0.01725683974921703,0.05889481816962361
1772537075707757800,7.7967578125,-0.036464813566207885,0.013301380121707916,0.01907915980555117
1772537075717825500,7.806825439453125,-0.08958791646659374,-0.02668517782986164,-0.02408317863792181
1772537075727893000,7.81689306640625,-0.09662439097464084,-0.013218962535262106,-0.04299991442337632
1772537075737960700,7.826960693359375,-0.08659136499911546,0.014352350479364393,-0.025225918932259082
1772537075748028000,7.83702783203125,-0.06695142950564623,0.002775309932231903,0.005385054039210081
1772537075758095600,7.847095703125,-0.04225304157882929,0.00992225907742977,0.010227233373373746
1772537075768163600,7.85716357421875,-0.0554760957673192,-0.005444821402430534,0.013839505586400628
1772537075778231000,7.86723095703125,-0.0513607694029808,-0.0005120411753654479,-0.008940262302756309
1772537075788299000,7.877299072265625,-0.06160568456351757,0.0029290391892194748,0.018318550696596502
1772537075798367000,7.887366943359375,-0.0762397745937109,0.03388707203269005,0.022808628657460212
1772537075808434200,7.89743408203125,-0.10188391893804073,0.05342354715168476,-0.007491597864404321
1772537075818502100,7.907502197265625,-0.14786708695590495,0.045269466790556906,-0.05261982955336571
1772537075828569000,7.917569091796875,-0.14903262360394,0.04555529799461364,-0.07012772145420312
1772537075838637000,7.927636962890625,-0.07271773794740438,0.07417699684500693,-0.029590324686840176
1772537075848705000,7.937705078125,0.0005015197813510895,0.08125731049478054,0.014528876090049743
1772537075858772000,7.94777197265625,-0.0008253449082374572,0.07379355048537253,0.005701353446766734
1772537075868840200,7.957840087890625,-0.0021130466312170026,0.07690262241661548,0.00660823915861547
1772537075878908200,7.967908203125,0.04647270510047674,0.09635492638349533,0.05034180161878466
1772537075888975000,7.97797509765625,0.0460951039597392,0.09483341590464114,0.07096409921310842
1772537075899043000,7.98804296875,0.01096972230374813,0.10335516053438186,0.06284815890528261
1772537075909110000,7.998110107421875,-0.003093289840221405,0.1300795013308525,0.0743981653150171
1772537075919178200,8.00817822265625,-0.049367842020094393,0.11806757649779319,0.047212782878056164
1772537075929246200,8.01824609375,-0.09658668931275606,0.08439560852050781,0.025003143027052283
1772537075939313200,8.028313232421874,-0.07553250310719013,0.07929273242354393,0.011291793864965437
1772537075949381000,8.038381103515626,-0.036409868508577345,0.07559387790560722,-0.011378522300347685
1772537075959449000,8.048448974609375,-0.0780064920052886,0.025440730726718902,-0.08452522624954581
1772537075969516000,8.05851611328125,-0.1321601069971919,-0.02732347573339939,-0.12070866559110581
1772537075979584300,8.068584228515626,-0.08276479244828223,-0.015045593440532683,-0.08315064996071159
1772537075989651200,8.078651123046875,-0.042862113387882705,-0.008501286363601684,-0.05722279330417514
1772537075999719200,8.08871923828125,-0.06198299344331026,-0.02582242352068424,-0.047203941984474654
1772537076009787100,8.098787109375,-0.06471680232137442,-0.009327215793728827,-0.012264365224167705
1772537076019854000,8.10885400390625,-0.023720482805371285,0.039488545301556585,0.03274338189028203
1772537076029922300,8.11892236328125,0.001260229194164276,0.06714753659963607,0.06895984671860933
1772537076039990300,8.128990234375,-0.05190115988999605,0.07408405786454678,0.013549363533407448
1772537076050057200,8.13905712890625,-0.07834288435280323,0.08887129262983798,-0.025266324007883666
1772537076060125200,8.149125244140626,0.013498948520421982,0.08165244729220866,-0.0005786036055535077
1772537076070192000,8.159192138671875,0.026238895367085933,0.035980244919657706,-0.0318581234883517
1772537076080260000,8.169260009765624,0.02811959454715252,0.004893032738566398,-0.038384967973828316
1772537076090328300,8.179328369140626,0.026730770537257195,0.013960720813274383,-0.029559856483340263
1772537076100395300,8.189395263671875,-0.027612521807849406,0.0064174658268690106,-0.039841012001037596
1772537076110463200,8.199463134765624,-0.08616992471665144,0.022799276307225225,-0.05488492494113743
1772537076120531200,8.20953125,-0.10350859753042459,0.027892215532064436,-0.08612192085646092
1772537076130598100,8.21959814453125,-0.08905833963453769,0.021397592815756795,-0.07131042843274772
1772537076140666400,8.229666259765626,-0.04528758696913719,0.012540332621335982,-0.025608269313350317
1772537076150733300,8.2397333984375,-0.02392711129337549,0.03537000406682491,-0.011740487480536103
1772537076160801300,8.24980126953125,-0.07592033338099717,0.04339665865600109,-0.04105294507406652
1772537076170869000,8.259868896484376,-0.11022796891331672,0.041109424501657485,-0.039382819904759524
1772537076180936200,8.269936279296875,-0.08297288224101067,0.048394320812821384,-0.007683832500874996
1772537076191004200,8.280004150390624,-0.0442763640999794,0.07290449269115924,-0.024078940854221582
1772537076201072000,8.290072021484375,-0.008130114963650703,0.04359539609849453,-0.030351299121975896
1772537076211139300,8.300139404296875,0.056471536545455454,0.0580313332080841,-0.02037438724786043
1772537076221207000,8.31020703125,0.07904986357837915,0.05362462268173694,-0.01492467047460377
1772537076231274200,8.320274169921875,0.07231295653879642,0.05118950448930263,-0.00840863964408636
1772537076241342000,8.330342041015625,0.06350128905177116,0.07109890457391739,0.017620339299365878
1772537076251410200,8.34041015625,0.00722790542691946,0.0784054281949997,0.02599018130302429
1772537076261477000,8.35047705078125,-0.0696671182051301,0.06859890445172787,0.021587562429904936
1772537076271545000,8.360545166015624,-0.1251513972789049,0.050174189966917034,0.02190766122974455
1772537076281613000,8.370613037109376,-0.10734978312849998,0.03484977958500385,0.029922479250654575
1772537076291680000,8.380679931640625,-0.07820581396967172,0.0220902512550354,0.019001272263750434
1772537076301748000,8.390748046875,-0.06828034002184867,-0.031841829940676684,0.011035188755393027
1772537076311815000,8.40081494140625,-0.08383972820341587,-0.03312134835720062,-0.006895677797868848
1772537076321883100,8.410883056640625,-0.1395171917617321,-0.016595745491981506,-0.05712342458292841
1772537076331951000,8.420951171875,-0.16421353386193513,-0.010284662649035454,-0.04691891449801624
1772537076342018000,8.43101806640625,-0.15074644178450106,-0.0040296939074993135,0.001655000665411353
1772537076352086000,8.4410859375,-0.07146364623308181,0.012356792747974394,0.05524265233762562
1772537076362153000,8.451153076171876,0.01033580831438303,0.02216565457880497,0.10170512830503284
1772537076372221200,8.46122119140625,0.05577800132334232,0.008396656945347785,0.09423851875141262
1772537076382289200,8.4712890625,0.06636544631123542,0.011194763231277466,0.07240772215016186
1772537076392356000,8.481356201171875,0.035594168211519714,0.03137479695081711,0.03874927124157548
1772537076402424000,8.491424072265625,0.013268354634940624,0.042839024773240086,-0.006019844811409712
1772537076412492000,8.501491943359374,0.0023845570489764213,0.027172084563970564,-0.03369447207003832
1772537076422559000,8.51155908203125,-0.028237375707924364,0.015001169776916503,-0.07665829226672649
1772537076432627200,8.521627197265625,0.008064648512005805,0.04121230035424232,-0.05175977865792811
1772537076442694100,8.531694091796876,0.00286824891269207,0.03736556179821491,-0.019145283844321966
1772537076452762000,8.54176220703125,-0.037919980810582635,0.03811901051402092,-0.022522359061986207
1772537076462830000,8.551830078125,-0.04563946914672851,0.0704267044007778,-0.016465250980108974
1772537076472897000,8.56189697265625,-0.05458849927783012,0.07107084752321242,0.011779796577617525
1772537076482965200,8.57196533203125,-0.04101239386796951,0.0700000034213066,0.06861950884833931
1772537076493033200,8.582033203125,-0.03372252912074327,0.0993669676810503,0.06857245483621954
1772537076503100200,8.59210009765625,-0.027984569990634915,0.10534078139364719,0.06564180821180343
1772537076513168100,8.602168212890625,-0.0036100071907043457,0.08811199869513511,0.07079005782045424
1772537076523235000,8.612235107421874,0.06528846472948789,0.09772329212725162,0.09066372900456189
1772537076533303000,8.622302978515625,-0.06278554199784994,0.08049041777551173,-0.07896868810094892
1772537076543371300,8.632371337890625,-0.16133096416294573,0.046884500771760936,-0.2030607125200331
1772537076553438200,8.642438232421876,-0.1151303540021181,0.050155485266447065,-0.12609620384834705
1772537076563506200,8.652506103515625,-0.026949381723999976,0.0716039314866066,-0.04009118736982345
1772537076573574100,8.66257421875,-0.009962298826873302,0.05173837054371833,-0.012681494657695292
1772537076583641000,8.67264111328125,-0.002038520090281963,0.04226034810245037,-0.0032977994363754984
1772537076593709300,8.682709228515625,-0.00783873080164194,0.046963995748758314,0.006232464648783207
1772537076603776300,8.6927763671875,-0.012803075210750102,0.05003215114772319,0.010320976071432232
1772537076613844200,8.70284423828125,-0.024226386500895022,0.056501639422774315,-0.0025339023917913435
1772537076623912200,8.712912109375,-0.06244651930183172,0.04073766857981682,0.025111571837589143
1772537076633979100,8.722979248046874,-0.028517069432139396,0.06647475190460682,0.07653050116859376
1772537076644047000,8.733047119140625,-0.021788930220901965,0.08490063543319702,0.07982311297319829
1772537076654115300,8.743115234375,-0.06107230833917856,0.08448913202285765,0.05246602723114192
1772537076664182300,8.753182373046876,-0.06444120025038719,0.08880407261252403,0.04362484138868749
1772537076674250200,8.763250244140625,-0.06801409030109644,0.0390916549384594,0.016407602508738635
1772537076684317200,8.773317138671874,-0.09545651623904705,-0.020296938097476958,-0.009976619613170623
1772537076694385200,8.78338525390625,-0.0977589479625225,-0.0006453121662139892,-0.04584880104847252
1772537076704453000,8.793453125,-0.06656243018805981,0.02501987496614456,-0.013198285073414443
1772537076714520300,8.803520263671874,-0.0866834271967411,0.039815877559781075,-0.023539427150040863
1772537076724588000,8.813588134765626,-0.16524667630195616,0.005411503654718399,-0.0526582618676126
1772537076734656000,8.823656005859375,-0.14140899685770272,0.02007540430128574,-0.022638898113742468
1772537076744723200,8.83372314453125,-0.045645606626570225,0.08027765180766581,0.07691592028960585
1772537076754791000,8.843791015625,-0.005650280846655369,0.1153565639734268,0.07686031764484942
1772537076764859100,8.853859130859375,-0.05364128155559301,0.07607669298648834,0.026675752414390443
1772537076774926000,8.863926025390626,-0.09935177011191844,0.07106850943565368,-0.009064327073842287
1772537076784994000,8.873994140625,-0.07236468672603369,0.09107844728529453,0.003688260058686137
1772537076795061000,8.88406103515625,-0.014306465511023998,0.10164426496326923,0.038546661341562864
1772537076805129200,8.894129150390626,-0.05704670608490705,0.06700842038989066,-0.06363404858596623
1772537076815197200,8.904197265625,-0.157826170912385,-0.006954056921601295,-0.15563720950074492
1772537076825264000,8.91426416015625,-0.09472118770182132,-0.026572949627041816,-0.10987849788852036
1772537076835332000,8.92433203125,0.007137012273073196,-0.021990298011898994,-0.03572400513626635
1772537076845399000,8.93439892578125,0.00828793587386608,-0.012826163825392723,-0.041658144425600764
1772537076855467300,8.94446728515625,0.02580371882021427,0.02463701312839985,-0.04391279148459434
1772537076865535200,8.95453515625,0.028325346252322196,0.021067337948083877,-0.026656390126794573
1772537076875602200,8.964602294921875,0.04425561357289552,0.027479543077945708,-0.00592646743953228
1772537076885670100,8.974670166015626,0.06061871935278177,0.04055705131590366,0.05220766855590045
1772537076895738000,8.984738037109375,0.039841012001037596,0.050292263388633726,0.06147204824648797
1772537076905805000,8.99480517578125,-0.02237958959043026,0.051821957173943514,0.038771117747202516
1772537076915873300,9.004873291015626,-0.05881137766987085,0.04095452620089054,-0.01173405773974955
1772537076925941200,9.014941162109375,-0.12985621396899222,0.007615735700726508,-0.07132906006798148
1772537076936008200,9.02500830078125,-0.12127338680177926,-0.011432079118490219,-0.06923902898617089
1772537076946076200,9.035076171875,-0.053626376247406,-0.026550737795233724,-0.03642623512148857
1772537076956143000,9.04514306640625,-0.04055822035968303,-0.035140871486067767,-0.03280782542861998
1772537076966211300,9.05521142578125,-0.07923632606118917,-0.042516368690133095,-0.06541779019758105
1772537076976279300,9.065279296875,-0.09482494033724069,-0.039832244172692294,-0.040074455430731175
1772537076986346200,9.07534619140625,-0.0680152593448758,0.006174889242649078,0.005296133646741509
1772537076996414200,9.085414306640626,-0.1060787402793765,0.017303016978502273,0.007913841864466666
1772537077006481200,9.095481201171875,-0.12219751590937375,0.022554946157336234,0.014071633841842412
1772537077016549000,9.105549072265624,-0.09258885184824465,0.03154313925504684,0.028647563944011925
1772537077026617300,9.115617431640626,-0.05591740979403257,0.022754268121719358,0.028763226212933656
1772537077036684300,9.125684326171875,-0.07612666960805654,-0.0028927988320589064,0.011111030470579862
1772537077046752300,9.135752197265624,-0.08078267872035502,-0.00010404489636421203,-0.0025135902561247347
1772537077056820200,9.1458203125,-0.08818331036567688,0.02424479894042015,-0.016035627391189335
1772537077066887200,9.15588720703125,-0.08218786934316158,0.05054419232308864,-0.041446912827715274
1772537077076955400,9.165955322265624,-0.06758008279800415,0.06123743577301502,-0.05370499444156885
1772537077087022300,9.176022216796875,-0.05492781423479318,0.08380991758704184,-0.05562536804489791
1772537077097090300,9.18609033203125,0.018486381544172762,0.10500994200408457,0.01461282804645598
1772537077107158300,9.196158203125,0.08486760994642972,0.12548048310279847,0.09837919875271618
1772537077117225200,9.20622509765625,0.10624562127888203,0.12327449749112128,0.15897110316380858
1772537077127293200,9.216293212890625,0.05558364779502153,0.12523849104046822,0.1488118204601109
1772537077137361400,9.226361328125,-0.011055062499642372,0.11326105299890041,0.09315306160226464
1772537077147428400,9.236428466796875,-0.04787175824344158,0.10908932027220726,0.03481492746733129
1772537077157496300,9.246496337890624,-0.07405015559494495,0.09388882853090763,-0.04338840228430926
1772537077167563300,9.256563232421875,-0.1019309729501605,0.05745148749351501,-0.09186382550932466
1772537077177631200,9.26663134765625,-0.09422609766125678,0.024941549032926558,-0.09423596146814525
1772537077187699200,9.27669921875,-0.07101765603125094,0.007274374917149543,-0.0495859417501837
1772537077197766400,9.286766357421875,-0.04414747702330351,0.003562660917639732,0.008340469778701662
1772537077207834400,9.29683447265625,-0.0664665685981512,0.004313771545886993,0.023078750835731625
1772537077217902000,9.306902099609376,-0.07242050856649875,0.005590367352962493,0.032754414740949866
1772537077227969300,9.31696923828125,-0.07214110710322856,-0.0010603227078914642,0.03796184719093144
1772537077238037000,9.327037109375,-0.08265139520168303,0.01293956107199192,-0.0016385609872639178
1772537077248103200,9.337103271484375,-0.061596624474227424,0.029384499916434288,0.0037020693883299824
1772537077258171400,9.34717138671875,-0.023093875339627264,0.03175648974478244,0.009511997776106
1772537077268238300,9.35723828125,0.01391162097454071,0.02828501424193382,-0.010829802376404404
1772537077278306300,9.367306396484375,0.056876902475953096,0.02134907749891281,0.0110984632499516
1772537077288374300,9.377374267578125,0.06850888808071613,0.05152677361965179,0.041197175850346685
1772537077298441200,9.387441162109376,0.003913081790506839,0.055602060234546655,0.01913958475589752
1772537077308509200,9.39750927734375,-0.090339027094841,0.047888124856352805,-0.04513758403919637
1772537077318576000,9.407576171875,-0.13704875582158565,0.055251347100734705,-0.08412380584180354
1772537077328644400,9.417644287109376,-0.10477145707309246,0.03940729675889015,-0.03867949394099414
1772537077338712300,9.42771240234375,-0.035949849781394004,0.03829670516848564,0.011782280795648694
1772537077348779300,9.437779296875,-0.005871522381901741,0.04279226302206516,0.0297471226837486
1772537077358847200,9.44784716796875,-0.03507598955631256,0.05414543168544769,0.026505437348783016
1772537077368915200,9.457915283203125,-0.04262333619594574,0.07912146750986576,0.041123891418427226
1772537077378982400,9.467982421875,-0.13293021458685397,0.0709632954955101,0.00048449558131396765
1772537077389050400,9.47805029296875,-0.18301497270464895,0.06966682594418526,-0.029264380668103693
1772537077399118000,9.4881181640625,-0.1762777734041214,0.05803893199265003,-0.054603623781725764
1772537077409185300,9.498185302734376,-0.15698972008824347,0.026288871988654136,-0.06612469635792076
1772537077419253000,9.5082529296875,-0.10268149905651808,0.02414543021917343,-0.07141666528619825
1772537077429320200,9.5183203125,-0.02941606409847736,0.0054191024392843245,-0.02160926280505955
1772537077439388200,9.52838818359375,-0.00883563288450241,0.02720189518034458,-0.016550298915058374
1772537077449456000,9.5384560546875,-0.034053953032195564,0.054473348465561865,-0.03483531266823411
1772537077459523300,9.5485234375,0.014938041412830352,0.08787234472036361,0.015239581642672419
1772537077469591000,9.558591064453125,0.039244799673557276,0.08131810077130794,0.026221286645159124
1772537077479658200,9.568658203125,0.0053331777215003965,0.051551908060908314,0.025295623167604208
1772537077489726200,9.578726318359376,0.03426116604208946,0.07777940525114536,0.005593874484300613
1772537077499794200,9.588794189453125,0.08772446068227291,0.09867430924177169,0.050524245513603086
1772537077509861000,9.598861083984374,0.058795887839794156,0.08572305773198605,0.028431217779591678
1772537077519929000,9.60892919921875,-0.06822188783288001,0.04859598086476326,-0.0781098062492907
1772537077529997000,9.6189970703125,-0.11607143424451351,0.010905424895882606,-0.11999817923419177
1772537077540064000,9.62906396484375,-0.09774287361055611,-0.005872691425681114,-0.06377184962145983
1772537077550132200,9.63913232421875,-0.07392009947448969,-0.02677577872276306,-0.028853388714417814
1772537077560199200,9.64919921875,-0.030626901192963123,-0.008415361645817757,-0.002100187149643898
1772537077570267100,9.65926708984375,-0.04376403066366911,0.004711246430873871,0.0001844166561961174
1772537077580335000,9.669335205078125,-0.07494505860805512,0.02154255424439907,-0.018723551300913095
1772537077590402000,9.679402099609375,-0.07378595170080661,0.03793313255310058,0.008108341523259878
1772537077600470300,9.68947021484375,-0.02941781766414642,0.05606733965873718,0.06178579037077724
1772537077610538200,9.699538330078125,-0.019753332740068436,0.07167056698203086,0.05268149661272764
1772537077620605200,9.709605224609374,-0.049517771884799,0.07382803727686404,-0.019333572958037257
1772537077630673200,9.719673095703126,-0.03958323784768581,0.043323008897900576,-0.06398169297985733
1772537077640740000,9.729739990234375,-0.014883388616144657,0.013449848681688309,-0.06647745531834662
1772537077650808300,9.739808349609374,0.02424392215758562,0.0035562311768531796,-0.06417787313908338
1772537077660876300,9.749876220703126,0.0360261298879981,0.0029366379737854,-0.042020328801497815
1772537077670944300,9.7599443359375,0.0034732290685176846,0.028563831183314323,-0.049750411596894265
1772537077681011200,9.77001123046875,-0.023844985967874526,0.040595045238733286,-0.020999095017462967
1772537077691079200,9.7800791015625,-0.026484102299809454,0.07705576715171336,0.03371215385720133
1772537077701147400,9.7901474609375,-0.020417349606752396,0.09320201531052588,0.06914645533189177
1772537077711214300,9.80021435546875,-0.024759178203344345,0.08014905699193477,0.05538578713536262
1772537077721282300,9.8102822265625,-0.056872810822725293,0.07876549367904663,0.00757145816758275
1772537077731350300,9.820350341796875,-0.046641631926596164,0.0873801772892475,-0.00498100328296423
1772537077741417200,9.830417236328126,-0.03833382230848074,0.09390987131893634,-0.0018538842383772135
1772537077751485200,9.840485107421875,-0.07237637716382742,0.09025485594272613,-0.027156302472949027
1772537077761552400,9.850552490234374,-0.08104834391921759,0.07122749938964844,-0.016717618305981157
1772537077771620400,9.860620361328126,-0.09955050755441189,0.045863341030478476,-0.036358430582284926
1772537077781687800,9.870687744140625,-0.08299187920242547,0.020264789393544196,0.0016267244189977644
1772537077791754800,9.880754638671876,-0.0684054277062416,0.030356559818983078,0.005178790877386927
1772537077801822700,9.89082275390625,-0.10968699390441179,0.021730185770988463,-0.016967793674767015
1772537077811890700,9.900890625,-0.12938041315078735,0.009745733466744422,-0.051691243466362356
1772537077821958000,9.9109580078125,-0.12858809372931718,0.025783845075964925,-0.04244425330199301
1772537077832025900,9.92102587890625,-0.06614625060260296,0.049026188975572586,0.028413243731483816
1772537077842092800,9.9310927734375,0.03920154505372047,0.06143208156228065,0.0880761236641556
1772537077852160800,9.941160888671876,0.08824585420787334,0.04815934301316738,0.11536408969275652
1772537077862228700,9.951228759765625,0.10829816989451646,0.021066168904304503,0.1127499616716057
1772537077872295700,9.961295654296874,0.06626520080715417,0.006072013390064239,0.08542349026352167
1772537077882364000,9.971364013671876,0.01685878034234047,-0.02700023512840271,0.05984020926095545
1772537077892431600,9.981431640625,-0.05821779569089412,-0.05030161573886871,0.001678966062888503
1772537077902498800,9.991498779296874,-0.10252455492913723,-0.05122457580268383,-0.01881824384704232
1772537077912566800,10.00156689453125,-0.10798691198825836,-0.04495440949201584,-0.01592778310254216
1772537077922633700,10.0116337890625,-0.11652063931673765,-0.03960720324516296,-0.03091448596268892
1772537077932702000,10.021701904296876,-0.13774755174070596,-0.06746610102951527,-0.04817169103808701
1772537077942769700,10.031769775390625,-0.12323241191506384,-0.06371113241016864,-0.031656755697354676
1772537077952836900,10.0418369140625,-0.11116875689476728,0.009116787913441657,0.04100435669198632
1772537077962904600,10.051904541015626,-0.08127280032485723,0.17532617176771162,0.20348295652009546
1772537077972972500,10.06197265625,0.1729334314122796,0.2534013450950384,0.22891163148283958
1772537077983039700,10.072039794921874,0.2806546782016754,0.11675941650867462,0.04098382536061108
1772537077993107700,10.082107666015625,0.3015180180102587,0.05499123485982418,-0.11981537001319228
1772537078003175700,10.09217578125,0.19419746097624302,-0.07470891176462173,-0.2177722517006099
1772537078013242600,10.10224267578125,0.11420505585074424,-0.12212649649977683,-0.24370726875029503
1772537078023310600,10.112310546875,0.042348026385903355,-0.12999065400362014,-0.21179953396655618
1772537078033377500,10.12237744140625,-0.02366261513829231,-0.11276537843644618,-0.15531002337299285
1772537078043445800,10.13244580078125,-0.12075433136373757,-0.08637947581410407,-0.11343458293490111
1772537078053513700,10.142513671875,-0.2824766329318285,-0.0025251345634460447,-0.0028651801727712155
1772537078063580700,10.15258056640625,-0.3886953662037849,0.08205576739609241,0.1156244941946119
1772537078073648600,10.162648681640626,-0.3576239361137151,0.22757775253057477,0.21121260092407465
