time,seconds_elapsed,z,y,x
1772537067985894100,0.07489404296875,-0.011423351243138313,0.046354059129953384,-0.012157982215285301
1772537067995961000,0.084961181640625,-0.008451893925666809,0.04430035129189491,-0.021436214447021484
1772537068006029000,0.095029052734375,-0.020748240873217583,0.025107748806476593,-0.01979730650782585
1772537068016096000,0.105095947265625,-0.02333774045109749,0.01838507503271103,-0.026733899489045143
1772537068026164200,0.115164306640625,-0.01642337441444397,0.024517269805073738,-0.048112690448760986
1772537068036232200,0.125232177734375,-0.012843718752264977,0.04708157852292061,-0.07315009087324142
1772537068046299100,0.135299072265625,-0.019818538799881935,0.07265058904886246,-0.08725818991661072
1772537068056367000,0.1453671875,-0.02035469375550747,0.0884995236992836,-0.0950472354888916
1772537068066435000,0.15543505859375,-0.019546957686543465,0.09403836727142334,-0.09007644653320312
1772537068076502300,0.165502197265625,-0.010608804412186146,0.0974017009139061,-0.0797443762421608
1772537068086570200,0.1755703125,0.011859220452606678,0.0969817191362381,-0.06272757798433304
1772537068096637200,0.18563720703125,0.03407711163163185,0.0819220095872879,-0.04156219959259033
1772537068106705200,0.195705078125,0.04931731894612312,0.0671694278717041,-0.037313126027584076
1772537068116773000,0.205773193359375,0.061126839369535446,0.06854575127363205,-0.0470067635178566
1772537068126840000,0.215840087890625,0.0574607327580452,0.06844402104616165,-0.05567961931228638
1772537068136908300,0.225908203125,0.03896374627947807,0.043173812329769135,-0.052772246301174164
1772537068146975200,0.235975341796875,0.025648208335042,0.006784380413591862,-0.05497147887945175
1772537068157043200,0.246043212890625,0.03162694349884987,-0.01848580315709114,-0.06366876512765884
1772537068167111200,0.256111083984375,0.03127647191286087,-0.029880404472351074,-0.07699389010667801
1772537068177178000,0.26617822265625,0.030518043786287308,-0.03041704185307026,-0.07737281173467636
1772537068187246300,0.276246337890625,0.023749087005853653,-0.02500123903155327,-0.0657086968421936
1772537068197314300,0.286314208984375,0.011858513578772545,-0.007353638764470816,-0.05794639512896538
1772537068207381200,0.29638134765625,0.004594741854816675,0.007388289086520672,-0.053839534521102905
1772537068217449200,0.30644921875,0.0038765594363212585,0.011651585809886456,-0.04489225149154663
1772537068227516200,0.31651611328125,0.0013247184688225389,0.013133634813129902,-0.03702527657151222
1772537068237584100,0.326584228515625,0.0004950560396537185,0.014730810187757015,-0.02616908773779869
1772537068247652400,0.33665234375,0.006514864973723888,0.016021378338336945,-0.021818814799189568
1772537068257719300,0.34671923828125,0.010479049757122993,0.012730172835290432,-0.02379404939711094
1772537068267787300,0.356787353515625,0.010768535546958447,0.00046684895642101765,-0.003748169867321849
1772537068277855200,0.366855224609375,0.015040406957268715,-0.008325986564159393,0.02101040631532669
1772537068287922200,0.376922119140625,0.02121867425739765,-0.026220297440886497,0.03508281707763672
1772537068297990400,0.386990478515625,0.02394722029566765,-0.03463038429617882,0.03864500671625137
1772537068308057300,0.397057373046875,0.029464490711688995,-0.02374950610101223,0.04409996047616005
1772537068318125300,0.407125244140625,0.03003726340830326,-0.00780580285936594,0.0388675294816494
1772537068328193300,0.417193359375,0.02454555779695511,0.006954500917345285,0.0354621447622776
1772537068338260200,0.42726025390625,0.02370481751859188,0.010587844997644424,0.025369184091687202
1772537068348328200,0.437328125,0.01941632851958275,0.0063896384090185165,0.013550341129302979
1772537068358395100,0.44739501953125,0.02146904170513153,-0.0016888221725821495,0.01197341550141573
1772537068368463400,0.45746337890625,0.018833577632904053,-0.008004775270819664,0.01628986746072769
1772537068378531300,0.46753125,0.027854103595018387,-0.021692268550395966,0.023821333423256874
1772537068388598300,0.477598388671875,0.031401168555021286,-0.02846575155854225,0.028522346168756485
1772537068398666200,0.487666259765625,0.0411728173494339,-0.032988861203193665,0.02313035912811756
1772537068408734200,0.497734130859375,0.04496436193585396,-0.03378141671419144,0.011591946706175804
1772537068418801400,0.507801513671875,0.04268255829811096,-0.036050114780664444,0.008491631597280502
1772537068428869000,0.517869140625,0.033489059656858444,-0.030217524617910385,0.010998199693858624
1772537068438936300,0.527936279296875,0.024514613673090935,-0.019136780872941017,0.014300065115094185
1772537068449004300,0.53800439453125,0.014965318143367767,-0.013752137310802937,0.012671807780861855
1772537068459072000,0.548072021484375,0.0040256245993077755,-0.009334497153759003,0.015268431045114994
1772537068469139200,0.55813916015625,0.0029779369942843914,-0.005434298422187567,0.009143160656094551
1772537068479207200,0.568207275390625,0.006518589332699776,0.001055298838764429,-0.006917184684425592
1772537068489275100,0.578275146484375,0.0093380780890584,-0.004845200572162867,-0.010826172307133675
1772537068499342000,0.588342041015625,0.001811585738323629,-0.010927772149443626,0.0022169724106788635
1772537068509410000,0.59841015625,-0.0026864935643970966,-0.013451915234327316,0.02067640796303749
1772537068519477200,0.608477294921875,0.004771401174366474,-0.021547650918364525,0.024112001061439514
1772537068529545200,0.618545166015625,0.01404372975230217,-0.03422483429312706,0.032061535865068436
1772537068539613200,0.62861328125,0.025225697085261345,-0.05460689961910248,0.04925740510225296
1772537068549680000,0.63868017578125,0.030155740678310394,-0.06761378049850464,0.06397509574890137
1772537068559748000,0.648748046875,0.03461819514632225,-0.06886779516935349,0.05907763913273811
1772537068569815000,0.65881494140625,0.04028859734535217,-0.07411421835422516,0.034300655126571655
1772537068579883000,0.668883056640625,0.027686357498168945,-0.07852515578269958,0.018455244600772858
1772537068589951200,0.678951171875,0.006261492148041725,-0.06664106994867325,0.003627297468483448
1772537068600018200,0.68901806640625,-0.008820890448987484,-0.05281372368335724,-0.022275008261203766
1772537068610086100,0.699086181640625,-0.01523804385215044,-0.03891841694712639,-0.04138105735182762
1772537068620154000,0.709154052734375,-0.02090459316968918,-0.022231442853808403,-0.04825342074036598
1772537068630221000,0.719220947265625,-0.015393448993563652,-0.013153526932001114,-0.0507272332906723
1772537068640289300,0.729289306640625,-0.00010450754780322313,-0.014479780569672585,-0.05701948329806328
1772537068650356200,0.739356201171875,0.0005362490192055702,-0.022498292848467827,-0.052847106009721756
1772537068660424200,0.749424072265625,-0.00027819687966257334,-0.036846987903118134,-0.0444440096616745
1772537068670492200,0.7594921875,0.002773785497993231,-0.0507793128490448,-0.036948539316654205
1772537068680559000,0.76955908203125,0.0063549913465976715,-0.06796678900718689,-0.03597535565495491
1772537068690627000,0.779626953125,0.01814453862607479,-0.07824952900409698,-0.026632722467184067
1772537068700695300,0.7896953125,0.01611626334488392,-0.07615117728710175,-0.018071310594677925
1772537068710762200,0.79976220703125,0.006247386801987886,-0.07365472614765167,-0.009356116876006126
1772537068720830200,0.809830322265625,0.0035317521542310715,-0.06947493553161621,-0.010318079963326454
1772537068730897200,0.819897216796875,0.005967212840914726,-0.05387280881404877,-0.014766357839107513
1772537068740965000,0.829965087890625,-0.0011726705124601722,-0.03485000133514404,-0.010554332286119461
1772537068751033300,0.840033447265625,0.0036364656407386065,-0.012296753004193306,-0.0027510044164955616
1772537068761100300,0.850100341796875,0.004232705105096102,0.002516206819564104,-0.0023642536252737045
1772537068771168000,0.86016796875,0.008661543019115925,0.009476911276578903,-0.0014079123502597213
1772537068781235000,0.87023486328125,0.00944883469492197,0.01290047261863947,-0.0003667878918349743
1772537068791303000,0.880302978515625,0.009280255995690823,0.005611666943877935,-0.0012512237299233675
1772537068801371000,0.890370849609375,0.005813754629343748,-0.0016631132457405329,0.0020406569819897413
1772537068811438000,0.90043798828125,0.0006195254391059279,-0.007486380636692047,0.015985500067472458
1772537068821506000,0.910506103515625,-0.0065691061317920685,-0.008241400122642517,0.024976376444101334
1772537068831574000,0.920573974609375,-0.0135319409891963,-0.0075694844126701355,0.02718280628323555
1772537068841641000,0.930640869140625,-0.01363232173025608,-0.00935274362564087,0.026506246998906136
1772537068851709000,0.940708984375,-0.0172912385314703,-0.002070862567052245,0.01366128958761692
1772537068861776000,0.95077587890625,-0.014528391882777214,-0.0013030115514993668,-0.0016218142118304968
1772537068871844000,0.960843994140625,-0.017612330615520477,0.0005135308019816875,-0.010154848918318748
1772537068881912000,0.970912109375,-0.01845373958349228,-0.005055767949670553,-0.015963096171617508
1772537068891979000,0.98097900390625,-0.014764460735023022,-0.0175143014639616,-0.018544765189290047
1772537068902047000,0.991046875,-0.017290573567152023,-0.032718610018491745,-0.021110055968165398
1772537068912114000,1.001114013671875,-0.020413395017385483,-0.048008617013692856,-0.01540529727935791
1772537068922182100,1.01118212890625,-0.018158385530114174,-0.05880950391292572,-0.011610929854214191
1772537068932250000,1.02125,-0.022434622049331665,-0.05605606362223625,-0.0040861680172383785
1772537068942317000,1.031317138671875,-0.022039737552404404,-0.04783894494175911,0.009420490823686123
1772537068952385000,1.041385009765625,-0.0235912948846817,-0.04138903692364693,0.014604867435991764
1772537068962453000,1.051452880859375,-0.029470130801200867,-0.03415924683213234,0.016125541180372238
1772537068972520000,1.06152001953125,-0.02937452308833599,-0.028052356094121933,0.0199290681630373
1772537068982588200,1.071588134765625,-0.030997348949313164,-0.01937057264149189,0.018006300553679466
1772537068992655000,1.081655029296875,-0.0310953538864851,-0.012493226677179337,0.02074482850730419
1772537069002723000,1.09172314453125,-0.02700219862163067,-0.014410305768251419,0.020460747182369232
1772537069012791000,1.101791015625,-0.027537228539586067,-0.017857501283288002,0.020543305203318596
1772537069022858000,1.11185791015625,-0.03550242632627487,-0.0246269628405571,0.033210963010787964
1772537069032926200,1.12192626953125,-0.045684754848480225,-0.03190271928906441,0.045129675418138504
1772537069042994000,1.131993896484375,-0.04531598091125488,-0.036862701177597046,0.04733358323574066
1772537069053061000,1.14206103515625,-0.036411967128515244,-0.03514496237039566,0.03573072701692581
1772537069063128800,1.15212890625,-0.03507518768310547,-0.03156664967536926,0.02353508397936821
1772537069073196000,1.162196044921875,-0.03176913782954216,-0.034518495202064514,0.02433003857731819
1772537069083264000,1.172263916015625,-0.03292877972126007,-0.03711136057972908,0.024244455620646477
1772537069093332000,1.18233203125,-0.03212503716349602,-0.036842647939920425,0.0219192486256361
1772537069103399000,1.19239892578125,-0.02642064541578293,-0.03350203484296799,0.012288054451346397
1772537069113467000,1.202466796875,-0.020620547235012054,-0.0314284972846508,-0.007480057887732983
1772537069123534000,1.2125341796875,-0.01530527789145708,-0.027266953140497208,-0.018450098112225533
1772537069133601800,1.222601806640625,-0.016083188354969025,-0.03749588876962662,-0.03385835140943527
1772537069143670000,1.232669921875,-0.018889956176280975,-0.04232640191912651,-0.044833067804574966
1772537069153737000,1.242737060546875,-0.023881519213318825,-0.04323960095643997,-0.045231208205223083
1772537069163805000,1.252804931640625,-0.024523235857486725,-0.03592881187796593,-0.03633328527212143
1772537069173873000,1.262872802734375,-0.01086228433996439,-0.027652505785226822,-0.025838833302259445
1772537069183939800,1.27293994140625,0.006485790945589542,-0.016018567606806755,-0.01871785894036293
1772537069194007800,1.2830078125,0.023633886128664017,-0.01213194988667965,-0.014032028615474701
1772537069204074800,1.29307470703125,0.03285498917102814,-0.024583397433161736,-0.0076489741913974285
1772537069214143000,1.30314306640625,0.030239231884479523,-0.03724166750907898,0.0020827490370720625
1772537069224211000,1.3132109375,0.03207016363739967,-0.04124409332871437,0.002398629207164049
1772537069234278000,1.32327783203125,0.026794176548719406,-0.02908329851925373,-0.010688144713640213
1772537069244345900,1.333345947265625,0.01823306642472744,-0.009406895376741886,-0.02442622371017933
1772537069254412800,1.343412841796875,0.015634087845683098,0.011966037563979626,-0.035590458661317825
1772537069264481000,1.35348095703125,0.010241544805467129,0.022543948143720627,-0.041414517909288406
1772537069274549000,1.363549072265625,0.004916021600365639,0.020678937435150146,-0.03724587336182594
1772537069284616000,1.373615966796875,0.0003445419715717435,0.020728792995214462,-0.01775752380490303
1772537069294684000,1.383683837890625,0.004476702306419611,0.021576743572950363,-0.005115765146911144
1772537069304751900,1.393751953125,0.0141544658690691,0.016401832923293114,-0.0036243577487766743
1772537069314818800,1.40381884765625,0.02300282008945942,0.012921348214149475,0.0017357866745442152
1772537069324887000,1.413886962890625,0.027730165049433708,0.005353674758225679,0.00341526186093688
1772537069334954000,1.4239541015625,0.023157251998782158,-0.0010022255592048168,0.0035497513599693775
1772537069345022000,1.43402197265625,0.019925422966480255,-0.007731029763817787,0.0016951430588960648
1772537069355090000,1.44408984375,0.009682640433311462,-0.012663736008107662,0.003376929322257638
1772537069365156900,1.454156982421875,-0.004733285866677761,-0.020104574039578438,0.0026066573336720467
1772537069375225000,1.46422509765625,-0.012641542591154575,-0.016589468345046043,-0.0029417723417282104
1772537069385293000,1.47429296875,-0.0159781351685524,-0.006955155171453953,-0.009886780753731728
1772537069395360000,1.484360107421875,-0.02308504655957222,0.007334568537771702,-0.016612861305475235
1772537069405428000,1.494427978515625,-0.03199762478470802,0.012078914791345596,-0.018647722899913788
1772537069415495000,1.504494873046875,-0.03126472234725952,0.008221592754125595,-0.024100281298160553
1772537069425563000,1.51456298828125,-0.02829246036708355,0.003342845244333148,-0.03206793591380119
1772537069435631000,1.524631103515625,-0.0205242857336998,-0.006605126429349184,-0.033752381801605225
1772537069445698000,1.534697998046875,-0.015465260483324528,-0.013191593810915947,-0.030861543491482735
1772537069455766000,1.54476611328125,-0.015434634871780872,-0.014382826164364815,-0.024806847795844078
1772537069465833000,1.5548330078125,-0.017041945829987526,-0.025611793622374535,-0.014521291479468346
1772537069475901000,1.56490087890625,-0.02476750873029232,-0.03140416741371155,-0.009441311471164227
1772537069485969200,1.57496923828125,-0.025680452585220337,-0.025186527520418167,-0.007595234550535679
1772537069496036000,1.5850361328125,-0.027051713317632675,-0.015619919635355473,-0.014323711395263672
1772537069506104000,1.59510400390625,-0.02350708656013012,-0.006852335762232542,-0.021718187257647514
1772537069516172000,1.605172119140625,-0.022806676104664803,-0.003363594878464937,-0.02687459997832775
1772537069526239000,1.615239013671875,-0.026225682348012924,-0.007583893835544586,-0.023275377228856087
1772537069536307000,1.625306884765625,-0.026815306395292282,-0.025347711518406868,-0.008441569283604622
1772537069546374100,1.6353740234375,-0.022218486294150352,-0.037357039749622345,-0.0025667306035757065
1772537069556442000,1.645442138671875,-0.010317085310816765,-0.0388241745531559,-0.0019486109958961606
1772537069566510000,1.655510009765625,-0.0020874873735010624,-0.028849976137280464,0.007032596040517092
1772537069576577000,1.665576904296875,-0.0036531598307192326,-0.028008950874209404,0.01736299693584442
1772537069586645000,1.67564501953125,-0.00902955699712038,-0.029307283461093903,0.0349707193672657
1772537069596712000,1.6857119140625,-0.01046793069690466,-0.026903780177235603,0.03130621090531349
1772537069606780200,1.6957802734375,-0.012262586504220963,-0.02293528988957405,0.01816534996032715
1772537069616848000,1.705847900390625,-0.019058173522353172,-0.020127518102526665,0.011532481759786606
1772537069626915000,1.7159150390625,-0.02567935734987259,-0.015574879013001919,-0.0030437116511166096
1772537069636983000,1.725983154296875,-0.027681788429617882,-0.004896668717265129,-0.00898895226418972
1772537069647050800,1.73605078125,-0.029203906655311584,-0.0003614411689341068,-0.013623575679957867
1772537069657118200,1.7461181640625,-0.02744329161942005,-0.012436745688319206,-0.006089226342737675
1772537069667186000,1.75618603515625,-0.02503686584532261,-0.024694429710507393,0.000037779915146529675
1772537069677253000,1.766253173828125,-0.016393044963479042,-0.03543948754668236,-0.0016397451981902122
1772537069687320800,1.77632080078125,-0.011291331611573696,-0.03753526881337166,-0.0013111447915434837
1772537069697388800,1.786388916015625,-0.007835879921913147,-0.03699491545557976,0.0028633601032197475
1772537069707456000,1.7964560546875,-0.015388522297143936,-0.04606984183192253,0.00561625137925148
1772537069717524000,1.80652392578125,-0.015906240791082382,-0.04665413871407509,0.015018541365861893
1772537069727592000,1.816592041015625,-0.01482071541249752,-0.04000955820083618,0.011965110898017883
1772537069737659000,1.826658935546875,-0.011814006604254246,-0.03603372350335121,-0.00027237972244620323
1772537069747726800,1.836726806640625,-0.016198862344026566,-0.029251908883452415,-0.010048633441329002
1772537069757793800,1.846793701171875,-0.013029699213802814,-0.02615305595099926,-0.021994508802890778
1772537069767862000,1.856862060546875,-0.008946510031819344,-0.027774088084697723,-0.023695290088653564
1772537069777929700,1.8669296875,-0.010775036178529263,-0.02106824889779091,-0.011887099593877792
1772537069787996700,1.87699658203125,-0.012387597933411598,-0.017097556963562965,0.011065293103456497
1772537069798065000,1.88706494140625,-0.004263625014573336,-0.012287888675928116,0.01806940697133541
1772537069808131800,1.8971318359375,0.0005745261441916227,-0.0039039435796439648,0.016415998339653015
1772537069818199800,1.90719970703125,-0.004352854564785957,-0.0029723700135946274,0.014871098101139069
1772537069828267800,1.917267822265625,-0.01803906448185444,0.0005960739217698574,0.017638595774769783
1772537069838334700,1.927334716796875,-0.0185964647680521,0.015483677387237549,-0.00039766321424394846
1772537069848403000,1.93740283203125,-0.014129338786005974,0.032553672790527344,-0.017729343846440315
1772537069858471000,1.947470947265625,-0.005744908936321735,0.035456784069538116,-0.023262593895196915
1772537069868537900,1.957537841796875,0.002614661119878292,0.028692519292235374,-0.02132515236735344
1772537069878605800,1.967605712890625,0.005601129960268736,0.013333270326256752,0.00010583759285509586
1772537069888672800,1.9776728515625,0.008482752367854118,-0.012012770399451256,0.02531343884766102
1772537069898740700,1.98774072265625,0.012962988577783108,-0.015056497417390347,0.044179268181324005
1772537069908809000,1.99780908203125,0.01693732850253582,-0.00452843401581049,0.04362519457936287
1772537069918876000,2.0078759765625,0.013644330203533173,0.01261619757860899,0.034578170627355576
1772537069928943900,2.01794384765625,0.004270645789802074,0.03651745244860649,0.024646513164043427
1772537069939010800,2.0280107421875,-0.011537878774106503,0.05131823569536209,0.017648791894316673
1772537069949078800,2.038078857421875,-0.021449649706482887,0.052053190767765045,0.014483300969004631
1772537069959147000,2.04814697265625,-0.025663036853075027,0.04527517408132553,0.01086992397904396
1772537069969214000,2.0582138671875,-0.030152730643749237,0.03320563957095146,0.010070930235087872
1772537069979282000,2.068281982421875,-0.026422441005706787,0.019506340846419334,0.009637366980314255
1772537069989350000,2.078349853515625,-0.02170669473707676,0.0107404300943017,0.004073369316756725
1772537069999416800,2.088416748046875,-0.011889483779668808,0.004032193683087826,0.003497593803331256
1772537070009484800,2.09848486328125,-0.00457666115835309,-0.006773022934794426,0.007874835282564163
1772537070019552000,2.108552001953125,-0.00020747899543493986,-0.012565131299197674,0.004730707965791225
1772537070029620000,2.118619873046875,0.012588179670274258,-0.026405880227684975,0.003922258969396353
1772537070039688000,2.12868798828125,0.01407741941511631,-0.044651731848716736,0.006809391546994448
1772537070049755000,2.1387548828125,0.010278460569679737,-0.04463256523013115,0.019198723137378693
1772537070059822800,2.14882275390625,0.007970032282173634,-0.04004393890500069,0.023597732186317444
1772537070069889800,2.158889892578125,0.007434972561895847,-0.05105481296777725,0.03966040909290314
1772537070079958000,2.1689580078125,0.002465780358761549,-0.03818055987358093,0.05869268998503685
1772537070090026000,2.17902587890625,0.013567189686000347,-0.034548014402389526,0.05156249180436134
1772537070100093000,2.189093017578125,0.017663663253188133,-0.030386293306946754,0.032743532210588455
1772537070110161000,2.199160888671875,0.007021383382380009,-0.0049317944794893265,0.01667839288711548
1772537070120227800,2.209227783203125,0.0036093415692448616,-0.0005484973080456257,0.0029082533437758684
1772537070130296000,2.219296142578125,0.006940997205674648,0.004579227417707443,-0.009164712391793728
1772537070140364000,2.229364013671875,0.01715848036110401,-0.011234888806939125,-0.018725993111729622
1772537070150431000,2.239430908203125,0.021730937063694,-0.035271938890218735,-0.012283953838050365
1772537070160499000,2.2494990234375,0.02619173191487789,-0.03794122487306595,-0.008680164813995361
1772537070170567000,2.25956689453125,0.023826872929930687,-0.04468546807765961,0.005570957437157631
1772537070180633900,2.2696337890625,0.01292229350656271,-0.03301283344626427,0.021589605137705803
1772537070190702000,2.2797021484375,0.004045331850647926,-0.013823255896568298,0.03151717409491539
1772537070200769000,2.28976904296875,-0.004709810018539429,0.01173350214958191,0.03260427713394165
1772537070210837000,2.2998369140625,-0.008543717674911022,0.03516612946987152,0.0306008942425251
1772537070220904700,2.30990478515625,-0.00927848368883133,0.04225306957960129,0.019547447562217712
1772537070230972000,2.319971923828125,-0.00858162622898817,0.035796668380498886,0.015542575158178806
1772537070241040000,2.330039794921875,-0.013347619213163853,0.016600865870714188,0.03171888366341591
1772537070251107800,2.34010791015625,-0.010580584406852722,0.00211810483597219,0.03930598869919777
1772537070261175000,2.350175048828125,0.0014473164919763803,-0.023734265938401222,0.02336936630308628
1772537070271242800,2.36024267578125,0.009960592724382877,-0.02533547393977642,0.0011956500820815563
1772537070281310000,2.37031005859375,0.019896313548088074,-0.034507934004068375,-0.0231389831751585
1772537070291377700,2.380377685546875,0.01627730205655098,-0.03269324079155922,-0.033673953264951706
1772537070301446000,2.39044580078125,-0.0002811676822602749,-0.016899364069104195,-0.02448871359229088
1772537070311512800,2.400512939453125,-0.007498916704207659,-0.000280201667919755,-0.010395067743957043
1772537070321580800,2.410580810546875,-0.008097860962152481,0.016612228006124496,-0.005515091121196747
1772537070331648000,2.42064794921875,0.003086739918217063,0.02058287337422371,-0.009896602481603622
1772537070341715700,2.4307158203125,0.00479329377412796,0.022431107237935066,0.0026847030967473984
1772537070351784000,2.440783935546875,0.0010122063104063272,0.021386368200182915,0.017825264483690262
1772537070361851000,2.450850830078125,0.00478057935833931,0.011354507878422737,0.024417653679847717
1772537070371918800,2.4609189453125,0.006823336705565453,-0.007634000852704048,0.02206464856863022
1772537070381985800,2.47098583984375,0.015134795568883419,-0.014578194357454777,0.021422026678919792
1772537070392053800,2.4810537109375,0.01854603737592697,-0.00875998567789793,0.011344358325004578
1772537070402121700,2.491121826171875,0.013654078356921673,-0.0024581479374319315,0.004586054943501949
1772537070412188700,2.501188720703125,0.007699446752667427,0.012739604339003563,-0.004014217294752598
1772537070422257000,2.5112568359375,0.0028695377986878157,0.019572211429476738,-0.016649585217237473
1772537070432324900,2.521324951171875,0.001472226926125586,0.012543445453047752,-0.024775981903076172
1772537070442391800,2.531391845703125,-0.0020255688577890396,-0.0023883667308837175,-0.023232413455843925
1772537070452459800,2.541459716796875,0.00045628752559423447,-0.010109021328389645,-0.014433635398745537
1772537070462526700,2.551526611328125,0.00809876061975956,-0.01829025149345398,-0.009833557531237602
1772537070472595000,2.561594970703125,0.018518364056944847,-0.015297520905733109,-0.01745411567389965
1772537070482663000,2.571662841796875,0.024059336632490158,-0.006066737696528435,-0.016700174659490585
1772537070492729900,2.581729736328125,0.02661912515759468,-0.0004293452948331833,-0.019090399146080017
1772537070502797800,2.5917978515625,0.027831928804516792,-0.01241596695035696,-0.013656219467520714
1772537070512864800,2.60186474609375,0.021967586129903793,-0.026124391704797745,-0.005217554979026318
1772537070522932700,2.6119326171875,0.01774035021662712,-0.03138573095202446,0.010508676990866661
1772537070533001000,2.6220009765625,0.015705255791544914,-0.02409575879573822,0.008533419109880924
1772537070543068000,2.63206787109375,0.02246861904859543,-0.011698211543262005,0.0018209218978881836
1772537070553135900,2.642135986328125,0.0190165676176548,0.0008374862372875214,-0.00618223799392581
1772537070563203800,2.652203857421875,0.00658972654491663,0.0063979001715779305,-0.005851207301020622
1772537070573270800,2.662270751953125,-0.0033786490093916655,0.008865640498697758,-0.006488102022558451
1772537070583339000,2.672339111328125,-0.01321796327829361,0.013319777324795723,0.00047899363562464714
1772537070593406000,2.682406005859375,-0.015624765306711197,0.020842354744672775,-0.006196619011461735
1772537070603474000,2.692473876953125,-0.012993562035262585,0.026977211236953735,-0.008273884654045105
1772537070613542000,2.7025419921875,-0.014476992189884186,0.037702444940805435,-0.00883631780743599
1772537070623608800,2.71260888671875,-0.015678077936172485,0.038530152291059494,-0.00983127485960722
1772537070633676800,2.7226767578125,-0.014357960782945156,0.034200433641672134,-0.00456685945391655
1772537070643745000,2.7327451171875,-0.013196024112403393,0.02105986513197422,0.0011528118047863245
1772537070653812000,2.74281201171875,-0.01315799169242382,0.0019324824679642916,0.009714007377624512
1772537070663880000,2.7528798828125,-0.008430348709225655,-0.011315679177641869,0.01491036731749773
1772537070673947000,2.76294677734375,-0.006697449833154678,-0.017646625638008118,0.01100585050880909
1772537070684014800,2.773014892578125,-0.008190151304006577,-0.019609641283750534,0.011646607890725136
1772537070694083000,2.7830830078125,-0.009456955827772617,-0.012655794620513916,0.003730989992618561
1772537070704150000,2.79314990234375,-0.006517891772091389,-0.007808574941009283,-0.003349822945892811
1772537070714218000,2.803218017578125,-0.008963686414062977,-0.013313746079802513,-0.011409912258386612
1772537070724285000,2.813284912109375,-0.007421716116368771,-0.01287459023296833,-0.01067594438791275
1772537070734353000,2.823352783203125,-0.0021762920077890158,-0.016759807243943214,-0.007532788440585136
1772537070744420900,2.8334208984375,0.0061644623056054115,-0.026757581159472466,-0.0066784461960196495
1772537070754488000,2.843488037109375,0.004634249024093151,-0.033045850694179535,0.001975538907572627
1772537070764556000,2.85355615234375,0.00004136119969189167,-0.026982365176081657,0.01205080933868885
1772537070774623700,2.863623779296875,-0.01048203743994236,-0.014788221567869186,0.014658823609352112
1772537070784691000,2.87369091796875,-0.005880095064640045,-0.01035512425005436,-0.0017814020393416286
1772537070794759000,2.883759033203125,-0.009605157189071178,-0.007224986329674721,-0.012701470404863358
1772537070804825900,2.893825927734375,-0.014812968671321869,-0.012240517884492874,-0.017698626965284348
1772537070814893800,2.903893798828125,-0.012661096639931202,-0.0032714498229324818,-0.02055571787059307
1772537070824961500,2.91396142578125,-0.00450969347730279,0.0009515248239040375,-0.021647613495588303
1772537070835028700,2.92402880859375,0.005573925096541643,-0.013591894879937172,-0.02582423761487007
1772537070845096700,2.9340966796875,0.01061955001205206,-0.02741263620555401,-0.02118421345949173
1772537070855164000,2.944163818359375,0.0013700335985049605,-0.016169404610991478,-0.013188881799578667
1772537070865232000,2.95423193359375,0.003599099349230528,0.0005629695951938629,-0.018179379403591156
1772537070875299600,2.964299560546875,0.006674527190625668,0.009112290106713772,-0.024165868759155273
1772537070885366800,2.97436669921875,0.0055482760071754456,0.012794642709195614,-0.02734248712658882
1772537070895434800,2.984434814453125,0.00749253761023283,0.008073028177022934,-0.025019044056534767
1772537070905502700,2.994502685546875,0.010677678510546684,0.002934725722298026,-0.02251114509999752
1772537070915569700,3.004569580078125,0.009092113934457302,-0.01063321903347969,-0.02351171150803566
1772537070925637600,3.0146376953125,0.011594686657190323,-0.015826916322112083,-0.014415951445698738
1772537070935704800,3.024704833984375,0.01372619904577732,-0.004778321832418442,-0.017798148095607758
1772537070945772500,3.0347724609375,0.019214974716305733,0.01629979908466339,-0.019405366852879524
1772537070955840800,3.0448408203125,0.016938503831624985,0.030182592570781708,-0.010124515742063522
1772537070965907700,3.05490771484375,0.005288772284984589,0.044719986617565155,0.0013369307853281498
1772537070975975700,3.0649755859375,-0.010143447667360306,0.05557343363761902,0.008682727813720703
1772537070986042600,3.075042724609375,-0.006534597836434841,0.048749618232250214,0.011539766564965248
1772537070996110600,3.085110595703125,-0.010167364962399006,0.046897150576114655,0.00648701936006546
1772537071006178800,3.0951787109375,-0.02070389688014984,0.044620413333177567,0.0010373927652835846
1772537071016245800,3.105245849609375,-0.02106499671936035,0.04094000905752182,0.0021751467138528824
1772537071026313700,3.115313720703125,-0.021016260609030724,0.04196266084909439,-0.008937159553170204
1772537071036381700,3.125381591796875,-0.015131199732422829,0.03713536635041237,-0.01580026187002659
1772537071046448600,3.13544873046875,-0.010292502120137215,0.03622190281748772,-0.006899445317685604
1772537071056516600,3.1455166015625,-0.003430795855820179,0.033481620252132416,0.00028961291536688805
1772537071066583800,3.155583740234375,0.004534186329692602,0.022900881245732307,0.008088679984211922
1772537071076651800,3.16565185546875,0.011223402805626392,0.006412888877093792,0.01856139674782753
1772537071086719700,3.1757197265625,0.015727074816823006,-0.004137756302952766,0.028019079938530922
1772537071096786700,3.18578662109375,0.016215918585658073,-0.005316033959388733,0.025966152548789978
1772537071106854700,3.195854736328125,0.01782926172018051,-0.004470480605959892,0.01006122026592493
1772537071116921600,3.205921630859375,0.015321648679673672,-0.00460186880081892,0.006004679948091507
1772537071126989800,3.21598974609375,0.008155083283782005,0.011666582897305489,0.0074579669162631035
1772537071137057800,3.226057861328125,0.001831970177590847,0.02049393020570278,0.010288821533322334
1772537071147124700,3.236124755859375,0.0005643053445965052,0.016478683799505234,0.002235423307865858
1772537071157192700,3.246192626953125,0.0015923044411465526,0.012794280424714088,-0.010150881484150887
1772537071167260700,3.2562607421875,0.005704225040972233,0.007580876350402832,-0.020681818947196007
1772537071177327900,3.266327880859375,0.01465888973325491,-0.0014144552405923605,-0.02329457737505436
1772537071187395800,3.276395751953125,0.017911139875650406,-0.007269946858286858,-0.017434025183320045
1772537071197462800,3.286462890625,0.01828216202557087,-0.01172933541238308,-0.00813192967325449
1772537071207530800,3.29653076171875,0.026577109470963478,-0.009583094157278538,-0.0012228909181430936
1772537071217598700,3.3065986328125,0.017398513853549957,-0.00531781604513526,0.014567498117685318
1772537071227665700,3.316665771484375,0.021466225385665894,-0.0042701284401118755,0.012192755937576294
1772537071237734000,3.32673388671875,0.018953340128064156,-0.0007860723417252302,-0.0012057521380484104
1772537071247800800,3.33680078125,0.01560494676232338,0.0000719982199370861,-0.00963971670717001
1772537071257868800,3.346868896484375,0.004607442766427994,-0.005720916204154491,-0.007979081943631172
1772537071267936800,3.356936767578125,-0.003620659466832876,-0.00842109601944685,-0.002969942055642605
1772537071278003700,3.367003662109375,-0.004727866500616074,-0.009476062841713428,-0.010746956802904606
1772537071288072000,3.377072021484375,-0.006138010416179895,-0.0016956378240138292,-0.015761956572532654
1772537071298140000,3.387139892578125,-0.007086894474923611,0.00209883414208889,-0.02397860772907734
1772537071308206800,3.397206787109375,-0.0063486662693321705,0.005028311163187027,-0.03756339102983475
1772537071318274800,3.40727490234375,-0.003094858955591917,0.002056148834526539,-0.049612533301115036
1772537071328341800,3.417341796875,-0.008457932621240616,-0.006440932862460613,-0.05495510250329971
1772537071338409700,3.42740966796875,-0.012064262293279171,-0.012231307104229927,-0.06089962273836136
1772537071348478000,3.43747802734375,-0.020188767462968826,-0.013618813827633858,-0.05920691788196564
1772537071358545000,3.447544921875,-0.02807576023042202,-0.02367738075554371,-0.048211462795734406
1772537071368612900,3.45761279296875,-0.025113260373473167,-0.0334586426615715,-0.04187260940670967
1772537071378679800,3.4676796875,-0.02101324126124382,-0.04386940971016884,-0.035318586975336075
1772537071388747800,3.477747802734375,-0.007095827721059322,-0.04707052931189537,-0.03234490379691124
1772537071398815700,3.487815673828125,0.00018570455722510815,-0.04565884917974472,-0.030043380334973335
1772537071408883000,3.497883056640625,-0.0016723829321563244,-0.05269571766257286,-0.025656886398792267
1772537071418951000,3.507950927734375,-0.007922040298581123,-0.04838653653860092,-0.013907083310186863
1772537071429018600,3.5180185546875,-0.009840846993029118,-0.03716797009110451,-0.004825437907129526
1772537071439085800,3.5280859375,-0.00637122243642807,-0.02711757831275463,0.0016114255413413048
1772537071449153500,3.538153564453125,-0.001174862845800817,-0.025989729911088943,0.005872217006981373
1772537071459220700,3.548220703125,0.0032185229938477278,-0.028083540499210358,0.013868177309632301
1772537071469288700,3.558288818359375,0.007017255760729313,-0.026280049234628677,0.015403490513563156
1772537071479356700,3.568356689453125,0.007263977080583572,-0.023933175951242447,0.014397243969142437
1772537071489424000,3.578423828125,0.0031027880031615496,-0.018123488873243332,0.00927438773214817
1772537071499491600,3.58849169921875,0.0049562156200408936,-0.023681683465838432,-0.005465363152325153
1772537071509558800,3.598558837890625,0.006884611211717129,-0.03112228959798813,-0.01860140450298786
1772537071519626800,3.608626708984375,0.0017280641477555037,-0.03143556788563728,-0.017770014703273773
1772537071529694700,3.61869482421875,-0.0028248759917914867,-0.02028064988553524,-0.017411552369594574
1772537071539761700,3.62876171875,-0.001570619409903884,-0.00958096981048584,-0.018872037529945374
1772537071549829600,3.63882958984375,-0.004047359339892864,0.0006855153478682041,-0.017686933279037476
1772537071559897600,3.648897705078125,-0.0035116439685225487,0.011461635120213032,-0.015901977196335793
1772537071569964500,3.658964599609375,0.0003922840114682913,0.014800439588725567,-0.019986467435956
1772537071580032800,3.66903271484375,-0.0011115610832348466,0.010309272445738316,-0.023145204409956932
1772537071590099700,3.679099609375,-0.0019123735837638378,0.0025078081525862217,-0.01543482020497322
1772537071600167700,3.689167724609375,-0.0016274061053991318,-0.01200557965785265,-0.008215760812163353
1772537071610235600,3.699235595703125,-0.0012052950914949179,-0.02082357369363308,0.008732330054044724
1772537071620302600,3.709302490234375,0.005954695865511894,-0.0261548925191164,0.019603600725531578
1772537071630370800,3.719370849609375,0.012882642447948456,-0.019622424617409706,0.02256183885037899
1772537071640437800,3.729437744140625,0.017568198963999748,-0.015356525778770447,0.01606573350727558
1772537071650505700,3.739505615234375,0.024487623944878578,-0.009973745793104172,0.005360091105103493
1772537071660573700,3.74957373046875,0.018906090408563614,-0.0037641150411218405,0.0016402038745582104
1772537071670640600,3.759640625,0.006645961664617062,-0.0046133967116475105,-0.0027598708402365446
1772537071680708600,3.76970849609375,-0.0030126795172691345,0.004440114833414555,-0.0032433366868644953
1772537071690776800,3.77977685546875,-0.003085650037974119,0.00012100022286176682,-0.014432608149945736
1772537071700843800,3.78984375,-0.003789994167163968,0.0006742067635059357,-0.013032756745815277
1772537071710911700,3.799911865234375,0.0013405855279415846,0.002359188860282302,-0.004824627190828323
1772537071720978700,3.809978759765625,0.008382966741919518,-0.00345304305665195,0.0026139644905924797
1772537071731046700,3.820046630859375,0.014458436518907547,-0.009551682509481907,0.013214144855737686
1772537071741115000,3.830114990234375,0.01618357188999653,-0.017145132645964622,0.021460959687829018
1772537071751181800,3.840181884765625,0.009912359528243542,-0.023364147171378136,0.026341469958424568
1772537071761249800,3.850249755859375,0.00045268842950463295,-0.03038339875638485,0.025265725329518318
1772537071771316700,3.860316650390625,-0.0037186206318438053,-0.031982626765966415,0.018618742004036903
1772537071781385500,3.870385498046875,-0.004923579283058643,-0.021091759204864502,-0.003959878347814083
1772537071791453400,3.880453369140625,-0.00740085169672966,-0.008504594676196575,-0.017160901799798012
1772537071801520400,3.890520263671875,-0.007164666894823313,-0.009344630874693394,-0.024375353008508682
1772537071811588600,3.900588623046875,-0.005724429618567228,-0.005095823667943478,-0.02122536487877369
1772537071821656600,3.910656494140625,-0.0037210704758763313,-0.00843578390777111,-0.007721849251538515
1772537071831723500,3.9207236328125,0.0013184293638914824,-0.014909395948052406,0.012034278362989426
1772537071841791500,3.93079150390625,0.008259139023721218,-0.014196193777024746,0.026413599029183388
1772537071851858400,3.9408583984375,0.010367031209170818,-0.008191831409931183,0.03159238398075104
1772537071861926700,3.9509267578125,0.010764620266854763,-0.0029184995219111443,0.0295900646597147
1772537071871994400,3.960994384765625,-0.0005431610625237226,-0.0053188069723546505,0.026516776531934738
1772537071882061600,3.9710615234375,-0.011930315755307674,-0.005124703049659729,0.01457433495670557
1772537071892129500,3.981129638671875,-0.02060556411743164,0.0032402859069406986,-0.0072665149345994
1772537071902196500,3.991196533203125,-0.025964438915252686,0.01488622184842825,-0.02029745653271675
1772537071912264400,4.001264404296875,-0.024167336523532867,0.018910789862275124,-0.02775563858449459
1772537071922332400,4.01133251953125,-0.01768431067466736,0.022247299551963806,-0.02357633039355278
1772537071932399600,4.021399658203125,-0.005924590863287449,0.01975058577954769,-0.013201188296079636
1772537071942467300,4.03146728515625,0.008889766409993172,0.015152332372963428,-0.0008771732682362199
1772537071952535300,4.041535400390625,0.023474834859371185,0.003928706981241703,0.008378377184271812
1772537071962602500,4.0516025390625,0.029041290283203125,-0.00833494495600462,0.01488343346863985
1772537071972670500,4.06167041015625,0.02456584759056568,-0.019154837355017662,0.025212503969669342
1772537071982737700,4.071737548828125,0.0039500826969742775,-0.02482413873076439,0.037408098578453064
1772537071992805400,4.081805419921875,-0.008197926916182041,-0.016031179577112198,0.03262559324502945
1772537072002873300,4.091873291015625,-0.0010272115468978882,-0.0035466435365378857,0.012639472261071205
1772537072012940300,4.101940185546875,0.0015240967040881515,0.00688549131155014,-0.012875208631157875
1772537072023008300,4.11200830078125,-0.0011167554184794426,0.019204407930374146,-0.013355471193790436
1772537072033075500,4.122075439453125,0.0009591785492375493,0.018853137269616127,-0.01166809257119894
1772537072043143400,4.132143310546875,0.011968830600380898,0.004722266923636198,-0.008065558038651943
1772537072053211400,4.14221142578125,0.021717863157391548,-0.009143747389316559,0.00014789693523198366
1772537072063278300,4.1522783203125,0.023621706292033195,-0.007721380330622196,0.01485726609826088
1772537072073346300,4.16234619140625,0.030140860006213188,0.000052652787417173386,0.01913190633058548
1772537072083414500,4.17241455078125,0.041481006890535355,-0.0007016907911747694,0.014229104854166508
1772537072093481500,4.1824814453125,0.0396420918405056,-0.014194329269230366,0.017929567024111748
1772537072103549400,4.192549560546875,0.02724616602063179,-0.019632510840892792,0.025680048391222954
1772537072113616400,4.202616455078125,0.02675747685134411,-0.0056818085722625256,0.029700355604290962
1772537072123684400,4.212684326171875,0.022819984704256058,0.004516725894063711,0.013810575939714909
1772537072133752300,4.22275244140625,0.010904735885560513,0.018201112747192383,0.00855269655585289
1772537072143819500,4.232819580078125,0.005956263281404972,0.0331542044878006,-0.0014046602882444859
1772537072153887500,4.242887451171875,0.008029268123209476,0.029883572831749916,-0.020459311082959175
1772537072163954400,4.252954345703125,0.004997483920305967,0.013914474286139011,-0.02727304771542549
1772537072174022400,4.2630224609375,0.004844085779041052,-0.004537503235042095,-0.019703278318047523
1772537072184090400,4.27309033203125,0.007509593386203051,-0.013893482275307178,-0.010859522968530655
1772537072194157300,4.2831572265625,0.01916411891579628,-0.011696906760334969,-0.008427790366113186
1772537072204225500,4.2932255859375,0.028523266315460205,-0.013149215839803219,-0.015033131465315819
1772537072214293500,4.30329345703125,0.025017214938998222,-0.010378463193774223,-0.02069740928709507
1772537072224360400,4.3133603515625,0.011126943863928318,-0.009902283549308777,-0.024892035871744156
1772537072234428400,4.323428466796875,-0.0027435985393822193,-0.003573814406991005,-0.023076560348272324
1772537072244495400,4.333495361328125,-0.01326222438365221,0.0015206147218123078,-0.021770717576146126
1772537072254563600,4.3435634765625,-0.017725950106978416,0.018074024468660355,-0.015972217544913292
1772537072264631600,4.353631591796875,-0.011433410458266735,0.031126437708735466,-0.018135352060198784
1772537072274698500,4.363698486328125,-0.001125112408772111,0.03445032984018326,-0.012325666844844818
1772537072284766500,4.373766357421875,0.005169321782886982,0.027944520115852356,-0.003403213806450367
1772537072294833400,4.38383349609375,0.006627402268350124,0.019742783159017563,0.012934746220707893
1772537072304901400,4.3939013671875,0.0149800144135952,0.008364112116396427,0.02274102158844471
1772537072314969600,4.403969482421875,0.02268214337527752,0.004673769697546959,0.02353171445429325
1772537072325036500,4.41403662109375,0.026862643659114838,0.010120111517608166,0.019130254164338112
1772537072335104500,4.4241044921875,0.025336651131510735,0.018996695056557655,0.010833444073796272
1772537072345172500,4.43417236328125,0.025251345708966255,0.0231606625020504,0.0004759982693940401
1772537072355239400,4.444239501953125,0.019822491332888603,0.02099045179784298,0.00216071424074471
1772537072365307600,4.4543076171875,0.013666953891515732,0.01818384975194931,0.006287824362516403
1772537072375374600,4.46437451171875,0.015494415536522865,0.012277491390705109,0.0069387005642056465
1772537072385442600,4.474442626953125,0.021294277161359787,0.008273729123175144,0.005857105366885662
1772537072395510500,4.484510498046875,0.021056190133094788,0.001746853580698371,0.001494847470894456
1772537072405577500,4.494577392578125,0.016829395666718483,-0.0012719416990876198,0.0038530677556991577
1772537072415645400,4.5046455078125,0.008850299753248692,-0.00012944568879902363,0.0054821232333779335
1772537072425712400,4.51471240234375,0.00008701428305357695,0.0014911837643012404,0.011173459701240063
1772537072435780600,4.524780517578125,-0.0030659022741019726,0.009409028105437756,0.012733006849884987
1772537072445848600,4.5348486328125,-0.002998676151037216,0.01829671300947666,-0.00034411740489304066
1772537072455915500,4.54491552734375,0.00011056452058255672,0.021215803921222687,-0.009495271369814873
1772537072465983500,4.5549833984375,-0.0035299069713801146,0.01797342486679554,-0.016012068837881088
1772537072476051500,4.565051513671875,-0.009118550457060337,0.019219253212213516,-0.003828640328720212
1772537072486118700,4.57511865234375,-0.010159631259739399,0.022995054721832275,0.00213757180608809
1772537072496186400,4.585186279296875,-0.0044279759749770164,0.026492850854992867,0.005038819275796413
1772537072506253600,4.595253662109375,0.007936077192425728,0.024684365838766098,0.008634980767965317
1772537072516321500,4.605321533203125,0.017740504816174507,0.016947349533438683,0.01334371604025364
1772537072526389200,4.61538916015625,0.026357274502515793,0.009481007233262062,0.015187052078545094
1772537072536456400,4.62545654296875,0.026262465864419937,-0.0007039853371679783,0.022306479513645172
1772537072546524400,4.6355244140625,0.025708548724651337,-0.004416704643517733,0.02790752798318863
1772537072556592400,4.64559228515625,0.023573758080601692,-0.00452429661527276,0.02640204131603241
1772537072566659300,4.655659423828125,0.017782136797904968,-0.0033456962555646896,0.02080223523080349
1772537072576727300,4.665727294921875,0.0114789679646492,0.004516221582889557,0.014108378440141678
1772537072586794500,4.67579443359375,0.008295614272356033,0.011747747659683228,0.0022384589537978172
1772537072596862500,4.685862548828125,0.0011551470961421728,0.01462609227746725,0.002562565729022026
1772537072606930400,4.695930419921875,-0.007275180891156197,0.02101784385740757,0.004930904600769281
1772537072616997400,4.705997314453125,-0.0033896290697157383,0.021895620971918106,0.007297123316675425
1772537072627065300,4.7160654296875,0.002243929775431752,0.014965794049203396,0.0052714161574840546
1772537072637132300,4.72613232421875,0.008578791283071041,0.003415132174268365,0.014738952741026878
1772537072647200500,4.736200439453125,0.0064653875306248665,-0.007053691893815994,0.021828804165124893
1772537072657268500,4.7462685546875,0.00892721302807331,-0.0164629053324461,0.02019255794584751
1772537072667335400,4.75633544921875,0.01182470191270113,-0.017474941909313202,0.01624051295220852
1772537072677403400,4.7664033203125,0.014492124319076538,-0.014984886161983013,0.01582479290664196
1772537072687471400,4.776471435546875,0.01179380901157856,-0.018811583518981934,0.012980803847312927
1772537072697538300,4.786538330078125,0.007559916004538536,-0.018749531358480453,0.01527937687933445
1772537072707606500,4.7966064453125,0.0069348616525530815,-0.020489413291215897,0.017171524465084076
1772537072717673500,4.806673583984375,0.012865454889833927,-0.021323515102267265,0.015382946468889713
1772537072727741400,4.816741455078125,0.01912503130733967,-0.01710633933544159,0.013618050143122673
1772537072737809400,4.826809326171875,0.027331296354532242,-0.021304013207554817,0.011711759492754936
1772537072747876400,4.83687646484375,0.02710459940135479,-0.018868355080485344,0.011327103711664677
1772537072757944600,4.846944580078125,0.02998693846166134,-0.01716899313032627,0.0032449422869831324
1772537072768011500,4.857011474609375,0.03002689592540264,-0.013769958168268204,-0.005168485455214977
1772537072778079200,4.867079345703125,0.029212234541773796,-0.01718972437083721,-0.008500899188220501
1772537072788147200,4.877147216796875,0.03043256886303425,-0.023903708904981613,-0.004817891865968704
1772537072798214100,4.887214111328125,0.028531603515148163,-0.020871702581644058,0.002236289205029607
1772537072808282400,4.897282470703125,0.03171249106526375,-0.015961412340402603,0.005859377793967724
1772537072818350300,4.907350341796875,0.03571042791008949,-0.008527731522917747,0.001968499505892396
1772537072828417300,4.917417236328125,0.041624244302511215,-0.005125542636960745,0.006018368527293205
1772537072838485200,4.9274853515625,0.03794269263744354,-0.006604395341128111,0.014238215982913971
1772537072848552200,4.93755224609375,0.035599615424871445,-0.004575812257826328,0.013599840924143791
1772537072858620200,4.9476201171875,0.03593889996409416,-0.004873286932706833,0.008715071715414524
1772537072868688400,4.9576884765625,0.03582003712654114,-0.0018225195817649364,-0.004019246436655521
1772537072878755300,4.96775537109375,0.02873549796640873,-0.0016046729870140553,-0.008580176159739494
1772537072888823300,4.9778232421875,0.025751324370503426,-0.004913706332445145,-0.007666846737265587
1772537072898890200,4.98789013671875,0.02499844878911972,-0.01243953313678503,-0.010363563895225525
1772537072908958200,4.997958251953125,0.015621407888829708,-0.014166442677378654,-0.0005159634165465832
1772537072919026400,5.0080263671875,0.009003185667097569,-0.015452481806278229,0.009496456943452358
1772537072929093400,5.01809326171875,0.005702372640371323,-0.01478359755128622,0.014915713109076023
1772537072939161300,5.028161376953125,0.004205676261335611,-0.0015887005720287561,0.012796103022992611
1772537072949229300,5.038229248046875,0.004312682431191206,0.010249288752675056,0.010744871571660042
1772537072959296300,5.048296142578125,0.0017682984471321106,0.017422780394554138,0.006292332895100117
1772537072969364200,5.0583642578125,-0.0026958556845784187,0.018671145662665367,0.013212593272328377
1772537072979431200,5.06843115234375,-0.004442356992512941,0.018066609278321266,0.018081650137901306
1772537072989499400,5.07849951171875,-0.0011762147769331932,0.01251603476703167,0.019384773448109627
1772537072999567400,5.0885673828125,0.0018078571883961558,0.005613921210169792,0.02734762616455555
1772537073009634300,5.09863427734375,0.0016373629914596677,0.004022654611617327,0.0286389272660017
1772537073019702300,5.108702392578125,0.007697918452322483,0.0009789278265088797,0.023855622857809067
1772537073029770500,5.1187705078125,0.00776251032948494,0.0006163353100419044,0.02527676150202751
1772537073039837400,5.12883740234375,0.007776625454425812,-0.0023139407858252525,0.016211360692977905
1772537073049905400,5.138905517578125,0.006917748134583235,0.0015356182120740414,0.015662718564271927
1772537073059972400,5.148972412109375,0.003984009847044945,-0.0005797306075692177,0.014630744233727455
1772537073070040300,5.159040283203125,0.0015175043372437358,-0.002755437744781375,0.011318996548652649
1772537073080108300,5.1691083984375,0.003300224430859089,-0.006806105375289917,0.003974264021962881
1772537073090175200,5.17917529296875,-0.0008198227151297033,-0.014778368175029755,0.0003587142564356327
1772537073100243500,5.189243408203125,-0.002428105566650629,-0.014765851199626923,0.0012335625942796469
1772537073110310400,5.199310302734375,0.0003063834737986326,-0.01545492559671402,-0.002345707267522812
1772537073120378400,5.20937841796875,0.00559542141854763,-0.007280353456735611,-0.0064110225066542625
1772537073130446000,5.219446044921875,0.004766249563544989,-0.0031711445190012455,-0.005193700548261404
1772537073140513300,5.22951318359375,0.007824623957276344,-0.0004331483505666256,-0.0008125342428684235
1772537073150581200,5.239581298828125,0.00426867138594389,-0.00012862589210271835,-0.00031509704422205687
1772537073160649200,5.249649169921875,0.00680187065154314,-0.0019656741060316563,-0.0029353811405599117
1772537073170716200,5.259716064453125,0.0013859606115147471,-0.0024616101291030645,-0.0016729063354432583
1772537073180784000,5.2697841796875,-0.003443415742367506,-0.0012232402805238962,0.0020595139358192682
1772537073190851300,5.279851318359375,-0.0020683270413428545,0.005501523148268461,-0.00011592707596719265
1772537073200919000,5.2899189453125,0.000024917535483837128,0.015178385190665722,-0.00828597228974104
1772537073210987300,5.2999873046875,0.0032626809552311897,0.017977578565478325,-0.01272345706820488
1772537073221054200,5.31005419921875,-0.0001365778734907508,0.01806812547147274,-0.008912739343941212
1772537073231122200,5.3201220703125,-0.0003168645780533552,0.014991416595876217,-0.013816654682159424
1772537073241189000,5.330189208984375,0.002162272110581398,0.015291554853320122,-0.0081997811794281
1772537073251257000,5.340257080078125,0.0058476366102695465,0.008345825597643852,0.003626498393714428
1772537073261325300,5.3503251953125,0.0061887879855930805,0.007890425622463226,0.012644493952393532
1772537073271392300,5.360392333984375,0.013169282115995884,0.011831965297460556,0.017312727868556976
1772537073281460200,5.370460205078125,0.017013557255268097,0.019046202301979065,0.01594652608036995
1772537073291528200,5.380528076171875,0.013507584109902382,0.019045019522309303,0.005706826224923134
1772537073301595100,5.39059521484375,0.00949899386614561,0.01752781681716442,-0.0016240573022514582
1772537073311663000,5.4006630859375,0.001855702605098486,0.01961165852844715,-0.00044034025631845
1772537073321730300,5.410730224609375,-0.001805877429433167,0.025170475244522095,-0.003745589405298233
1772537073331798300,5.42079833984375,-0.003111989703029394,0.026100575923919678,-0.002807935234159231
1772537073341866200,5.4308662109375,0.0004212261410430074,0.029703034088015556,-0.003389569465070963
1772537073351933200,5.44093310546875,0.007260223850607872,0.027397802099585533,0.002250206656754017
1772537073362001200,5.451001220703125,0.011299173347651958,0.026278475299477577,0.009623168036341667
1772537073372069400,5.4610693359375,0.013904103077948093,0.01974397897720337,0.009406132623553276
1772537073382136300,5.47113623046875,0.015260185115039349,0.01309353206306696,0.013377971015870571
1772537073392204300,5.481204345703125,0.012672070413827896,0.006199645809829235,0.016584619879722595
1772537073402271200,5.491271240234375,0.009154301136732101,0.007558656856417656,0.011391722597181797
1772537073412339200,5.501339111328125,0.003146781586110592,0.009580869227647781,0.01256878487765789
1772537073422407200,5.5114072265625,-0.0026778182946145535,0.01137823797762394,0.00587439676746726
1772537073432474400,5.521474365234375,-0.007237610872834921,0.01808365248143673,-0.003076364751905203
1772537073442542300,5.531542236328125,-0.007047727238386869,0.021115927025675774,-0.007459395565092564
1772537073452609300,5.541609375,-0.0024032853543758392,0.02527507022023201,-0.01025471743196249
1772537073462677200,5.55167724609375,0.00023910298477858305,0.016168391332030296,-0.008823534473776817
1772537073472745200,5.5617451171875,0.0016961721703410149,0.010258597321808338,0.0009141105692833662
1772537073482812200,5.571812255859375,0.002472749911248684,0.007003415375947952,0.011046906001865864
1772537073492880400,5.58188037109375,0.01215753611177206,0.004537081345915794,0.013312006369233131
1772537073502948400,5.5919482421875,0.013139177113771439,-0.0026137724053114653,0.010692787356674671
1772537073513015300,5.602015380859375,0.009924700483679771,-0.005090054590255022,0.018826404586434364
1772537073523083300,5.612083251953125,0.008335059508681297,-0.0026860185898840427,0.021234434098005295
1772537073533150200,5.622150146484375,0.003057678695768118,0.004918569698929787,0.016445709392428398
1772537073543218400,5.632218505859375,-0.001880887197330594,0.016158441081643105,0.005256970878690481
1772537073553286400,5.642286376953125,0.001110118580982089,0.020158816128969193,-0.007475839462131262
1772537073563353300,5.652353271484375,-0.0005311876884661615,0.016302291303873062,-0.016674663871526718
1772537073573421300,5.66242138671875,0.005513051990419626,0.010503683239221573,-0.020453814417123795
1772537073583488300,5.67248828125,0.008027608506381512,-0.004280056804418564,-0.009632857516407967
1772537073593556200,5.68255615234375,0.011217521503567696,-0.013112423941493034,0.0013445410877466202
1772537073603624400,5.69262451171875,0.008804431185126305,-0.01109960675239563,0.014326119795441628
1772537073613691400,5.70269140625,0.008049876429140568,0.0027535625267773867,0.012784168124198914
1772537073623759400,5.71275927734375,0.011913590133190155,0.01465682778507471,0.012721583247184753
1772537073633827300,5.722827392578125,0.0075387838296592236,0.021370889618992805,0.0083719277754426
1772537073643894300,5.732894287109375,0.004026607610285282,0.024058550596237183,0.013718756847083569
1772537073653962500,5.74296240234375,0.0026642614975571632,0.02505994774401188,0.011347224935889244
1772537073664031200,5.75303125,0.009342404082417488,0.021364012733101845,0.009297389537096024
1772537073674098200,5.76309814453125,0.018096253275871277,0.008479181677103043,0.0035427790135145187
1772537073684166100,5.773166259765625,0.017011014744639397,-0.006372734904289246,0.008641934022307396
1772537073694234400,5.783234375,0.014604992233216763,-0.010664820671081543,0.022914154455065727
1772537073704301300,5.79330126953125,0.009281599894165993,-0.002844715490937233,0.024990888312458992
1772537073714369300,5.803369384765625,0.01471842173486948,0.0008794555906206369,0.019570939242839813
1772537073724437200,5.813437255859375,0.01477754395455122,0.0029423402156680822,0.013215571641921997
1772537073734504200,5.823504150390625,0.007193614728748798,0.006497278809547424,0.019044185057282448
1772537073744572200,5.833572265625,-0.0005242262268438935,0.00764883030205965,0.02219044417142868
1772537073754639000,5.84363916015625,-0.0027497089467942715,0.01032890472561121,0.015491722151637077
1772537073764707300,5.853707275390625,-0.00606374628841877,0.016165489330887794,0.00843407865613699
1772537073774775300,5.863775390625,-0.008113718591630459,0.0179664958268404,0.006958378944545984
1772537073784842200,5.87384228515625,-0.006712895818054676,0.01718911901116371,-0.00003881019074469805
1772537073794910500,5.883910400390625,-0.002666641492396593,0.019057687371969223,-0.004151635803282261
1772537073804977400,5.893977294921875,0.0024516875855624676,0.024196257814764977,0.0031435610726475716
1772537073815045400,5.90404541015625,0.006992990151047707,0.02680310793220997,0.006483051925897598
1772537073825113300,5.91411328125,0.01231478527188301,0.019753986969590187,0.007929680868983269
1772537073835180300,5.92418017578125,0.011867552995681763,0.012752081267535686,0.013593771494925022
1772537073845248300,5.934248291015625,0.009394008666276932,0.014242919161915779,0.0176489669829607
1772537073855316500,5.94431640625,0.01218524482101202,0.016019785776734352,0.014904698356986046
1772537073865383400,5.954383544921875,0.012046227231621742,0.02231922745704651,0.006729059852659702
1772537073875451400,5.964451416015625,0.01540381833910942,0.02103571407496929,-0.007059914991259575
1772537073885518300,5.974518310546875,0.01221068948507309,0.02090921439230442,-0.012459207326173782
1772537073895586300,5.98458642578125,0.019683239981532097,0.02281874790787697,-0.015054045245051384
1772537073905654500,5.994654541015625,0.024893980473279953,0.01668735034763813,-0.01551264151930809
1772537073915721500,6.004721435546875,0.026259183883666992,0.01071972120553255,-0.0067115118727087975
1772537073925789400,6.01478955078125,0.023924656212329865,0.009436876513063908,0.00587804988026619
1772537073935857400,6.024857421875,0.02763325534760952,0.01323254220187664,0.012660660780966282
1772537073945924400,6.03492431640625,0.028450313955545425,0.005075546912848949,0.010013477876782417
1772537073955992300,6.044992431640625,0.02907422184944153,0.0017127927858382463,0.006186871789395809
1772537073966059500,6.0550595703125,0.024947386234998703,0.0036233444698154926,0.004271792247891426
1772537073976127500,6.06512744140625,0.019938528537750244,0.007819107733666897,0.0009738502558320761
1772537073986195200,6.0751953125,0.016633812338113785,0.011833556927740574,-0.00027517240960150957
1772537073996262400,6.085262451171875,0.01294733677059412,0.016693776473402977,-0.006052912678569555
1772537074006330400,6.095330322265625,0.009798415005207062,0.020595574751496315,-0.008578920736908913
1772537074016398300,6.1053984375,0.010883530601859093,0.011582501232624054,-0.00705072283744812
1772537074026465500,6.115465576171875,0.009355941787362099,0.007335026282817125,-0.0018706080736592412
1772537074036533200,6.125533203125,0.009844326414167881,0.01107083447277546,0.004379885736852884
1772537074046600400,6.135600341796875,0.005755841266363859,0.010272418148815632,0.007355702109634876
1772537074056668200,6.145668212890625,0.005497689358890057,0.010262995027005672,0.012606378644704819
1772537074066736000,6.155736083984375,0.008862593211233616,0.009201458655297756,-0.0010074339807033539
1772537074076803300,6.16580322265625,0.012143144384026527,0.003869652980938554,-0.005067828111350536
1772537074086871300,6.175871337890625,0.009131375700235367,0.00037345499731600285,-0.0037884453777223825
1772537074096938500,6.1859384765625,0.008113362826406956,-0.006271302700042725,0.0007326973136514425
1772537074107006200,6.196006103515625,0.011137648485600948,-0.004242240451276302,-0.004337694961577654
1772537074117074200,6.20607421875,0.008806425146758556,0.0072743892669677734,0.0025384456384927034
1772537074127141000,6.21614111328125,0.0058492510579526424,0.009641939774155617,0.009378774091601372
1772537074137209300,6.226209228515625,0.0038705363404005766,0.0012168437242507935,0.015541927888989449
1772537074147277300,6.23627734375,-0.0020877537317574024,0.00027301954105496407,0.014030583202838898
1772537074157344300,6.24634423828125,-0.008475806564092636,0.00537734292447567,0.006330177187919617
1772537074167412200,6.256412109375,-0.011474791914224625,0.012690117582678795,0.0018946828786283731
1772537074177479200,6.266479248046875,-0.00666163070127368,0.01738077774643898,-0.011295506730675697
1772537074187547400,6.27654736328125,-0.002378468867391348,0.02063249796628952,-0.018570464104413986
1772537074197615400,6.286615478515625,-0.0022019504103809595,0.013830667361617088,-0.016887053847312927
1772537074207682300,6.296682373046875,0.004096159245818853,0.004091754090040922,-0.01016496866941452
1772537074217750300,6.306750244140625,0.008467997424304485,-0.00557289831340313,0.0014106936287134886
1772537074227818200,6.316818359375,0.010346325114369392,-0.006391820497810841,0.0162237286567688
1772537074237885200,6.32688525390625,0.010689499787986279,0.0047254906967282295,0.02133207768201828
1772537074247953400,6.336953369140625,0.011029585264623165,0.013560527935624123,0.017439069226384163
1772537074258020400,6.347020263671875,0.00849125161767006,0.013672497123479843,0.008793218061327934
1772537074268088300,6.35708837890625,0.004628336988389492,0.011810148134827614,-0.008943967521190643
1772537074278156300,6.36715625,0.0008088841568678617,0.005946556106209755,-0.022513292729854584
1772537074288223200,6.37722314453125,0.007322443649172783,0.0024527553468942642,-0.0229782797396183
1772537074298291500,6.38729150390625,0.011651708744466305,-0.0052962107583880424,-0.02342604473233223
1772537074308359400,6.397359375,0.016728226095438004,-0.0034690157044678926,-0.019976716488599777
1772537074318426400,6.40742626953125,0.015958502888679504,0.00021003256551921368,-0.006562766153365374
1772537074328494300,6.417494384765625,0.008975427597761154,-0.005952522158622742,0.005850760266184807
1772537074338561300,6.427561279296875,0.0012063327012583613,-0.006099131889641285,0.012214723974466324
1772537074348629200,6.437629150390625,-0.0011132806539535522,0.008690200746059418,0.012720458209514618
1772537074358697500,6.447697509765625,0.0024464756716042757,0.016581576317548752,0.004566380754113197
1772537074368764400,6.457764404296875,0.010620249435305595,0.019792817533016205,-0.005697974003851414
1772537074378832400,6.467832275390625,0.01522767823189497,0.016038237139582634,-0.007659521419554949
1772537074388899300,6.4778994140625,0.022746315225958824,0.004994107410311699,-0.00266449642367661
1772537074398967300,6.48796728515625,0.018688851967453957,-0.003943411633372307,0.0037782315630465746
1772537074409035500,6.498035400390625,0.022291310131549835,-0.008287560194730759,0.009304556995630264
1772537074419102500,6.5081025390625,0.025674307718873024,-0.00533460034057498,0.004523536190390587
1772537074429170400,6.51817041015625,0.022229773923754692,-0.004526064731180668,-0.006514733657240868
1772537074439238400,6.52823828125,0.014612427912652493,0.005330396816134453,-0.010449809953570366
1772537074449305300,6.538305419921875,0.0023198085837066174,0.01246899925172329,-0.013099655508995056
1772537074459373300,6.548373291015625,-0.0037514446303248405,0.015542971901595592,-0.016454951837658882
1772537074469440300,6.558440185546875,-0.0007873465656302869,0.020417623221874237,-0.01752527803182602
1772537074479508500,6.568508544921875,0.001635939348489046,0.017694156616926193,-0.010911688208580017
1772537074489576400,6.578576416015625,0.004913225304335356,0.009496413171291351,-0.003423145506531
1772537074499643400,6.588643310546875,0.008352652192115784,0.001432246994227171,-0.004878809209913015
1772537074509711400,6.59871142578125,0.014067529700696468,-0.008216651156544685,-0.005536876618862152
1772537074519779300,6.608779296875,0.016703419387340546,-0.005870196036994457,-0.006050459574908018
1772537074529846500,6.618846435546875,0.008887041360139847,-0.0005974036175757647,-0.0013949878048151731
1772537074539914500,6.62891455078125,-0.0008285953663289547,0.014106230810284615,0.007704360410571098
1772537074549981400,6.6389814453125,0.002603953005746007,0.022184131667017937,0.0068257832899689674
1772537074560049400,6.64904931640625,0.004834357183426619,0.02362094819545746,0.0021088270004838705
1772537074570117000,6.6591171875,0.0006848856573924422,0.014620527625083923,-0.002912296913564205
1772537074580184300,6.669184326171875,-0.007725439965724945,0.00937784742563963,-0.00031297467648983
1772537074590252300,6.679252197265625,-0.010512438602745533,0.008833231404423714,-0.0024293886963278055
1772537074600320300,6.6893203125,-0.0030287476256489754,0.012743928469717503,-0.013690568506717682
1772537074610387200,6.69938720703125,0.007512044161558151,0.013311181217432022,-0.014634393155574799
1772537074620455200,6.709455078125,0.010749154724180698,0.004271687939763069,-0.01299553643912077
1772537074630522400,6.7195224609375,0.011057548224925995,-0.008409487083554268,0.0008502381388098001
1772537074640590300,6.72959033203125,0.007931150496006012,-0.012293269857764244,0.009197755716741085
1772537074650658300,6.739658203125,0.00879694428294897,-0.014029916375875473,0.010907771065831184
1772537074660725200,6.749725341796875,0.008795839734375477,-0.010794250294566154,0.0004908714909106493
1772537074670793200,6.759793212890625,0.009089586324989796,-0.008249068632721901,-0.012526393868029118
1772537074680861200,6.769861083984375,0.0008302108617499471,-0.009734941646456718,-0.017711728811264038
1772537074690928400,6.779928466796875,-0.0017314838478341699,-0.008440379053354263,-0.016383342444896698
1772537074700996400,6.789996337890625,-0.008696479722857475,0.002549387514591217,-0.016578467562794685
1772537074711063300,6.800063232421875,-0.003264696104452014,0.017341915518045425,-0.017226148396730423
1772537074721131300,6.81013134765625,-0.003515495453029871,0.023930151015520096,-0.0172052513808012
1772537074731199200,6.82019921875,0.004231107421219349,0.019518092274665833,-0.012487195432186127
1772537074741266200,6.83026611328125,0.007892578840255737,0.00930069200694561,-0.010086162015795708
1772537074751334400,6.84033447265625,0.008912037126719952,-0.0033991236705332994,-0.005174227058887482
1772537074761402400,6.85040234375,0.01317858137190342,-0.013685638085007668,-0.001582549070008099
1772537074771469300,6.86046923828125,0.009165197610855103,-0.016974376514554024,-0.0024648543912917376
1772537074781536800,6.870536865234375,0.010662488639354706,-0.015372149646282196,-0.0018311933381482959
1772537074791603700,6.880603759765625,0.010456891730427742,-0.006522998679429293,-0.0038946105632930994
1772537074801671700,6.890671630859375,0.002430401276797056,0.00028141820803284645,-0.008753519505262375
1772537074811739600,6.90073974609375,-0.0007603320991620421,0.003219417529180646,-0.014024447649717331
1772537074821806600,6.910806640625,-0.0064981309697031975,-0.00046727736480534077,-0.014657007530331612
1772537074831874800,6.920874755859375,-0.017505507916212082,-0.004301696550101042,-0.008786868304014206
1772537074841942800,6.93094287109375,-0.018186694011092186,-0.0021915587130934,-0.014184856787323952
1772537074852009700,6.941009765625,-0.015787718817591667,-0.001413383288308978,-0.017269063740968704
1772537074862077700,6.95107763671875,-0.0037596942856907845,0.0009483564645051956,-0.01821979507803917
1772537074872144600,6.96114453125,0.0015501163434237242,0.0031529213301837444,-0.01587061956524849
1772537074882212600,6.971212646484375,0.0037173437885940075,-0.006166039500385523,-0.0047392044216394424
1772537074892280800,6.98128076171875,0.0013223629212006927,-0.014392543584108353,0.003178373444825411
1772537074902347800,6.99134765625,0.0008734611328691244,-0.011357284151017666,0.0117110013961792
1772537074912415700,7.001415771484375,0.0015251366421580315,-0.0066064707934856415,0.0030959416180849075
1772537074922482700,7.011482666015625,-0.00043066346552222967,0.003313126740977168,0.005423104856163263
1772537074932550700,7.021550537109375,-0.001838676747865975,0.014847010374069214,0.003114410676062107
1772537074942619000,7.031618896484375,0.0022802716121077538,0.019381364807486534,-0.002637352328747511
1772537074952685800,7.041685791015625,-0.00046038744039833546,0.014353316277265549,-0.007435569539666176
1772537074962753800,7.05175390625,0.0034262905828654766,0.0019691530615091324,-0.013832919299602509
1772537074972821800,7.06182177734375,0.010530006140470505,-0.011147714219987392,-0.01817706786096096
1772537074982888700,7.071888671875,0.010976976715028286,-0.01657833158969879,-0.012377758510410786
1772537074992956700,7.081956787109375,0.010736493393778801,-0.017217222601175308,-0.003178667277097702
1772537075003024000,7.09202392578125,0.013161788694560528,-0.01371794380247593,0.0030976245179772377
1772537075013091800,7.102091796875,0.015055828727781773,-0.01119406521320343,0.007253753952682018
1772537075023159800,7.112159912109375,0.008411074057221413,-0.010368343442678452,0.009180862456560135
1772537075033226800,7.122226806640625,0.001856501679867506,-0.007891603745520115,0.005008487030863762
1772537075043294700,7.132294677734375,-0.00415312685072422,0.002988809021189809,-0.003976922482252121
1772537075053363000,7.142363037109375,-0.007659178227186203,0.019744619727134705,-0.01070566475391388
1772537075063430000,7.152429931640625,-0.007953221909701824,0.025503672659397125,-0.011068567633628845
1772537075073497900,7.162497802734375,-0.0003283254336565733,0.026776395738124847,-0.003271365538239479
1772537075083564800,7.172564697265625,0.010356680490076542,0.01181751023977995,0.0006512447725981474
1772537075093632800,7.1826328125,0.015310426242649555,-0.009459814988076687,0.012777416035532951
1772537075103700700,7.19270068359375,0.014198432676494122,-0.018214868381619453,0.027754802256822586
1772537075113768000,7.202767822265625,0.015261032618582249,-0.016116563230752945,0.02861233986914158
1772537075123836000,7.2128359375,0.014210894703865051,-0.004214530345052481,0.01914149336516857
1772537075133903600,7.222903564453125,0.011249725706875324,0.006842648144811392,0.00003011769149452448
1772537075143970800,7.232970703125,0.0012917062267661095,0.014014029875397682,-0.0075455582700669765
1772537075154038800,7.243038818359375,-0.006378197576850653,0.01736668311059475,-0.009095517918467522
1772537075164105700,7.253105712890625,-0.013481668196618557,0.013843860477209091,-0.012821431271731853
1772537075174174000,7.263174072265625,-0.009947121143341064,0.010038202628493309,-0.011178260669112206
1772537075184241700,7.27324169921875,-0.006393058225512505,0.005528160836547613,-0.015193028375506401
1772537075194308900,7.283308837890625,0.0033445237204432487,-0.005277881398797035,-0.013215897604823112
1772537075204376600,7.29337646484375,0.011217460036277771,-0.014917583204805851,-0.005637563765048981
1772537075214443800,7.30344384765625,0.01584310457110405,-0.018770642578601837,0.0029889473225921392
1772537075224511700,7.31351171875,0.013084139674901962,-0.023806435987353325,0.010624407790601254
1772537075234579700,7.323579833984375,0.01625250279903412,-0.01890195719897747,0.01664315164089203
1772537075244647000,7.33364697265625,0.018214156851172447,-0.009801437146961689,0.01108015887439251
1772537075254714600,7.343714599609375,0.01206438522785902,-0.00649831909686327,-0.0012164543149992824
1772537075264782600,7.353782470703125,0.005696591455489397,-0.0058076586574316025,-0.010409408248960972
1772537075274849500,7.363849609375,0.001306636375375092,-0.0012115754652768373,-0.019285457208752632
1772537075284917800,7.373917724609375,0.0002278872998431325,0.006550882942974567,-0.018459297716617584
1772537075294984700,7.383984619140625,0.00040658540092408657,0.011961893178522587,-0.012763861566781998
1772537075305052700,7.394052734375,0.0007055065361782908,0.003000718541443348,-0.0036610187962651253
1772537075315120600,7.40412060546875,0.01157466508448124,-0.004314452409744263,0.006426236126571894
1772537075325187600,7.4141875,0.014828872866928577,-0.005174550227820873,0.009957598522305489
1772537075335255800,7.424255859375,0.016956739127635956,-0.0062725720927119255,0.010389829985797405
1772537075345323800,7.43432373046875,0.014734430238604546,-0.008037572726607323,0.01136485580354929
1772537075355390700,7.444390625,0.01735231839120388,-0.006850602105259895,0.003794287098571658
1772537075365458700,7.454458740234375,0.01872580125927925,-0.007743723690509796,-0.006233302876353264
1772537075375525600,7.464525634765625,0.005821455270051956,-0.007848918437957764,-0.006561671383678913
1772537075385593600,7.474593505859375,-0.0065991259180009365,-0.004541981965303421,-0.005246557295322418
1772537075395661800,7.484661865234375,-0.012799497693777084,0.00020510307513177395,0.0008097370155155659
1772537075405728800,7.494728759765625,-0.012264491058886051,0.008935216814279556,0.00007721805013716221
1772537075415796700,7.504796630859375,-0.0020424798130989075,0.017712196335196495,-0.0032964744605123997
1772537075425864700,7.51486474609375,-0.0021334229968488216,0.019184483215212822,-0.002247146563604474
1772537075435931600,7.524931640625,-0.00006973964627832174,0.011250392533838749,0.009056907147169113
1772537075445999900,7.534999755859375,0.00010882155038416386,0.0046864100731909275,0.01001693494617939
1772537075456066800,7.54506689453125,0.0007202832493931055,0.00014545395970344543,0.010151157155632973
1772537075466134800,7.555134765625,-0.0007353544933721423,0.00573648139834404,0.012976801954209805
1772537075476202800,7.56520263671875,-0.0005294921575114131,0.015180051326751709,0.010296863503754139
1772537075486269700,7.575269775390625,0.0009930216474458575,0.016127385199069977,-0.0004208782920613885
1772537075496337700,7.585337646484375,-0.0033042551949620247,0.011920388787984848,-0.005990879610180855
1772537075506406000,7.595406005859375,-0.007271566428244114,0.009879874996840954,-0.006523511838167906
1772537075516472800,7.605472900390625,-0.0030030515044927597,0.012919872999191284,-0.005709117278456688
1772537075526540800,7.615540771484375,-0.000038755941204726696,0.005145997274667025,0.000336663331836462
1772537075536607700,7.625607666015625,0.004091806709766388,0.005654128268361092,-0.00018212036229670048
1772537075546675700,7.63567578125,0.009495526552200317,0.001208330737426877,0.007089555263519287
1772537075556744000,7.645743896484375,0.01023322157561779,-0.0007485600654035807,0.008721007965505123
1772537075566811000,7.655810791015625,0.0060623036697506905,-0.0008261476177722216,0.00825651828199625
1772537075576878800,7.66587890625,0.00624020304530859,-0.002520716981962323,0.003140586195513606
1772537075586945800,7.67594580078125,0.005748437717556953,-0.0011136329267174006,-0.00407905038446188
1772537075597013800,7.686013671875,0.0015068212524056435,-0.0008174893446266651,-0.01051484514027834
1772537075607081700,7.696081787109375,0.0019641106482595205,-0.0040103597566485405,-0.006480809301137924
1772537075617148700,7.706148681640625,-0.0016340861329808831,-0.003660154063254595,0.00476572010666132
1772537075627217000,7.716216796875,-0.0024838573299348354,0.0016649517929181457,0.006237632129341364
1772537075637284900,7.726284912109375,0.0006890329532325268,0.008956420235335827,0.005948945414274931
1772537075647351800,7.736351806640625,0.0074900006875395775,0.007146564312279224,-0.005953988991677761
1772537075657419800,7.746419677734375,0.007186666131019592,-0.0009526417125016451,-0.008195571601390839
1772537075667486700,7.75648681640625,0.00395192438736558,-0.0032425362151116133,-0.011964875273406506
1772537075677555000,7.766554931640625,0.003877622075378895,-0.0024332015309482813,-0.011205608956515789
1772537075687623000,7.776622802734375,0.006767606362700462,-0.006434355862438679,-0.006537562236189842
1772537075697689900,7.78668994140625,0.010670469142496586,-0.010003791190683842,-0.0042640212923288345
1772537075707757800,7.7967578125,0.009569906629621983,-0.023564204573631287,0.001029202714562416
1772537075717825500,7.806825439453125,0.0016970696160569787,-0.02021128498017788,0.010615251027047634
1772537075727893000,7.81689306640625,-0.0017398177878931165,-0.0030066543258726597,0.0065454719588160515
1772537075737960700,7.826960693359375,-0.0002543065929785371,0.015746526420116425,-0.005191878415644169
1772537075748028000,7.83702783203125,0.003503195010125637,0.026778293773531914,-0.009734410792589188
1772537075758095600,7.847095703125,0.00142965791746974,0.022695135325193405,-0.009914439171552658
1772537075768163600,7.85716357421875,-0.004661585204303265,0.01299290545284748,-0.006729927845299244
1772537075778231000,7.86723095703125,-0.012506991624832153,-0.0015205235686153173,0.0017551698256283998
1772537075788299000,7.877299072265625,-0.005218041129410267,-0.011460642330348492,0.004257550463080406
1772537075798367000,7.887366943359375,-0.0008368748822249472,-0.016100667417049408,0.004307617899030447
1772537075808434200,7.89743408203125,0.007855676114559174,-0.007374328561127186,0.007624284364283085
1772537075818502100,7.907502197265625,0.0004893728764727712,0.004184323828667402,0.014312546700239182
1772537075828569000,7.917569091796875,-0.0040582953952252865,0.014032399281859398,0.017428649589419365
1772537075838637000,7.927636962890625,-0.003422598820179701,0.019014908000826836,0.013297555036842823
1772537075848705000,7.937705078125,-0.0020808293484151363,0.012430083006620407,0.011608172208070755
1772537075858772000,7.94777197265625,-0.008880944922566414,0.009785830974578857,0.007665096316486597
1772537075868840200,7.957840087890625,-0.005841759964823723,0.010816127061843872,0.0029757365118712187
1772537075878908200,7.967908203125,0.0011274662101641297,0.00508580356836319,-0.009456697851419449
1772537075888975000,7.97797509765625,0.0057975612580776215,0.0048533156514167786,-0.014063580892980099
1772537075899043000,7.98804296875,0.012465051375329494,0.0005448539741337299,-0.012021203525364399
1772537075909110000,7.998110107421875,0.017287982627749443,-0.005776186473667622,-0.006286948453634977
1772537075919178200,8.00817822265625,0.021269142627716064,-0.012731565162539482,0.009590018540620804
1772537075929246200,8.01824609375,0.02678927406668663,-0.012050436809659004,0.015888266265392303
1772537075939313200,8.028313232421874,0.033196572214365005,-0.004677741788327694,0.011557433754205704
1772537075949381000,8.038381103515626,0.026972711086273193,-0.00006384262815117836,0.0032368567772209644
1772537075959449000,8.048448974609375,0.015446019358932972,0.0034555247984826565,0.008294199593365192
1772537075969516000,8.05851611328125,0.004187863320112228,0.012154043652117252,0.009648427367210388
1772537075979584300,8.068584228515626,-0.0010726789478212595,0.020211970433592796,0.001834713388234377
1772537075989651200,8.078651123046875,-0.0008914460195228457,0.020208066329360008,-0.0069558084942400455
1772537075999719200,8.08871923828125,-0.003921324387192726,0.02039661817252636,-0.006144876126199961
1772537076009787100,8.098787109375,0.00011324381921440363,0.017692040652036667,-0.005981018766760826
1772537076019854000,8.10885400390625,0.01001620851457119,0.0060031600296497345,-0.0035969570744782686
1772537076029922300,8.11892236328125,0.01624177023768425,-0.005307074170559645,0.00020085321739315987
1772537076039990300,8.128990234375,0.015424714423716068,-0.006891388911753893,0.016628295183181763
1772537076050057200,8.13905712890625,0.016695739701390266,-0.007864157669246197,0.020715098828077316
1772537076060125200,8.149125244140626,0.01738736219704151,-0.007442845962941647,0.012161824852228165
1772537076070192000,8.159192138671875,0.011624224483966827,-0.00936461053788662,0.005892418324947357
1772537076080260000,8.169260009765624,0.005416130181401968,-0.007494006305932999,-0.004944249987602234
1772537076090328300,8.179328369140626,0.004976121708750725,-0.0069864364340901375,-0.01866145431995392
1772537076100395300,8.189395263671875,0.002866897499188781,0.0003990426193922758,-0.0219736285507679
1772537076110463200,8.199463134765624,-0.0008498455281369388,0.003607544582337141,-0.01765020377933979
1772537076120531200,8.20953125,-0.009748797863721848,0.009158104658126831,-0.011633058078587055
1772537076130598100,8.21959814453125,-0.00982642825692892,0.006122318096458912,-0.005884097423404455
1772537076140666400,8.229666259765626,-0.008513756096363068,0.003836261108517647,-0.00989588350057602
1772537076150733300,8.2397333984375,-0.008247900754213333,0.0008662848267704248,-0.005798435769975185
1772537076160801300,8.24980126953125,-0.007415130268782377,-0.002645093249157071,0.005846768617630005
1772537076170869000,8.259868896484376,-0.00811249203979969,-0.009323632344603539,0.018012549728155136
1772537076180936200,8.269936279296875,-0.0012540530879050493,-0.007246099878102541,0.02163791097700596
1772537076191004200,8.280004150390624,-0.002279224107041955,-0.007053157314658165,0.025038041174411774
1772537076201072000,8.290072021484375,-0.006171167828142643,-0.005947945639491081,0.012960869818925858
1772537076211139300,8.300139404296875,-0.007852233946323395,-0.0035913356114178896,-0.0030390743631869555
1772537076221207000,8.31020703125,-0.010438697412610054,0.000054798321798443794,-0.01623370684683323
1772537076231274200,8.320274169921875,-0.010523459874093533,-0.0015764094423502684,-0.025955522432923317
1772537076241342000,8.330342041015625,-0.008578021079301834,-0.005489924922585487,-0.028652505949139595
1772537076251410200,8.34041015625,-0.005326553247869015,-0.014086920768022537,-0.017458589747548103
1772537076261477000,8.35047705078125,0.00022107758559286594,-0.023947808891534805,-0.0016394131816923618
1772537076271545000,8.360545166015624,0.005606285762041807,-0.026705743744969368,0.012928524985909462
1772537076281613000,8.370613037109376,0.009514741599559784,-0.028551580384373665,0.01469100546091795
1772537076291680000,8.380679931640625,0.008089114911854267,-0.024716436862945557,0.014914494007825851
1772537076301748000,8.390748046875,0.0074110738933086395,-0.021085483953356743,0.005812342278659344
1772537076311815000,8.40081494140625,-0.0019522132351994514,-0.0071495575830340385,0.0031275369692593813
1772537076321883100,8.410883056640625,-0.007879344746470451,0.0017509934259578586,0.0038977230433374643
1772537076331951000,8.420951171875,-0.003683032002300024,0.00999930128455162,0.012111262418329716
1772537076342018000,8.43101806640625,-0.0004877711762674153,0.012472579255700111,0.02239852212369442
1772537076352086000,8.4410859375,0.004562030080705881,0.00885221641510725,0.021460846066474915
1772537076362153000,8.451153076171876,0.013331552967429161,-0.0028595675248652697,0.019543370231986046
1772537076372221200,8.46122119140625,0.01081883069127798,-0.009690609760582447,0.017410263419151306
1772537076382289200,8.4712890625,0.005166803486645222,-0.01851845532655716,0.016794806346297264
1772537076392356000,8.481356201171875,0.00112904014531523,-0.015467934310436249,0.016843734309077263
1772537076402424000,8.491424072265625,-0.002660637954249978,-0.014852477237582207,0.012770429253578186
1772537076412492000,8.501491943359374,-0.006850916426628828,-0.011270328424870968,0.010804121382534504
1772537076422559000,8.51155908203125,-0.015039870515465736,-0.0029620646964758635,0.007071435451507568
1772537076432627200,8.521627197265625,-0.019373716786503792,-0.0009557013399899006,-0.0008818069472908974
1772537076442694100,8.531694091796876,-0.01917930506169796,0.0006861377041786909,-0.005379353649914265
1772537076452762000,8.54176220703125,-0.022322766482830048,0.012494643218815327,-0.0035526894498616457
1772537076462830000,8.551830078125,-0.021269220858812332,0.015551951713860035,-0.002047737129032612
1772537076472897000,8.56189697265625,-0.013868185691535473,0.01178007386624813,-0.0002643702318891883
1772537076482965200,8.57196533203125,-0.0006485202466137707,0.0030395796056836843,0.0024259549099951982
1772537076493033200,8.582033203125,0.014348112046718597,-0.0021798943635076284,0.00497579388320446
1772537076503100200,8.59210009765625,0.02260204777121544,-0.0184083990752697,0.009361221455037594
1772537076513168100,8.602168212890625,0.03614046052098274,-0.03312959149479866,-0.0041097616776824
1772537076523235000,8.612235107421874,0.037960197776556015,-0.03497010096907616,-0.008789468556642532
1772537076533303000,8.622302978515625,0.018641624599695206,-0.018205806612968445,0.006215011700987816
1772537076543371300,8.632371337890625,-0.002323578577488661,-0.002863069996237755,0.010703769512474537
1772537076553438200,8.642438232421876,-0.0022829824592918158,0.009253343567252159,0.004961085505783558
1772537076563506200,8.652506103515625,-0.002337843645364046,0.014342645183205605,-0.0055900923907756805
1772537076573574100,8.66257421875,-0.0038014366291463375,0.014688778668642044,-0.009807008318603039
1772537076583641000,8.67264111328125,-0.0034895804710686207,0.005765591282397509,-0.01504544634371996
1772537076593709300,8.682709228515625,-0.002525280462577939,0.0016288692131638527,-0.012870357371866703
1772537076603776300,8.6927763671875,-0.0041207801550626755,0.006020155735313892,-0.014700748026371002
1772537076613844200,8.70284423828125,-0.001638940186239779,0.0075221252627670765,-0.01196408923715353
1772537076623912200,8.712912109375,0.003099355846643448,0.007624923251569271,-0.007944047451019287
1772537076633979100,8.722979248046874,0.013993524014949799,0.007062469609081745,-0.01147714164108038
1772537076644047000,8.733047119140625,0.01623617298901081,0.006227568723261356,-0.009296812117099762
1772537076654115300,8.743115234375,0.016703255474567413,0.0031832349486649036,-0.0032844117376953363
1772537076664182300,8.753182373046876,0.01698235422372818,-0.007653700187802315,0.002862696535885334
1772537076674250200,8.763250244140625,0.014501655474305153,-0.02060883864760399,0.006028881296515465
1772537076684317200,8.773317138671874,0.005135051906108856,-0.01610410213470459,0.00783663522452116
1772537076694385200,8.78338525390625,0.004244877956807613,0.001133078127168119,-0.00262859626673162
1772537076704453000,8.793453125,0.008989299647510052,0.01991555280983448,-0.016189146786928177
1772537076714520300,8.803520263671874,0.005395151674747467,0.021035706624388695,-0.017659680917859077
1772537076724588000,8.813588134765626,-0.00039695738814771175,0.02955968677997589,-0.007440067827701569
1772537076734656000,8.823656005859375,-0.0006487715872935951,0.023233482614159584,-0.004843292757868767
1772537076744723200,8.83372314453125,0.011679800227284431,0.020639298483729362,-0.012315057218074799
1772537076754791000,8.843791015625,0.014292985200881958,0.010003801435232162,-0.008287280797958374
1772537076764859100,8.853859130859375,0.01153315044939518,-0.0008355304598808289,-0.0012533399276435375
1772537076774926000,8.863926025390626,0.015122679993510246,0.003102089511230588,0.005665212403982878
1772537076784994000,8.873994140625,0.0235582422465086,0.012037527747452259,-0.0038015262689441442
1772537076795061000,8.88406103515625,0.03029693104326725,0.01719617284834385,-0.01097420696169138
1772537076805129200,8.894129150390626,0.017619218677282333,0.012871465645730495,0.003265980863943696
1772537076815197200,8.904197265625,0.0001914255553856492,0.011376524344086647,0.018193934112787247
1772537076825264000,8.91426416015625,-0.0017782483482733369,0.008061687462031841,0.01333766058087349
1772537076835332000,8.92433203125,-0.0017235323321074247,0.011470937170088291,0.0014361864887177944
1772537076845399000,8.93439892578125,-0.003652726300060749,0.020301979035139084,-0.008539749309420586
1772537076855467300,8.94446728515625,-0.008097709156572819,0.0191258043050766,-0.013795986771583557
1772537076865535200,8.95453515625,-0.010348613373935223,0.010777858085930347,-0.013064149767160416
1772537076875602200,8.964602294921875,-0.008086120709776878,-0.0016624766867607832,-0.013785025104880333
1772537076885670100,8.974670166015626,0.0019867531955242157,-0.01119259838014841,-0.012156503275036812
1772537076895738000,8.984738037109375,0.01080021820962429,-0.015218498185276985,-0.012878485023975372
1772537076905805000,8.99480517578125,0.014386431314051151,-0.016131164506077766,-0.008127938956022263
1772537076915873300,9.004873291015626,0.00835736095905304,-0.01481442991644144,0.004684358835220337
1772537076925941200,9.014941162109375,-0.001337343594059348,-0.015789944678544998,0.022170407697558403
1772537076936008200,9.02500830078125,-0.005535573698580265,-0.010192773304879665,0.016381878405809402
1772537076946076200,9.035076171875,-0.005279377102851868,-0.00910407304763794,0.00818307138979435
1772537076956143000,9.04514306640625,-0.009392179548740387,-0.0026614153757691383,-0.00488370843231678
1772537076966211300,9.05521142578125,-0.01663944125175476,0.0008787247352302074,-0.007033678703010082
1772537076976279300,9.065279296875,-0.012158632278442383,0.0014555122470483184,-0.005341242998838425
1772537076986346200,9.07534619140625,-0.009877102449536324,0.0035026841796934605,-0.008908281102776527
1772537076996414200,9.085414306640626,-0.00496981106698513,0.008045941591262817,0.0006376625970005989
1772537077006481200,9.095481201171875,-0.002561247907578945,0.008495748974382877,0.007499297149479389
1772537077016549000,9.105549072265624,0.0017299405299127102,0.0061154901050031185,0.014361413195729256
1772537077026617300,9.115617431640626,-0.0026605469174683094,-0.006537188310176134,0.015320152044296265
1772537077036684300,9.125684326171875,-0.004881574772298336,-0.014150645583868027,0.022539209574460983
1772537077046752300,9.135752197265624,-0.005121525842696428,-0.010379876010119915,0.020549295470118523
1772537077056820200,9.1458203125,-0.008674594573676586,0.0020684078335762024,0.014852720312774181
1772537077066887200,9.15588720703125,-0.009454634971916676,0.01427260972559452,0.010487533174455166
1772537077076955400,9.165955322265624,-0.01891305111348629,0.023798048496246338,0.010410167276859283
1772537077087022300,9.176022216796875,-0.02240392193198204,0.03102400340139866,0.009554492309689522
1772537077097090300,9.18609033203125,-0.02147117257118225,0.02756168134510517,0.0026889864820986986
1772537077107158300,9.196158203125,-0.007491708733141422,0.01636814884841442,-0.004390494432300329
1772537077117225200,9.20622509765625,0.004124965984374285,0.00023597641848027706,-0.008105026558041573
1772537077127293200,9.216293212890625,0.01569293811917305,-0.01704074814915657,0.0018567941151559353
1772537077137361400,9.226361328125,0.018625762313604355,-0.027123838663101196,0.012844041921198368
1772537077147428400,9.236428466796875,0.018035871908068657,-0.027216250076889992,0.01957305148243904
1772537077157496300,9.246496337890624,0.013811523094773293,-0.014446074143052101,0.015650756657123566
1772537077167563300,9.256563232421875,0.0034137433394789696,0.003904437879100442,0.013154841028153896
1772537077177631200,9.26663134765625,-0.000022607389837503433,0.018081625923514366,0.004917520098388195
1772537077187699200,9.27669921875,-0.0026143956929445267,0.020838797092437744,-0.005096764769405127
1772537077197766400,9.286766357421875,-0.0013592873001471162,0.018443336710333824,-0.005570271518081427
1772537077207834400,9.29683447265625,-0.00031905656214803457,0.012742841616272926,0.004095671698451042
1772537077217902000,9.306902099609376,0.0025502853095531464,-0.0005130155477672815,0.014430399984121323
1772537077227969300,9.31696923828125,0.006183103192597628,-0.009235667064785957,0.02553817816078663
1772537077238037000,9.327037109375,0.004919456783682108,-0.009106243029236794,0.030149590224027634
1772537077248103200,9.337103271484375,0.009587711654603481,0.00044651515781879425,0.028824668377637863
1772537077258171400,9.34717138671875,0.009318108670413494,0.009960289113223553,0.017540842294692993
1772537077268238300,9.35723828125,0.006358271464705467,0.01816708594560623,0.0061422474682331085
1772537077278306300,9.367306396484375,0.005322348326444626,0.01113379281014204,-0.0036853712517768145
1772537077288374300,9.377374267578125,0.0064997319132089615,-0.006114436313509941,-0.011191757395863533
1772537077298441200,9.387441162109376,0.0023672888055443764,-0.015137306414544582,0.0017223800532519817
1772537077308509200,9.39750927734375,-0.004349736496806145,-0.015114669688045979,0.01196063682436943
1772537077318576000,9.407576171875,-0.005059087183326483,-0.0029093066696077585,0.021764423698186874
1772537077328644400,9.417644287109376,-0.0015628893161192536,0.007112435065209866,0.0153270298615098
1772537077338712300,9.42771240234375,-0.0008549236226826906,0.015215776860713959,0.000947869848459959
1772537077348779300,9.437779296875,-0.001734033110551536,0.015799010172486305,-0.008393966592848301
1772537077358847200,9.44784716796875,0.0035510032903403044,0.01476726122200489,-0.009020907804369926
1772537077368915200,9.457915283203125,0.00524690467864275,0.0040078237652778625,-0.004543069284409285
1772537077378982400,9.467982421875,0.004722123965620995,-0.0006019310094416142,0.011826807633042336
1772537077389050400,9.47805029296875,0.006844130344688892,0.002689203480258584,0.023067211732268333
1772537077399118000,9.4881181640625,0.010700676590204239,0.01323345024138689,0.027469299733638763
1772537077409185300,9.498185302734376,0.007261470425873995,0.02361099049448967,0.022074801847338676
1772537077419253000,9.5082529296875,0.0018772066105157137,0.02974700927734375,0.01719817891716957
1772537077429320200,9.5183203125,0.00016319600399583578,0.026030302047729492,0.0026400084607303143
1772537077439388200,9.52838818359375,-0.0032273815013468266,0.023729007691144943,0.0009770046453922987
1772537077449456000,9.5384560546875,-0.005244193132966757,0.02491171844303608,-0.001107451505959034
1772537077459523300,9.5485234375,-0.0005228093359619379,0.02041768468916416,-0.004308300092816353
1772537077469591000,9.558591064453125,0.002402140526100993,0.0013936589239165187,0.003037763526663184
1772537077479658200,9.568658203125,-0.001126578077673912,-0.008426515385508537,0.012510445900261402
1772537077489726200,9.578726318359376,0.001985592069104314,-0.009147965349256992,0.0032373189460486174
1772537077499794200,9.588794189453125,0.0129220737144351,-0.007477392442524433,-0.007414054125547409
1772537077509861000,9.598861083984374,0.013886671513319016,-0.0030184618663042784,-0.012969940900802612
1772537077519929000,9.60892919921875,-0.00030670652631670237,-0.00494932197034359,-0.000974094495177269
1772537077529997000,9.6189970703125,-0.010448023676872253,0.001387137221172452,0.009040988981723785
1772537077540064000,9.62906396484375,-0.010529007762670517,-0.0006219448987394571,0.009164946153759956
1772537077550132200,9.63913232421875,-0.012226240709424019,0.002921124454587698,0.0005826433189213276
1772537077560199200,9.64919921875,-0.00898770708590746,0.010268163867294788,-0.007741375360637903
1772537077570267100,9.65926708984375,-0.007241472601890564,0.016099954023957253,-0.009186939336359501
1772537077580335000,9.669335205078125,2.618180587887764e-7,0.015184832736849785,0.001686351839452982
1772537077590402000,9.679402099609375,0.007443264126777649,0.0061250245198607445,0.006033962592482567
1772537077600470300,9.68947021484375,0.017873864620923996,-0.004296083003282547,0.008563302457332611
1772537077610538200,9.699538330078125,0.019625693559646606,-0.012206469662487507,0.015868620947003365
1772537077620605200,9.709605224609374,0.011046615429222584,-0.013302059844136238,0.024700375273823738
1772537077630673200,9.719673095703126,-0.00004331988748162985,-0.008861771784722805,0.02525990642607212
1772537077640740000,9.729739990234375,-0.0062893470749258995,-0.0014399040956050158,0.010851780883967876
1772537077650808300,9.739808349609374,-0.01234217919409275,0.006236923858523369,-0.00492478534579277
1772537077660876300,9.749876220703126,-0.01883494108915329,0.011952327564358711,-0.021006403490900993
1772537077670944300,9.7599443359375,-0.019406722858548164,0.009125381708145142,-0.02249670773744583
1772537077681011200,9.77001123046875,-0.015044381842017174,0.0035005011595785618,-0.016851717606186867
1772537077691079200,9.7800791015625,-0.004330218303948641,-0.008877072483301163,-0.011144297197461128
1772537077701147400,9.7901474609375,0.004493746906518936,-0.021360335871577263,-0.004166880622506142
1772537077711214300,9.80021435546875,0.007818170823156834,-0.03043718822300434,0.00023479200899600983
1772537077721282300,9.8102822265625,0.009180308319628239,-0.026979714632034302,0.004382804036140442
1772537077731350300,9.820350341796875,0.009781650267541409,-0.015037568286061287,-0.0013603027909994125
1772537077741417200,9.830417236328126,0.010280544869601727,-0.004928146488964558,-0.011946656741201878
1772537077751485200,9.840485107421875,0.006862111389636993,0.004498112015426159,-0.011432134546339512
1772537077761552400,9.850552490234374,0.0029200618155300617,-0.0018238145858049393,-0.0022804399486631155
1772537077771620400,9.860620361328126,-0.0025892192497849464,-0.013610699214041233,0.005721826571971178
1772537077781687800,9.870687744140625,0.003214774653315544,-0.016106588765978813,0.008642999455332756
1772537077791754800,9.880754638671876,0.0042046718299388885,-0.004845944233238697,0.00210760161280632
1772537077801822700,9.89082275390625,0.002466273959726095,0.007495773024857044,-0.0018659408669918776
1772537077811890700,9.900890625,0.0032766740769147873,0.024199385195970535,-0.0007253090152516961
1772537077821958000,9.9109580078125,0.0022621313109993935,0.03189259395003319,0.004701340105384588
1772537077832025900,9.92102587890625,0.009361852891743183,0.0311887226998806,0.006001495290547609
1772537077842092800,9.9310927734375,0.0111411577090621,0.015347161330282688,0.0012411228381097317
1772537077852160800,9.941160888671876,0.013145985081791878,0.0005604920443147421,0.00398684199899435
1772537077862228700,9.951228759765625,0.010717121884226799,-0.010504212230443954,0.00031451229006052017
1772537077872295700,9.961295654296874,0.009611111134290695,-0.017444942146539688,-0.003621906042098999
1772537077882364000,9.971364013671876,0.005066182930022478,-0.01411959808319807,-0.0050468649715185165
1772537077892431600,9.981431640625,0.0009545284556224942,-0.0024786542635411024,-0.004827952943742275
1772537077902498800,9.991498779296874,0.003053143620491028,0.004557138308882713,-0.0007442284841090441
1772537077912566800,10.00156689453125,-0.000861170410644263,0.006776350550353527,0.001085895812138915
1772537077922633700,10.0116337890625,-0.006099904887378216,0.01062351930886507,0.012411339208483696
1772537077932702000,10.021701904296876,-0.0172249935567379,0.010459202341735363,0.023354269564151764
1772537077942769700,10.031769775390625,-0.02398388460278511,0.007971514947712421,0.028507953509688377
1772537077952836900,10.0418369140625,-0.0062427036464214325,-0.06691550463438034,0.14121346175670624
1772537077962904600,10.051904541015626,0.01660197041928768,-0.14620977640151978,0.18154218792915344
1772537077972972500,10.06197265625,0.057469774037599564,-0.12084982544183731,0.1560213714838028
1772537077983039700,10.072039794921874,0.06460615247488022,-0.050247661769390106,0.08307605981826782
1772537077993107700,10.082107666015625,0.04995797201991081,-0.018002642318606377,0.020753294229507446
1772537078003175700,10.09217578125,0.01448540948331356,-0.0005917216185480356,-0.02028980851173401
1772537078013242600,10.10224267578125,-0.017082635313272476,0.015588046982884407,-0.06426125764846802
1772537078023310600,10.112310546875,-0.035015594214200974,0.05112869665026665,-0.10896739363670349
1772537078033377500,10.12237744140625,-0.045843739062547684,0.08955465257167816,-0.1560688614845276
1772537078043445800,10.13244580078125,-0.05258147791028023,0.10308010876178741,-0.17177529633045197
1772537078053513700,10.142513671875,-0.048174213618040085,0.08615918457508087,-0.12633803486824036
1772537078063580700,10.15258056640625,-0.029686499387025833,0.04259781166911125,-0.05593365803360939
1772537078073648600,10.162648681640626,-0.009260853752493858,0.007086153142154217,0.007542251143604517
