time,seconds_elapsed,z,y,x
1772698684930303200,0.07330322265625,0.0741612147539854,-0.08078209419846534,-0.08099149916544555
1772698684940260000,0.083260009765625,0.09467910212576389,-0.018161679634451866,0.007288038116320967
1772698684950216200,0.09321630859375,0.11071136851608752,-0.007960603615641593,0.05578830352164805
1772698684960173000,0.103173095703125,0.127870629642345,-0.015454174241423606,-0.011946421848796308
1772698684970130200,0.113130126953125,0.1614549558687955,0.02431318800151348,0.008826938121393322
1772698684980087300,0.12308740234375,0.17477964380085467,0.0739653999209404,0.004632555171474814
1772698684990044200,0.133044189453125,0.2145370691716671,0.09721125095188617,-0.09596413696762174
1772698685000001300,0.143001220703125,0.264355285307765,0.08183364907801151,-0.1598758699838072
1772698685009958100,0.152958251953125,0.2676595875501633,0.03329670492410659,-0.22150519115123896
1772698685019915300,0.162915283203125,0.24912556747198103,-0.011250292810797691,-0.243281663749367
1772698685029872000,0.1728720703125,0.2264782303234562,-0.019033201771974564,-0.1656182495607063
1772698685039829200,0.182829345703125,0.1247766822149977,0.02807809349298477,-0.1294138039637357
1772698685049786400,0.192786376953125,0.10625380458533763,0.1576250953823328,-0.2026636029612273
1772698685059743200,0.2027431640625,0.11305299973879009,0.3444844685554504,-0.2258461064323783
1772698685069700400,0.212700439453125,0.12525427313148974,0.47076165499389167,-0.2708955372640863
1772698685079657200,0.2226572265625,0.09529464020822197,0.48752048209309573,-0.24664529496356843
1772698685089614000,0.232614013671875,0.04914024380929768,0.5026262812882661,-0.16625782610587775
1772698685099571200,0.2425712890625,0.028153460284136234,0.5182984821945429,-0.0971352265736088
1772698685109528300,0.2525283203125,0.04305350777413696,0.4893886140525341,-0.05509177262485027
1772698685119485200,0.262485107421875,0.03585165010392666,0.292410582447052,0.030328137442097065
1772698685129442300,0.2724423828125,-0.02140692689968273,-0.01327683020234108,0.08209266534037887
1772698685139398400,0.2823984375,-0.03673895433247089,-0.17000643804967402,0.10074563562311231
1772698685149355300,0.292355224609375,-0.04018936878098175,-0.16964871065318585,0.04917677642740309
1772698685159312100,0.30231201171875,-0.02505903793275356,-0.025277649119496343,-0.06251198575347662
1772698685169269200,0.312269287109375,0.012004344314802438,0.16082593725025654,-0.15860595964584498
1772698685179226000,0.32222607421875,-0.02626547284675762,0.24363047718703745,-0.09263086435906588
1772698685189183200,0.332183349609375,-0.0894260221694596,0.20524141755998132,-0.029400428137928244
1772698685199140400,0.342140380859375,-0.13027940781712533,0.0723965431690216,0.0507045339839533
1772698685209097200,0.35209716796875,-0.1687023879800923,-0.04403437203764915,0.1374615013409406
1772698685219054300,0.362054443359375,-0.20588090277360752,-0.07906827601790428,0.23394030983243136
1772698685229011200,0.37201123046875,-0.2602536952078342,-0.08037935861647129,0.2596236536759883
1772698685238968000,0.381968017578125,-0.2521159814596176,-0.01962882957756519,0.22105156563222406
1772698685248925200,0.39192529296875,-0.1900485428695567,0.018935002094507217,0.21747030961196867
1772698685258882300,0.40188232421875,-0.1756944205582142,-0.04612053066194057,0.15534487549066542
1772698685268839200,0.411839111328125,-0.13832066632038914,-0.16002455773949623,0.0949607686113566
1772698685278796300,0.42179638671875,-0.10341417897893115,-0.21384557977616786,0.03386858652792871
1772698685288753200,0.431753173828125,-0.11554185741245745,-0.18849311185479162,0.0286284939173609
1772698685298710000,0.4417099609375,-0.11559329533874987,-0.12631693392693996,0.1670729784136638
1772698685308667100,0.451667236328125,-0.0638502440533368,-0.07273556586503982,0.25463998351190237
1772698685318624300,0.461624267578125,0.01769114864640869,-0.08472937051951884,0.1654717172294855
1772698685328581400,0.471581298828125,0.051065590415266336,-0.11344400835037231,0.09901819077599792
1772698685338537200,0.481537109375,0.07946282829344273,-0.1383358730226755,0.13625501162800938
1772698685348494300,0.491494384765625,0.1374953305453062,-0.12009411388933658,0.09768920719455927
1772698685358451200,0.501451171875,0.28754209962785243,-0.09482932425141334,0.09104019763413816
1772698685368408300,0.511408203125,0.563073443466425,-0.26395196520388126,-0.08249697182495147
1772698685378365200,0.521365234375,0.820624893978238,-0.5181295553684234,-0.231482651014626
1772698685388322000,0.531322021484375,1.0181114596277474,-0.4611643900871277,-0.22859840081520377
1772698685398279200,0.541279052734375,1.047577792608738,-0.3664771046549082,-0.21991854301430283
1772698685408236300,0.551236328125,0.8372025192916392,-0.24788813463151455,-0.1635882415704429
1772698685418193400,0.561193359375,0.5475251612007618,0.11340016920864582,0.0017214169651269913
1772698685428150300,0.571150390625,0.3478454694211483,0.4100988042384386,-0.05328165446296334
1772698685438107100,0.581107177734375,0.2997206497320905,0.5003589208781719,-0.2771086030926555
1772698685448064300,0.591064208984375,0.16082067655324936,0.2677349908739328,-0.24095628954172132
1772698685458021000,0.601021240234375,0.000005808686278760433,-0.21597674658596513,-0.06322108387090265
1772698685467978200,0.610978271484375,-0.15777413019789382,-0.7778098346024751,0.13144713642224667
1772698685477935400,0.620935302734375,-0.15588729353798553,-0.9086825321376323,0.33587548403367395
1772698685487892200,0.630892333984375,0.043413628057111055,-0.2907633997619152,0.046186581635475156
1772698685497849300,0.640849365234375,0.11140168886780738,0.3452484386652708,-0.2745736777875572
1772698685507806200,0.65080615234375,-0.027321713034575805,0.9018120618462562,-0.41394525053352116
1772698685517763000,0.66076318359375,-0.214514857339859,1.3384580967485904,-0.39552272800579663
1772698685527720200,0.67072021484375,-0.18702829999923706,1.4758078813433646,-0.24783311650864778
1772698685537676300,0.68067626953125,-0.17768939376771448,1.2523966008424758,-0.35184060347191987
1772698685547633200,0.690633056640625,0.07016250050663948,1.1552221747696398,-0.15988635484520344
1772698685557590300,0.70059033203125,0.03740297119915485,1.148457502940297,0.32851533052921295
1772698685567547400,0.71054736328125,-0.11191899074018001,1.0504413653463125,0.44731534948740154
1772698685577504300,0.720504150390625,-0.16347791306376455,1.1085136150866746,0.4029108289631083
1772698685587461000,0.730461181640625,-0.19810674337446688,1.2337176193356514,0.47742717729769646
1772698685597418200,0.740418212890625,-0.27946634519994257,1.1865472873598337,0.4331548317857086
1772698685607375000,0.750375,-0.27009061408936974,1.2908271615236997,0.24098657508213073
1772698685617332200,0.760332275390625,-0.29061317763626576,1.548982423147559,0.095185480745323
1772698685627289300,0.770289306640625,-0.240300455981493,1.5230173762857913,0.27817615925893185
1772698685637246200,0.78024609375,-1.1172463721185921,1.2736463096201418,0.2799695089491084
1772698685647203300,0.790203369140625,-1.6864572954267263,0.9386644134253262,-0.12548596299551426
1772698685657160200,0.80016015625,-0.39650107151865954,0.2448620648086071,-0.4545199471039697
1772698685667117000,0.810116943359375,0.7242226213216781,-0.16793606151640414,-0.7116758589595555
1772698685677074200,0.82007421875,1.0436427912473678,-0.2218915235877037,-0.8552860191233456
1772698685687031300,0.83003125,0.8328875787019729,-0.12417758381068705,-0.6635415042571723
1772698685696988400,0.839988525390625,0.562547373765707,0.2251893960893154,-0.3053746386394836
1772698685706945300,0.8499453125,0.6215864227116108,0.2544862177222967,0.11506030270690097
1772698685716902100,0.859902099609375,0.942283188444376,-0.02591886963248253,0.6279946823187172
1772698685726859300,0.869859375,1.0717921964108943,-0.5269231026768684,1.029953288590908
1772698685736815000,0.879815185546875,0.7990355779826641,-0.8517723119139671,1.2046784257255494
1772698685746772200,0.889772216796875,0.4666051198363304,-0.767933168232441,1.0745334579430519
1772698685756729300,0.899729248046875,0.15566285539865493,-0.6564566605627536,0.7835089960921555
1772698685766686500,0.9096865234375,0.019179368777014313,-0.674639967507124,0.4383749045215547
1772698685776643300,0.919643310546875,0.13442721167895944,-0.666034636247158,0.11574169996664858
1772698685786600400,0.929600341796875,0.35359015055298804,-0.6149824944019318,0.04575038217529654
1772698685796557300,0.939557373046875,0.48294597725179045,-0.6120137077242136,-0.013163414689432829
1772698685806514200,0.94951416015625,0.677616352969408,-0.443731609249115,-0.07187478431724012
1772698685816471300,0.95947119140625,0.9363046985566615,-0.3113052525311708,-0.23537870860509574
1772698685826428400,0.969428466796875,1.1560627172470093,-0.09593114801347255,-0.41136977402232583
1772698685836385300,0.97938525390625,1.2001251463353633,0.27802491421997544,-0.3905908245615661
1772698685846342400,0.98934228515625,0.9764882403850554,0.5530009622633457,-0.2517667113642208
1772698685856299500,0.999299560546875,0.8151847487509251,0.8520604812055825,-0.11049816415682434
1772698685866256100,1.009256103515625,0.6784498811841011,1.2492413516819476,0.0360312398879556
1772698685876213200,1.019213134765625,0.5259457455446943,1.4232663777232168,0.17690744960978627
1772698685886170400,1.02917041015625,0.2974432793846354,1.4395225159972904,0.28812636578921225
1772698685896127500,1.03912744140625,-0.3236638353774324,1.4279256017059088,0.16978315068781374
1772698685906084400,1.04908447265625,-0.9430395597696304,1.5212363380879164,-0.07543944539572112
1772698685916041500,1.05904150390625,-1.3564029187619686,1.4889374120295047,-0.15450579431802033
1772698685925998300,1.068998291015625,-1.472140591007471,1.7396563861727714,-0.20691744274711235
1772698685935954400,1.078954345703125,-1.2909843979120255,2.299486902195215,-0.2977123238506727
1772698685945911300,1.088911376953125,-0.8261877888023853,2.7003239570915696,-0.2512439295991324
1772698685955868200,1.0988681640625,-0.5527788439452648,2.9943221009910106,-0.11755232045203447
1772698685965825300,1.1088251953125,-0.6395172161996364,3.2792093021959063,-0.06939361219310666
1772698685975782400,1.118782470703125,-0.9303437443256377,3.5508588361650704,-0.11255665845605545
1772698685985739500,1.128739501953125,-0.990420904147625,3.8113095152497287,-0.17873782510841263
1772698685995696400,1.1386962890625,-0.6535328820705414,4.015454954266548,-0.32044542132019993
1772698686005653500,1.148653564453125,-0.40817050305698066,4.149664687269926,-0.46080830665845424
1772698686015610400,1.1586103515625,-0.42168117854781445,4.160409368646144,-0.4189750613942742
1772698686025567200,1.168567138671875,-0.6265326469421386,3.851505332037806,-0.2244121098401956
1772698686035524400,1.1785244140625,-0.804915868192911,3.3003234018951653,0.10305782155562192
1772698686045481500,1.1884814453125,-1.0606371806681156,2.4834686741054055,0.2763046297660097
1772698686055438300,1.198438232421875,-1.4682055896461008,1.4289777411073445,0.4192338584609329
1772698686065395500,1.2083955078125,-1.4738929876327513,0.21529285597503184,0.7231394291948526
1772698686075352300,1.218352294921875,-0.6572095978219061,-1.1891980941295623,1.0780087328381835
1772698686085309200,1.22830908203125,0.5807260045349597,-2.549039755168557,1.4394529578924178
1772698686095266300,1.238266357421875,2.0165408981859683,-3.8200025247931477,1.853329234842956
1772698686105223400,1.248223388671875,3.3454245263814926,-5.497240156453848,2.151587958796322
1772698686115180300,1.25818017578125,4.284275402289628,-7.588289475396275,2.0207788280166685
1772698686125137400,1.268137451171875,4.482195683181286,-10.099303743553161,1.2412485993623732
1772698686135093500,1.278093505859375,3.9015947663307187,-12.779833451372385,-0.007213438510149717
1772698686145050400,1.28805029296875,2.6993361150979993,-15.51069517006874,-1.579611662428081
1772698686155007500,1.298007568359375,1.135924769103527,-18.205189105832577,-3.365429788056016
1772698686164964400,1.30796435546875,-1.006855321598053,-20.454165133452413,-5.441502487140894
1772698686174921200,1.317921142578125,-2.163986544859409,-21.530644026374816,-6.98545334586203
1772698686184878300,1.32787841796875,-1.3012825045645235,-21.121904235529897,-7.424415841013193
1772698686194835500,1.33783544921875,0.47873745617866514,-19.460894100570677,-6.694369043582677
1772698686204792300,1.347792236328125,1.9452455942571163,-17.078333778369426,-4.969503399306536
1772698686214749400,1.35774951171875,2.835242130625248,-14.490057991355657,-2.739598567381501
1772698686224706300,1.367706298828125,3.2818799827098846,-12.03714110738039,-0.43641799830012024
1772698686234663200,1.3776630859375,2.9051790056824682,-9.786026314166188,1.5292425344109535
1772698686244620300,1.387620361328125,1.8262731778740882,-7.599888727775216,3.0199022401884195
1772698686254577400,1.397577392578125,0.2134252720048651,-5.6654778312653296,4.15063703943342
1772698686264534300,1.4075341796875,-1.4753122067809104,-4.064346703207493,4.903245505023002
1772698686274491400,1.417491455078125,-2.693589095878601,-2.4834376944452523,4.935509944289922
1772698686284448500,1.427448486328125,-2.896805145090818,-0.556375991654396,4.23083052008897
1772698686294405400,1.4374052734375,-2.2609973048031327,1.5616414137125014,3.1077275308966636
1772698686304362200,1.4473623046875,-1.4444845223188398,3.6577328184753655,1.7294086945332585
1772698686314319400,1.4573193359375,-0.9077087186694145,5.475969989410043,0.32848296262957155
1772698686324276500,1.4672763671875,-0.6248667595565318,6.915514717239141,-0.9579607961781322
1772698686334232300,1.477232421875,-0.48229953257441516,8.083807970505953,-1.9181777007199823
1772698686344189400,1.487189453125,-0.5976455751538277,8.843349742490053,-2.3443600631445647
1772698686354146300,1.497146240234375,-1.0846657065093517,9.31053821517229,-2.2162145986162125
1772698686364103400,1.507103515625,-1.5549650046885013,9.843704011631011,-1.7611736598454415
1772698686374060300,1.517060302734375,-1.5644354283452033,10.617395889520644,-1.2037600687716155
1772698686384017400,1.527017333984375,-1.1191945835769175,11.41500991026759,-0.7996116973701864
1772698686393974300,1.536974365234375,-0.2895639973768964,11.961674655246734,-0.5993159195188432
1772698686403931400,1.546931396484375,0.6914250980913639,12.286444369506835,-0.7324526895284652
1772698686413888500,1.556888427734375,1.3482102599561214,12.37153322098851,-1.0651459633294493
1772698686423845400,1.566845458984375,1.4533797764360903,12.178235339200496,-1.4723472194954752
1772698686433802200,1.57680224609375,1.1172539709031581,11.712415816783905,-1.8621379797205329
1772698686443759400,1.58675927734375,0.8389958324491977,11.219265219849348,-2.0826241665549574
1772698686453716200,1.59671630859375,0.6586836889624595,10.74047749478817,-1.995328891070187
1772698686463673300,1.60667333984375,0.4140075021147728,10.196161358761787,-1.748424506779015
1772698686473630500,1.61663037109375,0.1859364131093025,9.761704942858218,-1.506273016103357
1772698686483587300,1.62658740234375,0.24229837006675078,9.493203643786906,-1.239048751230538
1772698686493544400,1.63654443359375,0.3461667225539684,9.365060078954697,-0.9580988164093345
1772698686503501300,1.646501220703125,0.20137597430348395,9.245286867582797,-0.7440351369030773
1772698686513457400,1.65645751953125,0.09362637820243835,9.14705211880207,-0.654889922702685
1772698686523414300,1.666414306640625,0.2645826643228531,9.087062637263536,-0.6861951615486294
1772698686533371400,1.676371337890625,0.5695253960847855,9.122202339705824,-0.7114169157624244
1772698686543328300,1.686328369140625,0.8842997860312461,9.130636990574002,-0.6576096299901604
1772698686553285400,1.696285400390625,0.8442916007697582,9.071150197860598,-0.6647934770796448
1772698686563242500,1.706242431640625,0.4810182605922222,8.89579889165163,-0.7133434268455952
1772698686573199400,1.716199462890625,0.1761620563362725,8.512103525692224,-0.9163448103938251
1772698686583156200,1.72615625,-0.3086825028121471,7.861088763922452,-1.0602792340759188
1772698686593113300,1.73611328125,-0.8427110535800456,7.100196746373176,-1.0025157580237836
1772698686603070200,1.7460703125,-1.441824947720766,6.181889476799965,-0.912522767887637
1772698686613027300,1.75602734375,-1.9017992512404918,5.135159825453162,-0.9628358548685908
1772698686622984400,1.765984375,-2.061510505247116,4.0918794377774,-0.8785578083131462
1772698686632941300,1.77594140625,-2.14496152639389,3.0182746389865875,-0.5936997601374984
1772698686642898400,1.7858984375,-2.1344237657666203,1.963734021627903,-0.2961094369649887
1772698686652855300,1.795855224609375,-1.8993582878291606,0.9666881463825702,0.036177374926954504
1772698686662812200,1.805812255859375,-1.2865642433822155,-0.12111585815250873,0.31440694487355647
1772698686672769300,1.815769287109375,-0.3373216642539948,-1.2697399498313664,0.6770974436618388
1772698686682726400,1.825726318359375,0.8927613249063491,-2.380855271849036,1.3554934027016161
1772698686692683500,1.83568359375,2.1385399689137934,-3.5035020417064424,2.1795850960075853
1772698686702640400,1.845640380859375,2.9780010807871817,-4.737147764849663,2.992928016284108
1772698686712596500,1.855596435546875,2.771072148531675,-6.399519251289964,3.293137874305248
1772698686722553300,1.86555322265625,2.1600489131495357,-8.373626782894133,2.8824291214749214
1772698686732510200,1.87551025390625,1.9127543604969977,-10.159863718456029,2.0656907135412097
1772698686742467300,1.88546728515625,2.3004782513201234,-11.181014107388258,1.0084016742572188
1772698686752424200,1.895424072265625,3.6505320933163166,-11.643787101715802,-0.4523877573808655
1772698686762381300,1.90538134765625,5.22376925227642,-12.416435023510456,-1.8692216543711722
1772698686772338400,1.91533837890625,5.497352384656668,-14.276090246504545,-2.7606311262771484
1772698686782295600,1.925295654296875,3.3769664965927597,-16.915558460617063,-2.8611399574697014
1772698686792252400,1.93525244140625,-0.18996135777644813,-19.119561374044416,-2.109683584524691
1772698686802209300,1.945209228515625,-3.40328167206645,-19.865843851482868,-1.0493926600109784
1772698686812166400,1.95516650390625,-4.953273564517498,-18.660314215755463,0.0742664652267471
1772698686822123300,1.965123291015625,-4.095346237105131,-15.630239248859882,1.4265499294385313
1772698686832080400,1.975080322265625,-1.5581576632499694,-11.765775651049614,2.648198048534989
1772698686842037500,1.98503759765625,0.9826163678765296,-7.720045385506749,3.5374475659281015
1772698686851994400,1.994994384765625,2.6974843497514724,-4.400922590595483,4.034531995180249
1772698686861951200,2.004951171875,3.392639866542816,-1.9782699119806288,3.9516745560124513
1772698686871908400,2.014908447265625,3.166812172549963,-0.16668460015058517,3.2802076655834913
1772698686881865200,2.024865234375,2.5181226388573643,1.1577934865623711,2.1118007228091358
1772698686891822300,2.034822265625,1.8932278222501278,2.022708188644051,0.6817973649810999
1772698686901778400,2.0447783203125,1.2360837639451026,2.4918390275657174,-0.7925725194483995
1772698686911735300,2.0547353515625,0.4322632532408461,2.6865514523267744,-1.8964650506056844
1772698686921692400,2.0646923828125,-0.7340660430092364,2.72453134663105,-2.4945173068642617
1772698686931649500,2.0746494140625,-2.192984675806761,2.482403675222397,-2.9502590873807666
1772698686941606400,2.0846064453125,-3.0200293736994266,2.69297593241632,-3.189691528356075
1772698686951563300,2.094563232421875,-2.751691740757227,3.326456206539273,-2.798405853398144
1772698686961520400,2.104520263671875,-1.7777941013872622,4.200900368988513,-2.1428876427292822
1772698686971477200,2.114477294921875,-0.8545558051526546,5.21886452910006,-1.4484478729918597
1772698686981434400,2.124434326171875,-0.27876316536664963,6.2987114371508355,-0.7401796305187046
1772698686991391500,2.1343916015625,-0.11341712034344673,7.276915249282121,-0.15783088362012057
1772698687001348400,2.144348388671875,-0.021013525401614604,7.84902657020688,0.22094679008349774
1772698687011305200,2.15430517578125,-0.1349672733724117,8.007760503613948,0.5295328467838466
1772698687021262300,2.164262451171875,-0.5324024108707904,7.946189890363812,0.5608418119568377
1772698687031219200,2.17421923828125,-1.1648819835186004,7.767885579568147,0.34018647910058497
1772698687041176300,2.18417626953125,-1.86103352560997,7.589241661554574,-0.033237814343720674
1772698687051133400,2.194133544921875,-2.2272727298557755,7.680929180648922,-0.6736771868895739
1772698687061090600,2.204090576171875,-1.8001123161792754,7.98612325682342,-1.366338621842861
1772698687071047400,2.21404736328125,-0.8068249166846275,8.440042498087882,-1.7402983373381196
1772698687081003500,2.22400341796875,0.048668461579084395,8.732748264089226,-1.8258372706748545
1772698687090960400,2.23396044921875,0.5129015915870666,8.816737629896402,-1.6337673232465981
1772698687100917200,2.243917236328125,0.6329962899982929,8.672841200137137,-1.4053433291502295
1772698687110874400,2.253874267578125,0.47944469113256777,7.936900668492913,-1.3737474367946385
1772698687120831200,2.263831298828125,0.08664715030696242,6.703322749888897,-1.5457088083043693
1772698687130788400,2.273788330078125,-0.5342132962176576,4.8926188970685,-1.8099273154899478
1772698687140745500,2.283745361328125,-1.2582231150388716,2.2101637741446494,-2.2151243191614745
1772698687150702300,2.293702392578125,-1.3264461719155312,-0.7188222235828637,-2.46473591658473
1772698687160659200,2.3036591796875,-0.12757076991293578,-3.2875089285075663,-2.269850181083381
1772698687170616300,2.3136162109375,1.63033208810091,-5.832424297222495,-1.8805511498980223
1772698687180573400,2.323573486328125,2.487342885190248,-8.586611946448683,-1.3878623252563178
1772698687190530300,2.3335302734375,1.7962381050944327,-11.438529902064799,-0.6850472336225211
1772698687200487400,2.3434873046875,1.0443722745656967,-14.354932897073029,0.23061722982432692
1772698687210444500,2.353444580078125,0.9329132294874638,-17.01836183248758,1.257355392293632
1772698687220401400,2.3634013671875,1.409313840216398,-19.159668928027152,2.4652163935780522
1772698687230358300,2.373358154296875,1.966158618426323,-20.827590449810028,3.638315001299977
1772698687240315400,2.3833154296875,1.7951123159348963,-22.42665996916294,4.888258071510493
1772698687250272300,2.393272216796875,0.6198025349695235,-23.740644134390354,5.797656935223936
1772698687260229400,2.4032294921875,-0.5623206158051267,-23.639568609225748,5.881953175023198
1772698687270186500,2.4131865234375,-0.5043617633113637,-22.026959224820136,5.056691853415966
1772698687280142300,2.423142333984375,0.5781844668259843,-19.294617496699093,3.6321257912710307
1772698687290099500,2.433099365234375,1.7315220334254204,-15.849141527503727,2.032510474603623
1772698687300056600,2.443056640625,2.2342238641679284,-11.994625323212146,0.4557434610169381
1772698687310013200,2.45301318359375,2.0129367362141606,-8.231858597335219,-1.1004919289335608
1772698687319970300,2.46297021484375,1.8359587055861948,-4.905297176855802,-2.16066529148221
1772698687329927400,2.472927490234375,1.633937419116497,-2.0665975992530585,-2.694844648897648
1772698687339884300,2.48288427734375,1.0061362866085022,0.3592927461087703,-2.598119135636091
1772698687349841400,2.49284130859375,-0.08888933974318206,2.461811553570628,-1.900596743582934
1772698687359798500,2.502798583984375,-1.3277356272041796,4.2385055847615005,-0.8172261183854193
1772698687369755400,2.51275537109375,-2.083060658276081,5.974895078092813,0.21697279015230014
1772698687379712300,2.522712158203125,-2.421725626897812,7.6819719677001235,1.05970304162316
1772698687389669400,2.53266943359375,-2.5036872862696646,9.141752258828282,1.9177733577027916
1772698687399626200,2.542626220703125,-2.6297955458819864,10.492944164943694,2.6369907180830836
1772698687409583400,2.552583251953125,-2.849969744157791,11.865030975049734,3.1282378194838762
1772698687419540500,2.56254052734375,-2.7231974676787853,13.049116840732097,3.1430092721581455
1772698687429497300,2.572497314453125,-1.9410919817090033,13.93856977174282,2.4325541871652008
1772698687439454200,2.5824541015625,-0.718335389913991,14.411787003195284,1.132101703684032
1772698687449411300,2.592411376953125,0.7334498838722705,14.402259296393394,-0.3400717301471159
1772698687459367200,2.6023671875,1.8168446936629712,14.024768045771122,-1.7386267508640885
1772698687469324300,2.61232421875,2.1221020443320273,13.366753049850463,-2.79338744071424
1772698687479281400,2.622281494140625,1.8166905260145663,12.40003333928585,-3.362957844984531
1772698687489238300,2.63223828125,1.1608417682170866,11.158056425648928,-3.4984313143134114
1772698687499195400,2.6421953125,0.08248889811635017,9.970657489895821,-3.294170139962435
1772698687509152500,2.652152587890625,-0.9544307223558426,9.020809419155121,-3.01528539404273
1772698687519109400,2.662109375,-1.568212608796358,8.315536412975192,-2.720641937977075
1772698687529066200,2.672066162109375,-1.6275567781686782,7.99134537538588,-2.2435865896664557
1772698687539023400,2.6820234375,-1.1171920115828513,7.936448833072185,-1.5572379180565477
1772698687548980200,2.691980224609375,-0.21751929985284804,8.11062934193611,-0.7765290740769356
1772698687558937300,2.701937255859375,0.5245335406592115,8.410834523782134,-0.07392163384445011
1772698687568894500,2.71189453125,0.7451963627021759,8.52837310796976,0.5572659262314439
1772698687578851600,2.7218515625,0.2775613518288359,8.354355680713057,1.2225517899379132
1772698687588808200,2.73180810546875,-0.4600070367455482,8.243978074195981,1.5320859411433339
1772698687598765300,2.741765380859375,-0.8908313066918402,8.338091943654417,1.2399275798916816
1772698687608722400,2.751722412109375,-0.822148742544651,8.347214576786756,0.6547978605050593
1772698687618679300,2.76167919921875,-0.5127450127858668,8.258836036109924,0.08754223598316312
1772698687628636400,2.771636474609375,-0.3229017284311354,8.017811357507108,-0.3654516340646893
1772698687638592300,2.78159228515625,-0.3975403514385223,7.751466359686851,-0.46878092950545247
1772698687648549400,2.79154931640625,-0.5812520742356777,7.345016725605726,-0.40883229143396016
1772698687658506500,2.801506591796875,-0.898490808469057,6.784771199041605,-0.423499480016157
1772698687668463400,2.81146337890625,-0.9969476025026291,6.107851011642813,-0.5647564646499231
1772698687678420200,2.821420166015625,-0.839181710410118,4.869163202679157,-0.783390265083313
1772698687688377300,2.83137744140625,-1.0748198736689984,2.6070243266254662,-1.0396106131218372
1772698687698334500,2.84133447265625,-2.039596779602766,-0.2745733124613762,-1.0738355388067662
1772698687708291300,2.851291259765625,-3.492973048907518,-3.022103841885924,-0.9882261705823242
1772698687718248400,2.86124853515625,-4.235398850917816,-5.319520367547869,-0.8997849399328232
1772698687728205600,2.87120556640625,-3.069406568069756,-6.749025347399711,-0.07103716444931923
1772698687738162200,2.881162109375,-0.6524295970037579,-7.961362325054407,1.4759762236475944
1772698687748119300,2.891119384765625,2.1367652143262323,-8.414139995068311,3.2163150391265747
1772698687758076400,2.901076416015625,4.465714503979683,-7.869477822083234,4.526443405708671
1772698687768033500,2.911033447265625,5.5321501417934895,-7.599759548437595,4.992212659242749
1772698687777990700,2.92099072265625,5.78791587793231,-7.664099041879177,4.667948556417227
1772698687787947500,2.930947509765625,6.241165841633081,-8.177551837608219,3.4296780960828066
1772698687797904400,2.940904296875,7.297052028381824,-9.129023710158467,2.0728674733027814
1772698687807861500,2.950861572265625,7.881451168471575,-11.080462313836811,1.2043312927883119
1772698687817818400,2.960818359375,5.623307499533891,-14.193035531198978,1.0343505006365477
1772698687827774500,2.9707744140625,0.16735680032372474,-17.37484302830696,1.3155449848033487
1772698687837731300,2.9807314453125,-6.307882001078128,-19.885944390225408,1.4214634199544787
1772698687847688400,2.9906884765625,-10.504484965133667,-19.812855773139,0.7447164702307433
1772698687857645600,3.0006455078125,-9.827919582521915,-16.730192540872096,0.06508227463290095
1772698687867602700,3.010602783203125,-4.890859486180544,-12.40150516540408,0.020924595875991506
1772698687877559300,3.020559326171875,0.8794951622284948,-7.9670216659903526,0.6443311923526227
1772698687887516400,3.030516357421875,4.768751694381237,-3.6600878571689126,1.1689945334039629
1772698687897473500,3.0404736328125,5.962892505609989,-0.21684709967970847,1.350078830306977
1772698687907430400,3.050430419921875,5.338102902942896,1.9079694643080234,0.9164213827613741
1772698687917387500,3.060387451171875,3.951346931493282,2.990981558391452,-0.04687026218385435
1772698687927344600,3.0703447265625,2.6922049480438233,3.481063415405154,-1.1692207433752715
1772698687937301500,3.080301513671875,1.6043151649214327,3.35029651633203,-1.980657099378109
1772698687947258400,3.09025830078125,0.5941209081590175,2.9499422765165564,-2.4430548306524753
1772698687957215500,3.100215576171875,-0.6552747573018074,2.6810686370015144,-2.69041134262532
1772698687967172400,3.11017236328125,-1.5495090773701667,2.564321495452523,-2.8673785595983263
1772698687977129500,3.12012939453125,-1.8666016811311243,2.6556723299384117,-3.0482755172356963
1772698687987086600,3.130086669921875,-2.0556056651175023,3.083927553114295,-3.0183599791824816
1772698687997043500,3.14004345703125,-2.1734943779170512,3.8421675948500633,-2.80173295199424
1772698688006999600,3.14999951171875,-1.8362743474066257,4.673053186079859,-2.3266231847934424
1772698688016956700,3.159956787109375,-1.0777204174160957,5.398926497218013,-1.7494057729013264
1772698688026913300,3.169913330078125,-0.5184381829261779,6.0157537427037955,-0.9441863186519592
1772698688036870400,3.179870361328125,-0.5142834013342857,6.475418834143877,0.04248104164842516
1772698688046827500,3.18982763671875,-0.8961901303112506,6.829848942652344,0.8833655739210545
1772698688056784400,3.199784423828125,-1.2675029845595358,7.244629767227172,1.3348046888075769
1772698688066741500,3.209741455078125,-1.387239955574274,7.540677829393744,1.41694740383476
1772698688076698600,3.21969873046875,-1.2807926742434501,7.652488683584332,1.1408948856662957
1772698688086655500,3.229655517578125,-1.0858452716827391,7.850206135380268,0.5457996160497889
1772698688096612400,3.2396123046875,-0.4105459634840488,8.158775825467705,-0.07149440669752657
1772698688106569500,3.249569580078125,-0.0369651643037796,8.397880934184789,-0.6017066871128977
1772698688116526300,3.2595263671875,-0.425900184482336,8.381568097287415,-1.2459043162137269
1772698688126483500,3.2694833984375,-1.1455611969769,8.139180313637851,-1.8361694257274268
1772698688136440600,3.279440673828125,-1.3439537715554237,8.081096957981586,-2.2146149083346125
1772698688146397700,3.289397705078125,-0.7354945414423942,7.567080683150887,-2.1859502471253274
1772698688156354300,3.299354248046875,-0.10400514887571334,6.894226430016755,-1.9888453742697834
1772698688166311400,3.3093115234375,0.04369534934163093,6.417828814962506,-1.815954612955451
1772698688176268500,3.3192685546875,-0.13523494786527007,5.315867690259218,-1.4315100360639392
1772698688186224400,3.329224365234375,-0.5370037671864032,3.803573368039727,-0.7397206347048282
1772698688196181500,3.339181396484375,-0.6728127520799636,2.366621579313278,0.1424770827469416
1772698688206138400,3.349138427734375,-0.26345568785322826,0.6805582516402006,0.562388310746476
1772698688216095500,3.359095458984375,0.21725624673618002,-1.1586363671272992,0.0819365066642873
1772698688226052600,3.369052490234375,1.4455460140705108,-3.148277567949891,-0.8056021699566394
1772698688236009500,3.379009521484375,2.4833061770200726,-6.1222337572604415,-0.5050046277921647
1772698688245966300,3.38896630859375,2.6426737321555613,-9.347472984337806,0.7183269874118268
1772698688255923500,3.39892333984375,1.840717882812023,-12.573680764186381,2.579304837311804
1772698688265880600,3.408880615234375,0.5378560001015663,-15.59745458511114,4.262055971696973
1772698688275837400,3.41883740234375,-1.0368939015090466,-18.48765112571716,5.464436788004637
1772698688285794600,3.428794677734375,-2.299985499367118,-21.39443639755249,5.340339868214726
1772698688295751700,3.438751708984375,-2.7706793498218056,-23.19008530458212,3.830190741330385
1772698688305708300,3.448708251953125,-2.1896260130286214,-23.904256487488745,2.1830933963894843
1772698688315665400,3.45866552734375,-1.1945236730664968,-23.919526537334917,0.7000808443643153
1772698688325622500,3.46862255859375,-0.6806237180918455,-23.121796781253813,-0.4895168435420841
1772698688335579400,3.478579345703125,-0.7614286086440086,-21.7934170109272,-1.3028161438725887
1772698688345536500,3.48853662109375,-1.2021540218144655,-19.703054505205152,-1.4759690632544458
1772698688355493600,3.49849365234375,-1.7345307137221098,-16.82933212953806,-1.0071518933918326
1772698688365450500,3.508450439453125,-1.949804280474782,-13.342881175875663,-0.05889545749044046
1772698688375407400,3.518407470703125,-1.993695444649458,-9.366822412452102,1.0128810116283595
1772698688385363500,3.528363525390625,-2.0151929907083512,-5.34102258978188,1.8075091484323142
1772698688395320300,3.5383203125,-2.0465373925209045,-1.9143419219493865,2.2047711213208734
1772698688405277400,3.54827734375,-2.168712988859415,0.9717840082168578,1.9815698303088545
1772698688415234600,3.558234619140625,-2.52883634057343,3.605537351813912,1.221031302372366
1772698688425191400,3.56819140625,-2.814506216588616,6.001793021890521,0.35883418868631123
1772698688435148500,3.5781484375,-2.4868098012268542,8.326808333095908,-0.42196474472954865
1772698688445105700,3.588105712890625,-1.681245113736391,10.426365952664613,-0.9702835405260324
1772698688455062300,3.598062255859375,-0.752431063196063,12.170206346523761,-1.341095313384384
1772698688465019400,3.608019287109375,-0.08476035017967223,13.579564610403775,-1.5473172664143144
1772698688474976500,3.6179765625,0.1912169838607311,14.600082546651363,-1.675870142699778
1772698688484933400,3.627933349609375,0.46470191656351084,15.074291127228737,-1.6715885198578238
1772698688494890500,3.637890380859375,1.095008236825466,15.347982980680465,-1.6893242291651664
1772698688504847600,3.64784765625,1.733812336319685,15.26678821402788,-1.4704117213882506
1772698688514804500,3.657804443359375,1.8843980345845222,14.896114826726913,-1.119881250666827
1772698688524761300,3.66776123046875,1.5763912390768526,14.046375481945276,-0.8323219076432288
1772698688534718500,3.677718505859375,1.1317840160369872,13.015998999506234,-0.7670207295626401
1772698688544675600,3.687675537109375,0.877407103908062,11.902150453132391,-0.8174537896614521
1772698688554631400,3.69763134765625,0.9222598065912723,10.997807411503791,-0.862397093237564
1772698688564588500,3.707588623046875,1.0885866793453693,10.250137279099226,-0.8035526170156896
1772698688574545400,3.71754541015625,1.0816448973834514,9.543734392106533,-0.6750147921688854
1772698688584502500,3.72750244140625,0.9835971956074238,8.873037024745345,-0.46458837318643925
1772698688594459600,3.737459716796875,0.7477075418055057,8.220690722110866,-0.24338992816312238
1772698688604416300,3.747416259765625,0.43855975956916804,7.687570518359541,-0.07575401407049502
1772698688614373400,3.757373291015625,0.3678594989240169,7.499191388273239,0.13135037065004
1772698688624330500,3.76733056640625,0.5162988328099251,7.521921690997481,0.44148941981289536
1772698688634287400,3.777287353515625,0.6694540893018245,7.675095067667961,0.66389557839185
1772698688644244500,3.787244384765625,0.8099369112253189,7.857973846772313,0.7412067816093564
1772698688654201600,3.79720166015625,0.8887678713560104,7.9929984032899135,0.6777777540761977
1772698688664158500,3.807158447265625,0.9747440270662308,8.02519503801763,0.5057228955967351
1772698688674115300,3.817115234375,1.0659855559587479,7.916525988984107,0.2640224548905156
1772698688684072400,3.827072509765625,0.742971745455265,7.638823730847239,0.10695108440080657
1772698688694029600,3.837029541015625,0.21104396635890005,7.097301609453559,-0.0006423530241474509
1772698688703986400,3.846986328125,-0.6211445241630077,6.3190060371607535,-0.413613534361124
1772698688713943600,3.856943603515625,-1.0017489383697509,5.4772822410523885,-1.2570850509196518
1772698688723900700,3.866900634765625,-0.3411480176091194,4.590201884391903,-1.6148108399726449
1772698688733857300,3.876857177734375,0.5498842915475368,3.104080698826909,-1.5295315804854035
1772698688743813600,3.886813720703125,0.6401753878474236,0.917976430183649,-1.0871598614126443
1772698688753770500,3.8967705078125,0.21906711381673813,-1.526127032738924,-0.4542585927540436
1772698688763727000,3.90672705078125,-0.0536918426990509,-4.02962493391633,0.2789996958025731
1772698688773684000,3.91668408203125,0.19346507331477478,-6.168865160053968,1.210045651847124
1772698688783641000,3.92664111328125,0.5971662306716665,-7.757197596815228,2.105754136121273
1772698688793598200,3.93659814453125,0.9532663547515868,-9.141569887998699,2.9076234762251376
1772698688803555000,3.94655517578125,1.0206149668812752,-10.284059422445297,3.4431299905911086
1772698688813512200,3.95651220703125,1.494188756686449,-10.773275018018483,3.5147432744279503
1772698688823469000,3.966468994140625,3.782745099544525,-10.515455271959304,2.9773847024545073
1772698688833426000,3.976426025390625,6.857090585321187,-11.60127014850378,2.3919443827487528
1772698688843383000,3.986383056640625,5.523426737111807,-14.986943683165311,2.0492133337318896
1772698688853340200,3.996340087890625,-1.6307810009121895,-18.396224887907504,1.849032122170925
1772698688863297000,4.006297119140625,-8.999903993770479,-20.249830309343338,1.695837118190527
1772698688873254100,4.016254150390625,-11.538874774867296,-19.32826608380079,1.167760096238181
1772698688883211000,4.0262109375,-8.015207312488556,-15.370928971982002,0.38628600350711495
1772698688893168000,4.036168212890625,-1.9619068062007425,-10.276778617787361,-0.03027974998941645
1772698688903125000,4.046125,2.9978935297369955,-5.489599870833755,0.17860438972078263
1772698688913082000,4.05608203125,5.5778445559978485,-2.1168378401935097,0.6610529753770679
1772698688923039200,4.066039306640625,5.897292782974243,-0.6703624363183975,0.9492913136407732
1772698688932996000,4.07599609375,4.522765009456872,-0.7265262220889329,0.7379923496074974
1772698688942952200,4.0859521484375,2.6026485957592724,-1.2926385948598385,0.055054217093437906
1772698688952909000,4.095908935546875,0.5719575916677713,-1.6880910341084003,-0.6490175966031849
1772698688962866200,4.1058662109375,-1.2158831988941878,-1.753004528045654,-1.1650047331154345
1772698688972823000,4.115822998046875,-2.1503584170013665,-1.1344523584634065,-1.588755630609393
1772698688982780200,4.1257802734375,-1.9619471382111309,0.06381283921897411,-2.0884170707426963
1772698688992737000,4.135737060546875,-1.1170996571242808,1.3935241504102944,-2.479474343772232
1772698689002694100,4.145694091796875,-0.21603227616548537,2.686565480852127,-2.643724994774163
1772698689012651300,4.1556513671875,0.4470224309554323,3.8925206485152244,-2.5291613347440958
1772698689022608100,4.165608154296875,0.8441805416107178,4.772376899141073,-2.2416851399593054
1772698689032565000,4.17556494140625,0.9734440503835677,5.241614705568551,-1.935328742007166
1772698689042522000,4.185522216796875,0.6722609634160995,5.153519073486327,-1.4524652919396757
1772698689052479000,4.19547900390625,-0.039676761350035665,4.781563829681277,-0.8614622235402465
1772698689062436000,4.20543603515625,-0.6654840166270732,4.456332343128324,-0.33954964250177144
1772698689072393200,4.215393310546875,-0.7415051800340413,4.503194047546386,-0.02453994596209377
1772698689082350000,4.22535009765625,-0.4993868609756231,4.703056694677472,0.264337603520602
1772698689092307200,4.23530712890625,-0.18368655182328075,4.95170178515613,0.4378977519964799
1772698689102264000,4.24526416015625,0.16850542236957697,5.400997458273172,0.4929482792954892
1772698689112221000,4.255220947265625,0.7002794356763362,5.82387332649827,0.37066735941898077
1772698689122178000,4.265177978515625,1.1757026527404784,6.113047995764017,0.09170257053300737
1772698689132134100,4.275134033203125,1.4008774357825517,6.499846588435768,-0.36237573375068605
1772698689142091000,4.285091064453125,1.6127274578273296,6.8099266830861565,-0.8689287600286304
1772698689152048000,4.295048095703125,2.0747528486579654,7.070332353985309,-1.3701722086563706
1772698689162005200,4.305005126953125,2.460123454353213,7.140254031473398,-1.847898880357295
1772698689171962000,4.314962158203125,2.3676988531559706,6.659723846659064,-2.041379279105365
1772698689181919000,4.3249189453125,1.5290905587196348,5.559463096132874,-1.9982930015727876
1772698689191876000,4.3348759765625,0.13059563415944575,4.242589054682851,-1.5577955519393085
1772698689201833000,4.3448330078125,-1.4231401209950447,2.8828204588800665,-0.8202000926949083
1772698689211790000,4.3547900390625,-2.530818454301357,1.6904869893342256,-0.15812369255423545
1772698689221747200,4.364747314453125,-3.124038614228368,0.8026941004902124,0.15671568891983478
1772698689231704000,4.3747041015625,-3.3780765036612745,0.44654199049472804,0.20295312395971268
1772698689241661200,4.3846611328125,-3.0429706888258456,0.44692134520113463,-0.022071765750274062
1772698689251618000,4.3946181640625,-2.0613094297170638,0.2814572267562151,-0.25821996089052407
1772698689261575000,4.404574951171875,-0.9703729723751544,-0.39786534560918807,-0.3879950724473223
1772698689271532000,4.414531982421875,-0.15962653486523776,-1.807089753976464,-0.4268627459041774
1772698689281489200,4.4244892578125,0.7789005524486303,-3.8434073657780883,-0.18443452064637095
1772698689291446300,4.4344462890625,1.669387502682209,-6.360647376582026,0.4718672416156158
1772698689301402000,4.444402099609375,1.3237287296503781,-9.075012133985757,1.1521173406220973
1772698689311359200,4.454359130859375,-0.02484623543228954,-11.677197203886509,1.1568456843182444
1772698689321316000,4.464316162109375,-1.0029032960366457,-14.084073636698722,0.2575769502792507
1772698689331273000,4.47427294921875,-0.5133212052386253,-15.728186412870883,-0.7864201342985033
1772698689341230000,4.48422998046875,1.347905139529705,-17.08882711533308,-1.4320239769354461
1772698689351187000,4.49418701171875,2.8581203173875807,-18.726819947320223,-1.111559412523359
1772698689361144000,4.50414404296875,2.1627368370592595,-20.594791747760773,-0.1154401871362701
1772698689371101200,4.51410107421875,-0.32973457012586294,-21.50694750896692,0.794045953001827
1772698689381058300,4.524058349609375,-2.599193486869335,-20.980786622834206,1.6049338813416658
1772698689391015200,4.53401513671875,-3.441765424239635,-19.380688344955445,2.685233647726476
1772698689400972000,4.543971923828125,-3.5238165154606103,-16.987483879143,3.7923482096701857
1772698689410929200,4.55392919921875,-3.6802141148746013,-14.098974268710613,4.4897468292132015
1772698689420886000,4.563885986328125,-3.6066146256566047,-10.701914247637987,4.927487965875864
1772698689430843100,4.573843017578125,-2.8384581700623035,-6.880757876634598,5.158302216109633
1772698689440800300,4.58380029296875,-1.7768740639328955,-2.918171173724532,5.016930920913815
1772698689450757000,4.593757080078125,-0.7782236761003732,0.8626204536646604,4.292183983457088
1772698689460714000,4.6037138671875,-0.03189619047641754,4.141283812415599,3.1709234072610735
1772698689470671000,4.613671142578125,0.3803133223056793,6.865629281085729,1.7161115521952508
1772698689480628000,4.6236279296875,0.6763087775021791,9.054237641504406,0.10496186507865786
1772698689490584000,4.633583984375,1.046425115442276,10.587104796153307,-1.376643888888508
1772698689500541200,4.643541259765625,1.4448866733789443,11.62788109205365,-2.5667095596328378
1772698689510498000,4.653498046875,1.5928817706286906,12.275706702393293,-3.461011099718511
1772698689520455200,4.663455078125,1.0893781219840049,12.492205427026748,-3.793862413625419
1772698689530412300,4.673412353515625,0.15443652847409248,12.401443206083774,-3.644536944554746
1772698689540369200,4.683369140625,-0.600845247977972,12.379315545427799,-3.446808971364796
1772698689550326000,4.693325927734375,-0.7373053902566432,12.427637970048188,-3.3855633522853252
1772698689560283100,4.703283203125,-0.38249125086665153,12.378695952224732,-3.2883515168115496
1772698689570240000,4.713239990234375,0.14338553936136886,12.354183442258835,-3.0120354523360726
1772698689580197000,4.723197021484375,0.6810743844687939,12.41595805364847,-2.501780283604562
1772698689590154200,4.733154296875,0.9655927523612976,12.38393794453144,-1.8573479689650236
1772698689600111000,4.743111083984375,1.0218798722505569,12.123445764392613,-1.2015820671454072
1772698689610068000,4.75306787109375,0.8494868313252926,11.67601646966934,-0.6265584389705211
1772698689620025000,4.763025146484375,0.5893944641590118,11.086343773090839,-0.14876633735056966
1772698689629982000,4.77298193359375,0.32514731540083885,10.432032307863235,0.28675986320897934
1772698689639939000,4.78293896484375,0.01743161179423332,9.73937737571597,0.6349869523588567
1772698689649896200,4.792896240234375,-0.34195231972932816,9.217874544522166,0.6771234548859297
1772698689659853300,4.802853271484375,-0.4538684243926778,8.868304735526442,0.4958678200040012
1772698689669809200,4.81280908203125,-0.1598164679467678,8.581587396284938,0.22397074101455508
1772698689679766300,4.822766357421875,0.2683189282417297,8.40185217590332,-0.10032540091704577
1772698689689723100,4.83272314453125,0.530484010028839,8.288413428249955,-0.46395255950093267
1772698689699680000,4.842679931640625,0.5755237597167492,8.117633667740225,-0.7248821812089532
1772698689709637000,4.85263720703125,0.4337514825046062,7.658713841709494,-0.775062873981893
1772698689719594000,4.862593994140625,-0.07877601507306098,6.961589070671796,-0.7503327757425606
1772698689729551000,4.872551025390625,-0.5561527042925357,6.246750363767147,-0.7552784154511988
1772698689739508200,4.88250830078125,-0.758507168239355,5.2911213715374465,-0.9075188221205025
1772698689749465000,4.892465087890625,-0.8810299705803394,4.091005577552318,-0.988746979586035
1772698689759422200,4.902422119140625,-0.6741022073686123,2.4377713372915983,-0.854999895658344
1772698689769379000,4.912379150390625,-0.0757365195129998,0.30551790130138395,-0.4332056121248752
1772698689779336200,4.922336181640625,-0.04261862348821014,-1.9814988108992575,0.4624238886289298
1772698689789293300,4.932293212890625,-0.6977671605944633,-4.086523463702202,1.5312038976117968
1772698689799250200,4.942250244140625,-1.5663865624129771,-6.00757569694519,2.2107637858644127
1772698689809207300,4.952207275390625,-1.864952160358429,-7.530000368034839,2.3930834697812795
1772698689819164200,4.9621640625,-1.0673954227566718,-8.037626649567484,1.9347113407611847
1772698689829121000,4.97212109375,1.7223299883186816,-7.397586870798468,0.4860942486822605
1772698689839078100,4.982078125,5.996726970672607,-5.78795211828947,-1.3089691135443746
1772698689849034200,4.9920341796875,10.635582703596352,-4.3265018481224775,-2.601785841450095
1772698689858991000,5.0019912109375,13.26575000540018,-6.231374515458941,-2.5810034579232335
1772698689868948200,5.0119482421875,10.40891680521369,-11.119327174282073,-1.5293471638292073
1772698689878905300,5.0219052734375,2.182638638359308,-15.574354280030727,0.19352290444923564
1772698689888862200,5.0318623046875,-7.368540224534272,-18.835804053652286,2.3986938570089635
1772698689898819300,5.0418193359375,-12.47224634258151,-19.03432873017788,3.751074826778471
1772698689908776200,5.051776123046875,-11.547872904837131,-16.6310038523674,4.090097815057635
1772698689918733000,5.061733154296875,-6.06236994792819,-12.255593304169178,3.6318721087709065
1772698689928690200,5.071690185546875,0.05860884083509445,-7.8671368119150396,3.1945848533555865
1772698689938647300,5.081647216796875,4.498185863995552,-4.159235064169764,2.7335364908635613
1772698689948604200,5.091604248046875,6.508467701786756,-1.693074667739868,2.2439573226749894
1772698689958561300,5.101561279296875,6.508812569701671,-0.9297644831329583,1.6509490519329904
1772698689968518100,5.11151806640625,4.439724322676659,-1.2052666008770465,1.0202826661869884
1772698689978475300,5.121475341796875,1.5294646527290343,-1.7020114229112862,0.3186157216750085
1772698689988432100,5.13143212890625,-1.3908955554723739,-1.934305682569742,-0.05755841846670955
1772698689998389200,5.14138916015625,-3.283518397566676,-1.8676742787986993,-0.36349582382179796
1772698690008346400,5.151346435546875,-3.8753672691404817,-1.2770786221563815,-0.9198037917412817
1772698690018303200,5.16130322265625,-3.2522634276032445,-0.2608604289293289,-1.686175848136842
1772698690028260400,5.17126025390625,-2.0024656110823154,0.8352320960015058,-2.2999499896623194
1772698690038216200,5.18121630859375,-0.8474193774014711,1.9914567258119582,-2.634502116137743
1772698690048173300,5.19117333984375,-0.029572711398336102,3.0939988652735946,-2.689952200680971
1772698690058130200,5.201130126953125,0.5389309358566999,3.98339159052968,-2.444366936164349
1772698690068087300,5.21108740234375,0.9981447763979434,4.602699546915292,-1.9125220130458473
1772698690078044200,5.221044189453125,1.1367664806246758,4.931511814564466,-1.2964473394930363
1772698690088001300,5.231001220703125,0.9701473469257355,4.9615311052531,-0.5881865862065926
1772698690097958400,5.24095849609375,0.8198223454236984,4.758365324923396,0.050883580345287914
1772698690107915300,5.250915283203125,0.5028770411789417,4.423305687317252,0.4917508862044662
1772698690117872000,5.2608720703125,-0.048022564890980717,3.859060861983895,0.8863736696958542
1772698690127829200,5.270829345703125,-0.5495920306026936,3.414323875084519,1.1530992643315345
1772698690137786000,5.2807861328125,-0.9043149845778942,3.150508688002825,1.1560787185337393
1772698690147743200,5.2907431640625,-0.8804162225961685,3.0098697987347838,0.9425665354304015
1772698690157700400,5.300700439453125,-0.5764519804775714,2.896933739906549,0.6201307440105825
1772698690167657200,5.3106572265625,0.17852233746051788,2.859253120809793,0.38621465530395505
1772698690177614300,5.3206142578125,0.9789747965037822,2.8249767571985718,0.3616782530058175
1772698690187571200,5.3305712890625,1.479239024835825,2.514371761891246,0.45504605333730574
1772698690197528000,5.340528076171875,1.679547662168741,1.9960136584639547,0.6665181819804012
1772698690207485200,5.350485107421875,1.728161178690195,1.4257780682832002,0.8400528672214597
1772698690217441300,5.360441162109375,1.5556290215551851,0.6954109528571367,0.9932519628550857
1772698690227398100,5.370398193359375,0.9518085571587085,-0.046181320938467975,0.9351853391379117
1772698690237355300,5.380355224609375,-0.06548983252048492,-0.880079537987709,0.7822880759950727
1772698690247312400,5.3903125,-1.1891957560420037,-1.897091511940956,0.542923147298023
1772698690257269200,5.400269287109375,-1.8928987364262342,-2.480482351770997,0.2230510140874423
1772698690267226000,5.41022607421875,-2.121890447407961,-2.7579198214918375,-0.04167701352285221
1772698690277183200,5.420183349609375,-2.008249455180764,-2.8116894056022166,-0.1824956067393534
1772698690287140000,5.43014013671875,-1.827659079274535,-2.542691262924671,-0.2585359680371359
1772698690297097200,5.44009716796875,-1.5946224768161772,-1.9263830728769302,-0.151077911361726
1772698690307054300,5.450054443359375,-1.3849708415985107,-1.2638970690220594,0.05503039782643318
1772698690317011200,5.46001123046875,-1.2623007397413253,-0.8275316046267748,0.29603054477619006
1772698690326968300,5.46996826171875,-1.1583470287919044,-0.4215495880573988,0.4847312532333657
1772698690336925200,5.47992529296875,-0.9336053764700889,0.045427872222661966,0.5835622874068096
1772698690346882300,5.48988232421875,-0.39449031621813774,0.5563005883306265,0.6701443365883082
1772698690356839200,5.499839111328125,0.35152561923861503,0.9598632687985896,0.7090536206971854
1772698690366796300,5.50979638671875,0.9982768783450126,1.1931254967063665,0.6243380595073104
1772698690376753400,5.51975341796875,1.1797568965673446,1.2915385246634483,0.4636545264024287
1772698690386710300,5.529710205078125,0.894938084423542,1.1278753181606531,0.2923675104903057
1772698690396666400,5.539666259765625,0.39003859750628467,0.7625976524233817,0.14021120190788058
1772698690406623200,5.549623291015625,-0.20270864767935126,0.4190852437704801,-0.09384281569840386
1772698690416580000,5.559580078125,-0.6508113481521606,0.11863105559945106,-0.4619720897408202
1772698690426537200,5.569537109375,-0.7872843499124049,-0.0733422995865345,-0.8030817846335471
1772698690436494000,5.579494140625,-0.6828653595387936,-0.21248715090453624,-0.976012951023504
1772698690446451200,5.589451171875,-0.6253367151558399,-0.37116146307885645,-1.1243206944189965
1772698690456408300,5.599408203125,-0.5931891802668571,-0.48452422288656233,-1.1781348483234644
1772698690466365400,5.609365478515625,-0.720118108612299,-0.5409294161975383,-1.0504146965350956
1772698690476322000,5.619322021484375,-0.8111573929309844,-0.4035580042928457,-0.9368986458618194
1772698690486279200,5.629279052734375,-0.8842635456740856,-0.27413784365355964,-0.8370148877650498
1772698690496236300,5.639236328125,-0.9057108228504657,-0.29168460626006126,-0.8371997428126633
1772698690506193200,5.649193115234375,-0.9186720112323761,-0.02407879472374916,-1.637255457623303
1772698690516150300,5.659150390625,-1.105828906047344,0.026663550519943235,-2.243731258834153
1772698690526107400,5.669107421875,-2.1288848363399504,0.3841442787706852,1.909726537108421
1772698690536064300,5.679064208984375,2.9169945311605927,0.1435515618443489,-1.1928211799975483
1772698690546021000,5.689021240234375,1.7156921577394009,0.2716021876960993,-0.7735188594102859
1772698690555978200,5.698978271484375,-0.5305459328165277,0.36866438556611536,-0.2810834615403786
1772698690565935000,5.70893505859375,0.6025379868378863,0.4342354666292667,0.5733792950339615
1772698690575891200,5.71889111328125,0.37706451311018313,0.9159083917379379,1.3019538279548286
1772698690585848300,5.728848388671875,-0.25095515751931813,0.7016781965583563,1.5354052948243915
1772698690595805200,5.73880517578125,-0.49757192050814625,0.13534078285992146,1.596964509897679
1772698690605762300,5.74876220703125,-0.5379238046407699,-0.16945114225447178,1.262766019165516
1772698690615719400,5.758719482421875,-0.4250772141942754,-0.2976256867468357,0.5872983321299776
1772698690625676000,5.768676025390625,-0.054378107930161054,0.04341594787836075,-0.19952022690158336
1772698690635633200,5.778633056640625,0.30240473771691323,0.6668155574917793,-1.1070168737228958
1772698690645590300,5.78859033203125,0.6692249567210674,1.1682967603981493,-1.7004503110744058
1772698690655547100,5.798547119140625,0.806271958976984,1.4804776267200708,-1.8525407148137687
1772698690665504300,5.808504150390625,0.34912206522822375,0.9776637139052152,-1.1049400674488394
1772698690675461400,5.81846142578125,0.7332920629620552,1.4428279872834682,-0.5555340974701568
1772698690685418200,5.828418212890625,0.5993348434150219,1.757932047575712,-0.18715579883642494
1772698690695375000,5.838375,0.097519293987751,1.416958802011609,0.2711813319355249
1772698690705332200,5.848332275390625,-0.06283844122886657,1.1012754805266856,0.8375852349989116
1772698690715289000,5.8582890625,-0.11270519094811751,-0.49751989805996416,1.6917127317368983
1772698690725246200,5.86824609375,0.36670331462621686,-2.2353595901995895,0.7207817601528018
1772698690735203300,5.878203369140625,1.2588672581613063,-1.6167039602428674,-0.9626710196956991
1772698690745160400,5.888160400390625,1.0767103635907171,-1.4462047702401875,-0.8259738537907599
1772698690755116300,5.8981162109375,1.1128934376060962,-1.1846879232287406,-0.7564630951911211
1772698690765073700,5.90807373046875,0.8129834393143653,-1.0635568675071,-0.36325989617407317
1772698690775030500,5.918030517578125,0.7260942604124546,-0.7782926496833562,-0.08843005166836082
1772698690784987600,5.927987548828125,0.6286217281758785,-0.46502574169039723,0.010279730745591223
1772698690794944800,5.93794482421875,0.4743897823631763,-0.11260288135111331,0.05514814245458692
1772698690804902000,5.94790185546875,0.32696634752154347,0.23865853399336337,0.12346011972371489
1772698690814858800,5.957858642578125,0.19940204388201235,0.392289006781578,0.11110226752981543
1772698690824815900,5.96781591796875,0.060411506342887875,0.4190951806426048,0.07076981875002383
1772698690834772700,5.977772705078125,0.05008474898464046,0.5137842196404934,-0.001292268300242722
1772698690844729600,5.9877294921875,-0.02888529995633289,0.7506032632470131,-0.10598547250535338
1772698690854686700,5.997686767578125,-0.523055905854702,0.6464157435417175,0.2559688574954867
1772698690864643800,6.007643798828125,-0.36043490188121796,0.4780664250493049,0.2774464932775125
1772698690874600700,6.0176005859375,-0.19260580787062645,0.5418932927936315,-0.19772360754208637
1772698690884557800,6.027557861328125,-0.2798919136682525,0.5769552538245916,-0.18313763096993788
1772698690894514700,6.0375146484375,-0.3521633691528812,0.32645839799940585,-0.1309087369629182
1772698690904471600,6.047471435546875,-0.36140696178376674,0.1272434011220932,-0.2866639833527617
1772698690914428700,6.0574287109375,-0.33925880632903427,0.08758359090685844,-0.34269645262751725
1772698690924384800,6.067384765625,-0.3551858222465962,0.19908815562725066,-0.25503097385717555
1772698690934341600,6.077341552734375,-0.4233650399815291,0.32185178098678585,-0.010829254387132822
1772698690944298800,6.087298828125,-0.5302700750172138,0.3816770118743181,0.09254643747862427
1772698690954256000,6.097255859375,-0.5925006134808063,0.2680979789674282,0.09994747098274528
1772698690964212700,6.107212646484375,-0.5473123952329159,0.06843406927883625,-0.0026482494864612815
1772698690974169900,6.117169921875,-0.432313485590741,-0.07361410226523876,-0.14227723105959594
1772698690984126700,6.127126708984375,-0.34941081904172894,-0.10902034668922424,-0.26291085865311326
1772698690994083600,6.13708349609375,-0.27759419465251267,-0.4207990619510412,-0.17707621203912421
1772698691004040700,6.147040771484375,-0.37694289602451025,-0.4282014471620321,0.18217779122814534
1772698691013997800,6.156997802734375,-0.3366080360919237,-0.06126724638938903,0.2766721113715321
1772698691023954700,6.16695458984375,-0.34192250911295413,-0.016479425635933874,0.09308565892186016
1772698691033911800,6.176911865234375,-0.19539448874108492,0.05932429562807083,0.027910719303134827
1772698691043868700,6.18686865234375,-0.1636719012659043,0.10054127215743064,-0.020458467068430033
1772698691053825500,6.196825439453125,-0.10650566045455634,0.004131985238194465,-0.11939946442237123
1772698691063782700,6.20678271484375,-0.018475567889213562,-0.23209376865029333,-0.07526546793514863
1772698691073739800,6.21673974609375,-0.018975845561549066,-0.4432593155622482,-0.08883244019048288
1772698691083697000,6.22669677734375,0.09562310497760772,-0.5346259321391582,-0.1851423401221633
1772698691093653800,6.23665380859375,0.1310598176050931,-0.4513409152090549,-0.19350301243867724
1772698691103611000,6.24661083984375,0.11363054389841853,-0.16486264542043208,-0.13380533518726007
1772698691113566700,6.256566650390625,0.1319189917176962,0.20665420696735382,0.07579562928909435
1772698691123523800,6.26652392578125,0.09888356807827949,0.4516068726688623,0.20114726184783502
1772698691133480700,6.276480712890625,0.08347038343437016,0.5534627345561981,0.17458023050492627
1772698691143437600,6.2864375,0.02625562730617821,0.5675912131518125,0.2115390563994646
1772698691153394700,6.296394775390625,-0.050963221452757716,0.46000177604854103,0.22624838535664601
1772698691163351800,6.306351806640625,-0.04481405117325484,0.2623293324381113,0.12739292912799866
1772698691173308700,6.31630859375,0.0530693999517709,0.13343991767466068,-0.015365838370844721
1772698691183265800,6.326265869140625,0.1286469112444669,0.04349368928968906,-0.07170076119089498
1772698691193222700,6.33622265625,0.1318535252660513,-0.03850479496121406,-0.07565550843235105
1772698691203179800,6.3461796875,0.14813355587236582,-0.08708674730062484,-0.044463064044807106
1772698691213136600,6.35613671875,0.08301840188317,0.02558101598024368,-0.006849957226309925
1772698691223093800,6.36609375,0.013770678133890032,0.3341284942358732,0.050143082442600274
1772698691233051000,6.37605078125,0.0769014533728361,0.7307768652707338,0.06359280326012522
1772698691243007700,6.3860078125,0.15052841511964798,0.6163730719774961,0.042476895196270195
1772698691252964600,6.395964599609375,0.0811288618095219,0.23506547793745994,0.017454042821750042
1772698691262921700,6.405921630859375,0.19987667565643785,-0.07367196993231773,-0.04919621178023517
1772698691272878600,6.415878662109375,0.2414987989205867,-0.182115978038311,-0.02587791656758636
1772698691282834700,6.425834716796875,0.2072131560243666,-0.2286971119493246,0.04674237975417636
1772698691292791800,6.435791748046875,0.14972827771790326,-0.2970587005138397,0.12075808509024791
1772698691302748700,6.445748779296875,0.14387312194891272,-0.3684218089818954,-0.00875259424354881
1772698691312705800,6.455705810546875,0.21894494874179363,-0.24518530541360375,-0.11393630364565178
1772698691322663000,6.465662841796875,0.18886143371053038,-0.08476385731101035,-0.1277362626729533
1772698691332619800,6.475619873046875,0.12659706604257226,-0.12333645681142806,-0.10517358073373324
