time,seconds_elapsed,z,y,x
1772698684930303200,0.07330322265625,0.1288549154996872,-0.0856696292757988,0.4496230185031891
1772698684940260000,0.083260009765625,0.09912580251693726,-0.0744318887591362,0.3947356343269348
1772698684950216200,0.09321630859375,0.07861652970314026,-0.07003101706504822,0.335767924785614
1772698684960173000,0.103173095703125,0.06648479402065277,-0.07301349937915802,0.2663900852203369
1772698684970130200,0.113130126953125,0.05605559051036835,-0.07899495959281921,0.19888824224472046
1772698684980087300,0.12308740234375,0.053649138659238815,-0.08705900609493256,0.13569773733615875
1772698684990044200,0.133044189453125,0.04779177904129028,-0.0688544362783432,0.07636943459510803
1772698685000001300,0.143001220703125,0.0345550961792469,-0.04649347811937332,0.03151898831129074
1772698685009958100,0.152958251953125,0.023130135610699654,-0.02637648954987526,0.00303408270701766
1772698685019915300,0.162915283203125,0.018995538353919983,-0.02455727756023407,-0.015063351020216942
1772698685029872000,0.1728720703125,0.03650209307670593,-0.031808000057935715,-0.005270640831440687
1772698685039829200,0.182829345703125,0.055821437388658524,-0.0357031375169754,0.012116756290197372
1772698685049786400,0.192786376953125,0.07617916911840439,-0.04453444480895996,0.033731501549482346
1772698685059743200,0.2027431640625,0.08973700553178787,-0.04234345257282257,0.05633589252829552
1772698685069700400,0.212700439453125,0.09829746931791306,-0.03765735402703285,0.0753932073712349
1772698685079657200,0.2226572265625,0.11209643632173538,-0.035723909735679626,0.10222619026899338
1772698685089614000,0.232614013671875,0.13280092179775238,-0.042386606335639954,0.12507878243923187
1772698685099571200,0.2425712890625,0.139113649725914,-0.03475344926118851,0.14688675105571747
1772698685109528300,0.2525283203125,0.13956531882286072,-0.03169400990009308,0.16526122391223907
1772698685119485200,0.262485107421875,0.15642665326595306,-0.05055612325668335,0.1870054006576538
1772698685129442300,0.2724423828125,0.16922339797019958,-0.09044894576072693,0.2060302197933197
1772698685139398400,0.2823984375,0.17270946502685547,-0.12003479897975922,0.2113245129585266
1772698685149355300,0.292355224609375,0.15247823297977448,-0.1216377541422844,0.20013977587223053
1772698685159312100,0.30231201171875,0.10726357996463776,-0.10541988909244537,0.16617365181446075
1772698685169269200,0.312269287109375,0.06543970108032227,-0.08392739295959473,0.12250101566314697
1772698685179226000,0.32222607421875,0.038489025086164474,-0.062292665243148804,0.07767514139413834
1772698685189183200,0.332183349609375,0.030354667454957962,-0.052602484822273254,0.049558818340301514
1772698685199140400,0.342140380859375,0.033301182091236115,-0.058320824056863785,0.03138032555580139
1772698685209097200,0.35209716796875,0.04054524749517441,-0.06971622258424759,0.02962796576321125
1772698685219054300,0.362054443359375,0.03839129954576492,-0.09588976949453354,0.039337120950222015
1772698685229011200,0.37201123046875,0.02686140686273575,-0.12037301063537598,0.059921227395534515
1772698685238968000,0.381968017578125,0.007982317358255386,-0.12224442511796951,0.07982808351516724
1772698685248925200,0.39192529296875,-0.0005057102534919977,-0.11932027339935303,0.09968194365501404
1772698685258882300,0.40188232421875,-0.013579783961176872,-0.12165798246860504,0.1121710017323494
1772698685268839200,0.411839111328125,-0.03090124949812889,-0.11836285889148712,0.1235877051949501
1772698685278796300,0.42179638671875,-0.04403934255242348,-0.12527403235435486,0.12479101121425629
1772698685288753200,0.431753173828125,-0.03635133057832718,-0.13886068761348724,0.1207781583070755
1772698685298710000,0.4417099609375,-0.006228080950677395,-0.15648680925369263,0.11571187525987625
1772698685308667100,0.451667236328125,0.030282260850071907,-0.1779811829328537,0.10303523391485214
1772698685318624300,0.461624267578125,0.04769458994269371,-0.2112339437007904,0.07156942039728165
1772698685328581400,0.471581298828125,0.060420237481594086,-0.22671517729759216,0.04160406440496445
1772698685338537200,0.481537109375,0.06148841977119446,-0.23430411517620087,0.002085347194224596
1772698685348494300,0.491494384765625,0.039027318358421326,-0.21972410380840302,-0.04173457249999046
1772698685358451200,0.501451171875,0.0016926927492022514,-0.1692843735218048,-0.07237174361944199
1772698685368408300,0.511408203125,-0.04558294638991356,-0.18063236773014069,0.004954473115503788
1772698685378365200,0.521365234375,-0.05393802002072334,-0.1850617527961731,0.19843152165412903
1772698685388322000,0.531322021484375,0.0026070130988955498,-0.15832839906215668,0.4263448715209961
1772698685398279200,0.541279052734375,0.08384958654642105,-0.12558162212371826,0.5979082584381104
1772698685408236300,0.551236328125,0.14488284289836884,-0.1085248738527298,0.6438648104667664
1772698685418193400,0.561193359375,0.21247658133506775,-0.08869338780641556,0.5493853688240051
1772698685428150300,0.571150390625,0.28610870242118835,-0.0705450102686882,0.380266398191452
1772698685438107100,0.581107177734375,0.36711007356643677,-0.04360925778746605,0.2029188573360443
1772698685448064300,0.591064208984375,0.3883354663848877,-0.007028345018625259,0.0269134733825922
1772698685458021000,0.601021240234375,0.31789514422416687,-0.0020679463632404804,-0.1512688845396042
1772698685467978200,0.610978271484375,0.04892120882868767,0.052866142243146896,-0.33115077018737793
1772698685477935400,0.620935302734375,-0.12743812799453735,0.12408359348773956,-0.4093124568462372
1772698685487892200,0.630892333984375,-0.28227269649505615,0.1735430210828781,-0.3797913193702698
1772698685497849300,0.640849365234375,-0.3868049085140228,0.21547210216522217,-0.3288176655769348
1772698685507806200,0.65080615234375,-0.41607093811035156,0.23614460229873657,-0.30369898676872253
1772698685517763000,0.66076318359375,-0.40797847509384155,0.20136480033397675,-0.2896599769592285
1772698685527720200,0.67072021484375,-0.40164920687675476,0.17739927768707275,-0.2657988369464874
1772698685537676300,0.68067626953125,-0.44178834557533264,0.12883813679218292,-0.2268507033586502
1772698685547633200,0.690633056640625,-0.44800227880477905,0.07213890552520752,-0.20148488879203796
1772698685557590300,0.70059033203125,-0.36629518866539,0.0030117700807750225,-0.16459967195987701
1772698685567547400,0.71054736328125,-0.27268028259277344,-0.09923311322927475,-0.12239283323287964
1772698685577504300,0.720504150390625,-0.1976587474346161,-0.1595720797777176,-0.11519738286733627
1772698685587461000,0.730461181640625,-0.12108007073402405,-0.11894503235816956,-0.12345051765441895
1772698685597418200,0.740418212890625,-0.06574967503547668,-0.08391647785902023,-0.10164415091276169
1772698685607375000,0.750375,-0.043601758778095245,-0.019501006230711937,-0.03444327414035797
1772698685617332200,0.760332275390625,-0.05298710986971855,-0.04521673917770386,0.024296801537275314
1772698685627289300,0.770289306640625,-0.018660563975572586,-0.06388097256422043,0.1460208296775818
1772698685637246200,0.78024609375,0.013113903813064098,-0.18250936269760132,0.4022655189037323
1772698685647203300,0.790203369140625,-0.014200274832546711,-0.23221513628959656,0.6136972904205322
1772698685657160200,0.80016015625,-0.07191944122314453,-0.26013946533203125,0.6038244962692261
1772698685667117000,0.810116943359375,-0.17270436882972717,-0.22232894599437714,0.46977052092552185
1772698685677074200,0.82007421875,-0.30831462144851685,-0.16014467179775238,0.3258821666240692
1772698685687031300,0.83003125,-0.42916008830070496,-0.09892205893993378,0.25701096653938293
1772698685696988400,0.839988525390625,-0.5062327980995178,-0.05906092748045921,0.23999936878681183
1772698685706945300,0.8499453125,-0.5238370895385742,-0.04436347261071205,0.2185976803302765
1772698685716902100,0.859902099609375,-0.46247023344039917,-0.03103088028728962,0.1520683765411377
1772698685726859300,0.869859375,-0.32449984550476074,-0.03578701987862587,0.06281039118766785
1772698685736815000,0.879815185546875,-0.1551051288843155,-0.0723961740732193,0.008625076152384281
1772698685746772200,0.889772216796875,-0.00003404892049729824,-0.12376349419355392,0.015458481386303902
1772698685756729300,0.899729248046875,0.09482955187559128,-0.17278829216957092,0.07357638329267502
1772698685766686500,0.9096865234375,0.12016846239566803,-0.19874346256256104,0.13657133281230927
1772698685776643300,0.919643310546875,0.09709569066762924,-0.1895611435174942,0.1644572615623474
1772698685786600400,0.929600341796875,0.06074940040707588,-0.18274104595184326,0.17849184572696686
1772698685796557300,0.939557373046875,0.03458455204963684,-0.16631492972373962,0.19792693853378296
1772698685806514200,0.94951416015625,0.010231011547148228,-0.1504848301410675,0.19555433094501495
1772698685816471300,0.95947119140625,-0.034696243703365326,-0.1437704861164093,0.1627519279718399
1772698685826428400,0.969428466796875,-0.08405420929193497,-0.14556919038295746,0.10482710599899292
1772698685836385300,0.97938525390625,-0.11738978326320648,-0.13729900121688843,0.03215080127120018
1772698685846342400,0.98934228515625,-0.11176252365112305,-0.12272164970636368,-0.020724665373563766
1772698685856299500,0.999299560546875,-0.09440593421459198,-0.12360768765211105,-0.058670029044151306
1772698685866256100,1.009256103515625,-0.0643036961555481,-0.12617284059524536,-0.09738653153181076
1772698685876213200,1.019213134765625,-0.01443120650947094,-0.10849478095769882,-0.14649443328380585
1772698685886170400,1.02917041015625,0.044437702745199203,-0.07294823229312897,-0.17950990796089172
1772698685896127500,1.03912744140625,0.046929944306612015,-0.02785613015294075,-0.16008402407169342
1772698685906084400,1.04908447265625,0.012757061049342155,0.017892181873321533,-0.10099592804908752
1772698685916041500,1.05904150390625,-0.021228665485978127,0.0686778724193573,-0.013242652639746666
1772698685925998300,1.068998291015625,-0.06241551786661148,0.08994560688734055,0.07836902141571045
1772698685935954400,1.078954345703125,-0.11209113895893097,0.10948654264211655,0.12854138016700745
1772698685945911300,1.088911376953125,-0.1395091861486435,0.10292717814445496,0.13546904921531677
1772698685955868200,1.0988681640625,-0.12775856256484985,0.06823605298995972,0.11117280274629593
1772698685965825300,1.1088251953125,-0.10630494356155396,0.012937111780047417,0.10868540406227112
1772698685975782400,1.118782470703125,-0.08780098706483841,-0.04697949066758156,0.13051073253154755
1772698685985739500,1.128739501953125,-0.09363623708486557,-0.08731812238693237,0.15795327723026276
1772698685995696400,1.1386962890625,-0.14500701427459717,-0.10868839919567108,0.13625705242156982
1772698686005653500,1.148653564453125,-0.22266718745231628,-0.08535351604223251,0.08709777146577835
1772698686015610400,1.1586103515625,-0.30631253123283386,-0.027150660753250122,0.03869940713047981
1772698686025567200,1.168567138671875,-0.3550558388233185,0.0042954119853675365,0.036721743643283844
1772698686035524400,1.1785244140625,-0.36361345648765564,0.018286073580384254,0.04723289608955383
1772698686045481500,1.1884814453125,-0.35005876421928406,0.0010117455385625362,0.08999659866094589
1772698686055438300,1.198438232421875,-0.30861011147499084,-0.038169484585523605,0.21842017769813538
1772698686065395500,1.2083955078125,-0.21481889486312866,-0.07094447314739227,0.3421788513660431
1772698686075352300,1.218352294921875,-0.05733490362763405,-0.05085599422454834,0.4034719467163086
1772698686085309200,1.22830908203125,0.1849088817834854,-0.01144973374903202,0.3679006099700928
1772698686095266300,1.238266357421875,0.5102993845939636,0.028157610446214676,0.23059435188770294
1772698686105223400,1.248223388671875,0.8914995193481445,0.0967867374420166,0.001081541646271944
1772698686115180300,1.25818017578125,1.2628363370895386,0.1954089105129242,-0.2941363453865051
1772698686125137400,1.268137451171875,1.564772129058838,0.26185134053230286,-0.6018129587173462
1772698686135093500,1.278093505859375,1.7592668533325195,0.24490641057491302,-0.8304136991500854
1772698686145050400,1.28805029296875,1.8400239944458008,0.09069102257490158,-0.8932640552520752
1772698686155007500,1.298007568359375,1.6897244453430176,-0.19119524955749512,-0.7202587127685547
1772698686164964400,1.30796435546875,1.217705249786377,-0.5260344743728638,-0.30155277252197266
1772698686174921200,1.317921142578125,0.4813041090965271,-0.8257855176925659,0.20022808015346527
1772698686184878300,1.32787841796875,-0.3537912964820862,-1.053662896156311,0.5524564385414124
1772698686194835500,1.33783544921875,-1.108980417251587,-1.1805063486099243,0.6703711748123169
1772698686204792300,1.347792236328125,-1.6453485488891602,-1.1589645147323608,0.5930659770965576
1772698686214749400,1.35774951171875,-1.8911128044128418,-1.12852942943573,0.3894323408603668
1772698686224706300,1.367706298828125,-1.8903603553771973,-1.1297094821929932,0.11675900220870972
1772698686234663200,1.3776630859375,-1.7319077253341675,-1.0750222206115723,-0.1790950894355774
1772698686244620300,1.387620361328125,-1.4877915382385254,-0.9722870588302612,-0.41603705286979675
1772698686254577400,1.397577392578125,-1.1554596424102783,-0.823388934135437,-0.5124629735946655
1772698686264534300,1.4075341796875,-0.7310619950294495,-0.633525013923645,-0.4449627697467804
1772698686274491400,1.417491455078125,-0.31484293937683105,-0.43276098370552063,-0.2739598751068115
1772698686284448500,1.427448486328125,0.03563704341650009,-0.25946590304374695,-0.11922995746135712
1772698686294405400,1.4374052734375,0.2701156437397003,-0.15202228724956512,-0.045216213911771774
1772698686304362200,1.4473623046875,0.34908342361450195,-0.1210973933339119,-0.05300329998135567
1772698686314319400,1.4573193359375,0.27008795738220215,-0.12359731644392014,-0.12731815874576569
1772698686324276500,1.4672763671875,0.04283537715673447,-0.1268727332353592,-0.21634523570537567
1772698686334232300,1.477232421875,-0.2843201756477356,-0.12492861598730087,-0.2881145775318146
1772698686344189400,1.487189453125,-0.6170217394828796,-0.11276169121265411,-0.29276177287101746
1772698686354146300,1.497146240234375,-0.86395263671875,-0.1001039668917656,-0.21255041658878326
1772698686364103400,1.507103515625,-0.9698913097381592,-0.06829223781824112,-0.07362156361341476
1772698686374060300,1.517060302734375,-0.9290557503700256,-0.050091393291950226,0.07111640274524689
1772698686384017400,1.527017333984375,-0.7690399885177612,-0.039851538836956024,0.1743229478597641
1772698686393974300,1.536974365234375,-0.5420416593551636,-0.0515204556286335,0.19011148810386658
1772698686403931400,1.546931396484375,-0.32567447423934937,-0.0956660807132721,0.12236945331096649
1772698686413888500,1.556888427734375,-0.17010484635829926,-0.1471889317035675,-0.007009543478488922
1772698686423845400,1.566845458984375,-0.10290610045194626,-0.17488685250282288,-0.11943675577640533
1772698686433802200,1.57680224609375,-0.1390121728181839,-0.16848275065422058,-0.17792269587516785
1772698686443759400,1.58675927734375,-0.23460954427719116,-0.16410639882087708,-0.1980210393667221
1772698686453716200,1.59671630859375,-0.3315579891204834,-0.14761821925640106,-0.19731245934963226
1772698686463673300,1.60667333984375,-0.4045986533164978,-0.12872308492660522,-0.17165663838386536
1772698686473630500,1.61663037109375,-0.4361192584037781,-0.10780955106019974,-0.12628550827503204
1772698686483587300,1.62658740234375,-0.41443127393722534,-0.08987103402614594,-0.09031551331281662
1772698686493544400,1.63654443359375,-0.33221709728240967,-0.07719412446022034,-0.05926782637834549
1772698686503501300,1.646501220703125,-0.2096746563911438,-0.06890636682510376,0.00494338059797883
1772698686513457400,1.65645751953125,-0.08453889191150665,-0.05945267155766487,0.07471562176942825
1772698686523414300,1.666414306640625,0.0227912999689579,-0.04061320424079895,0.10453823208808899
1772698686533371400,1.676371337890625,0.11036992073059082,-0.00032703811302781105,0.06658861041069031
1772698686543328300,1.686328369140625,0.19833892583847046,0.029677463695406914,-0.005440840031951666
1772698686553285400,1.696285400390625,0.2723020911216736,0.060802362859249115,-0.056892313063144684
1772698686563242500,1.706242431640625,0.30811095237731934,0.0991968885064125,-0.0556560717523098
1772698686573199400,1.716199462890625,0.2844555974006653,0.1213967427611351,-0.036349859088659286
1772698686583156200,1.72615625,0.23533573746681213,0.146087184548378,0.026899417862296104
1772698686593113300,1.73611328125,0.1830587089061737,0.14327915012836456,0.14110463857650757
1772698686603070200,1.7460703125,0.12599727511405945,0.12574516236782074,0.3164069652557373
1772698686613027300,1.75602734375,0.034328632056713104,0.1065666601061821,0.5163089632987976
1772698686622984400,1.765984375,-0.05174580216407776,0.05753360688686371,0.710249662399292
1772698686632941300,1.77594140625,-0.10548225790262222,-0.01973215490579605,0.8949809074401855
1772698686642898400,1.7858984375,-0.13222892582416534,-0.11068416386842728,1.0574865341186523
1772698686652855300,1.795855224609375,-0.15872924029827118,-0.1483689695596695,1.17373788356781
1772698686662812200,1.805812255859375,-0.22428828477859497,-0.08455775678157806,1.2179991006851196
1772698686672769300,1.815769287109375,-0.2899676561355591,0.03930532559752464,1.150792121887207
1772698686682726400,1.825726318359375,-0.27955976128578186,0.20072591304779053,0.9665865898132324
1772698686692683500,1.83568359375,-0.13236604630947113,0.39731860160827637,0.6931293606758118
1772698686702640400,1.845640380859375,0.1327471137046814,0.6080188751220703,0.36685195565223694
1772698686712596500,1.855596435546875,0.4543634355068207,0.8123738765716553,0.10128051042556763
1772698686722553300,1.86555322265625,0.7621159553527832,0.9373147487640381,-0.07344789057970047
1772698686732510200,1.87551025390625,1.0439988374710083,0.9741076231002808,-0.1951901763677597
1772698686742467300,1.88546728515625,1.2656316757202148,0.8626221418380737,-0.31034764647483826
1772698686752424200,1.895424072265625,1.335855484008789,0.5645864605903625,-0.5252935886383057
1772698686762381300,1.90538134765625,1.194191336631775,0.14034485816955566,-0.8666701316833496
1772698686772338400,1.91533837890625,0.8075572848320007,-0.2936774492263794,-1.1657952070236206
1772698686782295600,1.925295654296875,0.2784785330295563,-0.6079679727554321,-1.2090659141540527
1772698686792252400,1.93525244140625,-0.2769043445587158,-0.7388370037078857,-0.8943935632705688
1772698686802209300,1.945209228515625,-0.7807677388191223,-0.693222165107727,-0.31977230310440063
1772698686812166400,1.95516650390625,-1.1686903238296509,-0.5253694653511047,0.28477048873901367
1772698686822123300,1.965123291015625,-1.3435966968536377,-0.3097347021102905,0.7190170288085938
1772698686832080400,1.975080322265625,-1.2496953010559082,-0.06851381063461304,0.832473874092102
1772698686842037500,1.98503759765625,-0.9191815257072449,0.07724579423666,0.7218597531318665
1772698686851994400,1.994994384765625,-0.4155847430229187,0.1404958814382553,0.45993080735206604
1772698686861951200,2.004951171875,0.15754801034927368,0.13560818135738373,0.14357736706733704
1772698686871908400,2.014908447265625,0.6877683401107788,0.07222731411457062,-0.14545108377933502
1772698686881865200,2.024865234375,1.0769253969192505,-0.025490185245871544,-0.3873145878314972
1772698686891822300,2.034822265625,1.2631334066390991,-0.13447073101997375,-0.6153750419616699
1772698686901778400,2.0447783203125,1.2424770593643188,-0.2649531066417694,-0.8130207657814026
1772698686911735300,2.0547353515625,1.064798355102539,-0.4268418550491333,-0.9321459531784058
1772698686921692400,2.0646923828125,0.7691410779953003,-0.5122134685516357,-0.9115951657295227
1772698686931649500,2.0746494140625,0.351856529712677,-0.5472692251205444,-0.7082454562187195
1772698686941606400,2.0846064453125,-0.11382672935724258,-0.533704936504364,-0.45461052656173706
1772698686951563300,2.094563232421875,-0.5036014318466187,-0.5145890116691589,-0.24097521603107452
1772698686961520400,2.104520263671875,-0.7575679421424866,-0.46373170614242554,-0.14461751282215118
1772698686971477200,2.114477294921875,-0.8698455095291138,-0.4236487150192261,-0.14496196806430817
1772698686981434400,2.124434326171875,-0.8403710126876831,-0.3682571053504944,-0.1838768720626831
1772698686991391500,2.1343916015625,-0.7186962366104126,-0.3047417998313904,-0.22954653203487396
1772698687001348400,2.144348388671875,-0.5317686796188354,-0.2622755765914917,-0.27832314372062683
1772698687011305200,2.15430517578125,-0.295967698097229,-0.20533958077430725,-0.32099005579948425
1772698687021262300,2.164262451171875,-0.06774836778640747,-0.1688111424446106,-0.30914780497550964
1772698687031219200,2.17421923828125,0.14072856307029724,-0.1486576497554779,-0.20151680707931519
1772698687041176300,2.18417626953125,0.29607102274894714,-0.1058606430888176,0.0338837169110775
1772698687051133400,2.194133544921875,0.3370291590690613,-0.07895740121603012,0.31055280566215515
1772698687061090600,2.204090576171875,0.27835971117019653,-0.028750956058502197,0.5042562484741211
1772698687071047400,2.21404736328125,0.17599552869796753,0.028915004804730415,0.5692031979560852
1772698687081003500,2.22400341796875,0.08443417400121689,0.08304215222597122,0.52872633934021
1772698687090960400,2.23396044921875,0.058586351573467255,0.1487700343132019,0.4387323558330536
1772698687100917200,2.243917236328125,0.09354566782712936,0.19045782089233398,0.34425193071365356
1772698687110874400,2.253874267578125,0.15310005843639374,0.18914754688739777,0.24299529194831848
1772698687120831200,2.263831298828125,0.17526449263095856,0.1305803805589676,0.17696914076805115
1772698687130788400,2.273788330078125,0.1625598818063736,0.006003564689308405,0.21843719482421875
1772698687140745500,2.283745361328125,0.10173167288303375,-0.14849546551704407,0.3704046308994293
1772698687150702300,2.293702392578125,0.034229107201099396,-0.28292492032051086,0.5199453234672546
1772698687160659200,2.3036591796875,0.00239607528783381,-0.4145399332046509,0.5342773795127869
1772698687170616300,2.3136162109375,-0.027577556669712067,-0.4876983165740967,0.400375634431839
1772698687180573400,2.323573486328125,-0.10116469115018845,-0.5182404518127441,0.20356327295303345
1772698687190530300,2.3335302734375,-0.18519650399684906,-0.527734637260437,0.07323865592479706
1772698687200487400,2.3434873046875,-0.24477754533290863,-0.5041510462760925,0.02053362876176834
1772698687210444500,2.353444580078125,-0.24138839542865753,-0.42806556820869446,0.010347374714910984
1772698687220401400,2.3634013671875,-0.16563770174980164,-0.3234957456588745,-0.03712773323059082
1772698687230358300,2.373358154296875,-0.002397959353402257,-0.21559913456439972,-0.17235176265239716
1772698687240315400,2.3833154296875,0.24984760582447052,-0.07387474924325943,-0.28243643045425415
1772698687250272300,2.393272216796875,0.567249596118927,0.14488421380519867,-0.23768016695976257
1772698687260229400,2.4032294921875,0.8850722908973694,0.3860670030117035,-0.03563198447227478
1772698687270186500,2.4131865234375,1.1438111066818237,0.5515031218528748,0.1601715236902237
1772698687280142300,2.423142333984375,1.3134949207305908,0.6450924873352051,0.21228532493114471
1772698687290099500,2.433099365234375,1.3800617456436157,0.5928077101707458,0.1691644787788391
1772698687300056600,2.443056640625,1.3258826732635498,0.45774200558662415,0.1319958120584488
1772698687310013200,2.45301318359375,1.100256323814392,0.23298105597496033,0.10870280116796494
1772698687319970300,2.46297021484375,0.7404344081878662,-0.03532017767429352,0.01725863665342331
1772698687329927400,2.472927490234375,0.25425177812576294,-0.27650803327560425,-0.12724824249744415
1772698687339884300,2.48288427734375,-0.3029739260673523,-0.4277694523334503,-0.25333213806152344
1772698687349841400,2.49284130859375,-0.8319347500801086,-0.48634329438209534,-0.3127424120903015
1772698687359798500,2.502798583984375,-1.2334173917770386,-0.4362795948982239,-0.24104799330234528
1772698687369755400,2.51275537109375,-1.4837130308151245,-0.31138959527015686,-0.10558877140283585
1772698687379712300,2.522712158203125,-1.5568245649337769,-0.1593742072582245,0.03687836229801178
1772698687389669400,2.53266943359375,-1.429444670677185,-0.0049329763278365135,0.1551821529865265
1772698687399626200,2.542626220703125,-1.0931955575942993,0.14407141506671906,0.2611916661262512
1772698687409583400,2.552583251953125,-0.5987558364868164,0.2641722857952118,0.37338942289352417
1772698687419540500,2.56254052734375,-0.01872151903808117,0.3238217532634735,0.48273879289627075
1772698687429497300,2.572497314453125,0.5086978673934937,0.3364989459514618,0.5607028603553772
1772698687439454200,2.5824541015625,0.8568236231803894,0.3229173421859741,0.517297089099884
1772698687449411300,2.592411376953125,0.9880610108375549,0.3161848485469818,0.3139546513557434
1772698687459367200,2.6023671875,0.9109289646148682,0.3156229257583618,0.016313645988702774
1772698687469324300,2.61232421875,0.6749994158744812,0.2666514217853546,-0.28149154782295227
1772698687479281400,2.622281494140625,0.376880407333374,0.17408230900764465,-0.50278240442276
1772698687489238300,2.63223828125,0.06445159018039703,0.06094139814376831,-0.6355060935020447
1772698687499195400,2.6421953125,-0.23423896729946136,-0.047473229467868805,-0.6198938488960266
1772698687509152500,2.652152587890625,-0.5269842743873596,-0.13984417915344238,-0.46743640303611755
1772698687519109400,2.662109375,-0.7968849539756775,-0.2269980013370514,-0.23962481319904327
1772698687529066200,2.672066162109375,-1.0142239332199097,-0.2535816729068756,-0.0318981409072876
1772698687539023400,2.6820234375,-1.160130500793457,-0.24564357101917267,0.10011634975671768
1772698687548980200,2.691980224609375,-1.1750423908233643,-0.23188088834285736,0.14084817469120026
1772698687558937300,2.701937255859375,-1.067761778831482,-0.209661602973938,0.08422458916902542
1772698687568894500,2.71189453125,-0.8341987133026123,-0.2023661583662033,-0.0012134781572967768
1772698687578851600,2.7218515625,-0.47313085198402405,-0.19149114191532135,0.01295054517686367
1772698687588808200,2.73180810546875,-0.07246091216802597,-0.2080157846212387,0.11778987944126129
1772698687598765300,2.741765380859375,0.25251635909080505,-0.22053609788417816,0.2601771056652069
1772698687608722400,2.751722412109375,0.4518404006958008,-0.18870440125465393,0.3592967689037323
1772698687618679300,2.76167919921875,0.5117762088775635,-0.050261568278074265,0.38648656010627747
1772698687628636400,2.771636474609375,0.4783044457435608,0.09839048981666565,0.3674679100513458
1772698687638592300,2.78159228515625,0.4375538229942322,0.22714795172214508,0.3371291756629944
1772698687648549400,2.79154931640625,0.45120471715927124,0.3384065628051758,0.3582398593425751
1772698687658506500,2.801506591796875,0.4889427721500397,0.38784441351890564,0.42629772424697876
1772698687668463400,2.81146337890625,0.5259231328964233,0.32897764444351196,0.47742989659309387
1772698687678420200,2.821420166015625,0.5143884420394897,0.09845361113548279,0.5097771883010864
1772698687688377300,2.83137744140625,0.4509042799472809,-0.20147372782230377,0.5833492875099182
1772698687698334500,2.84133447265625,0.3098883032798767,-0.390471875667572,0.8113619685173035
1772698687708291300,2.851291259765625,0.03108336590230465,-0.4479418396949768,1.2053686380386353
1772698687718248400,2.86124853515625,-0.3649124205112457,-0.33957675099372864,1.6684776544570923
1772698687728205600,2.87120556640625,-0.7407867312431335,-0.0930820032954216,1.9814891815185547
1772698687738162200,2.881162109375,-0.9170608520507812,0.3237690329551697,2.001788377761841
1772698687748119300,2.891119384765625,-0.8150277733802795,0.7593183517456055,1.6556485891342163
1772698687758076400,2.901076416015625,-0.46411603689193726,0.9945330619812012,1.0925612449645996
1772698687768033500,2.911033447265625,0.07113511860370636,1.0360392332077026,0.5350390076637268
1772698687777990700,2.92099072265625,0.6452500224113464,0.9359093904495239,0.09704004973173141
1772698687787947500,2.930947509765625,1.119896411895752,0.70488440990448,-0.29022854566574097
1772698687797904400,2.940904296875,1.4171185493469238,0.3839399516582489,-0.8100187182426453
1772698687807861500,2.950861572265625,1.5032148361206055,0.02208826132118702,-1.4274935722351074
1772698687817818400,2.960818359375,1.3953500986099243,-0.251463919878006,-1.8502693176269531
1772698687827774500,2.9707744140625,1.1441988945007324,-0.3014298677444458,-1.745409369468689
1772698687837731300,2.9807314453125,0.7415347695350647,-0.060791704803705215,-0.9686660170555115
1772698687847688400,2.9906884765625,0.1262223720550537,0.2314808964729309,0.16863824427127838
1772698687857645600,3.0006455078125,-0.5654429197311401,0.5046373605728149,1.1003302335739136
1772698687867602700,3.010602783203125,-1.03473961353302,0.8284846544265747,1.3681669235229492
1772698687877559300,3.020559326171875,-1.1486594676971436,1.0878530740737915,1.0207911729812622
1772698687887516400,3.030516357421875,-0.903729259967804,1.086844801902771,0.37619271874427795
1772698687897473500,3.0404736328125,-0.4405544400215149,0.8940386176109314,-0.2767177224159241
1772698687907430400,3.050430419921875,0.042249251157045364,0.687765896320343,-0.7713387608528137
1772698687917387500,3.060387451171875,0.39264827966690063,0.49266454577445984,-1.0886123180389404
1772698687927344600,3.0703447265625,0.5621767640113831,0.28565147519111633,-1.3356176614761353
1772698687937301500,3.080301513671875,0.605360209941864,0.05640069767832756,-1.535811185836792
1772698687947258400,3.09025830078125,0.5580068230628967,-0.13635890185832977,-1.648770809173584
1772698687957215500,3.100215576171875,0.4222145974636078,-0.20603519678115845,-1.642114520072937
1772698687967172400,3.11017236328125,0.17216718196868896,-0.25967657566070557,-1.5510876178741455
1772698687977129500,3.12012939453125,-0.17087432742118835,-0.23343804478645325,-1.4032008647918701
1772698687987086600,3.130086669921875,-0.5481131672859192,-0.12477175891399384,-1.176757574081421
1772698687997043500,3.14004345703125,-0.9136205911636353,0.007133541163057089,-0.9059025049209595
1772698688006999600,3.14999951171875,-1.2026032209396362,0.1120556965470314,-0.6944999694824219
1772698688016956700,3.159956787109375,-1.3736921548843384,0.1721387356519699,-0.5911322832107544
1772698688026913300,3.169913330078125,-1.3586055040359497,0.22606508433818817,-0.5680222511291504
1772698688036870400,3.179870361328125,-1.1500943899154663,0.23404285311698914,-0.5357306003570557
1772698688046827500,3.18982763671875,-0.7906523942947388,0.22914716601371765,-0.4310823380947113
1772698688056784400,3.199784423828125,-0.3678502142429352,0.19231298565864563,-0.29016223549842834
1772698688066741500,3.209741455078125,0.04739149659872055,0.18249976634979248,-0.14153684675693512
1772698688076698600,3.21969873046875,0.3786858022212982,0.17019596695899963,-0.05933651328086853
1772698688086655500,3.229655517578125,0.6118987202644348,0.20394514501094818,-0.0661102756857872
1772698688096612400,3.2396123046875,0.7373605370521545,0.19930218160152435,-0.12210483849048615
1772698688106569500,3.249569580078125,0.7624702453613281,0.23927569389343262,-0.18224561214447021
1772698688116526300,3.2595263671875,0.6560071706771851,0.3487150967121124,-0.0989946722984314
1772698688126483500,3.2694833984375,0.46093112230300903,0.4255150854587555,0.085600845515728
1772698688136440600,3.279440673828125,0.2492753267288208,0.471092164516449,0.21808645129203796
1772698688146397700,3.289397705078125,0.0905487909913063,0.4296315312385559,0.24658547341823578
1772698688156354300,3.299354248046875,-0.03330603614449501,0.3609672486782074,0.18660974502563477
1772698688166311400,3.3093115234375,-0.15744109451770782,0.16770192980766296,0.09743946045637131
1772698688176268500,3.3192685546875,-0.21145345270633698,-0.10468752682209015,0.022756431251764297
1772698688186224400,3.329224365234375,-0.13109809160232544,-0.39024046063423157,-0.013053971342742443
1772698688196181500,3.339181396484375,0.12239357084035873,-0.7313322424888611,-0.027844103053212166
1772698688206138400,3.349138427734375,0.34041187167167664,-0.9305103421211243,0.0563180148601532
1772698688216095500,3.359095458984375,0.24494102597236633,-0.8435937762260437,0.10915885865688324
1772698688226052600,3.369052490234375,-0.12568901479244232,-0.5560568571090698,0.060163456946611404
1772698688236009500,3.379009521484375,-0.577843189239502,-0.12206970900297165,-0.13849638402462006
1772698688245966300,3.38896630859375,-0.8693125247955322,0.1918136477470398,-0.4446220397949219
1772698688255923500,3.39892333984375,-0.8651472926139832,0.3629460036754608,-0.7855820655822754
1772698688265880600,3.408880615234375,-0.5249189138412476,0.35463476181030273,-1.0088163614273071
1772698688275837400,3.41883740234375,0.01878567971289158,0.3474183976650238,-1.0404616594314575
1772698688285794600,3.428794677734375,0.4797702729701996,0.4247768819332123,-0.8994283676147461
1772698688295751700,3.438751708984375,0.7129787802696228,0.5134095549583435,-0.7038705348968506
1772698688305708300,3.448708251953125,0.7870557308197021,0.46770036220550537,-0.5659780502319336
1772698688315665400,3.45866552734375,0.758015513420105,0.29102039337158203,-0.47793132066726685
1772698688325622500,3.46862255859375,0.5962937474250793,0.09507378935813904,-0.38271185755729675
1772698688335579400,3.478579345703125,0.31132349371910095,-0.022945260629057884,-0.244418665766716
1772698688345536500,3.48853662109375,-0.027026528492569923,-0.039944760501384735,-0.0668814480304718
1772698688355493600,3.49849365234375,-0.2993680536746979,-0.026776758953928947,0.10116534680128098
1772698688365450500,3.508450439453125,-0.40260928869247437,-0.022672012448310852,0.20724841952323914
1772698688375407400,3.518407470703125,-0.32205265760421753,-0.03590845689177513,0.27653828263282776
1772698688385363500,3.528363525390625,-0.12288038432598114,-0.03471057862043381,0.2927413284778595
1772698688395320300,3.5383203125,0.11897086352109909,-0.0053060841746628284,0.25811251997947693
1772698688405277400,3.54827734375,0.31328490376472473,0.0406920425593853,0.21662235260009766
1772698688415234600,3.558234619140625,0.41546881198883057,0.07783142477273941,0.25612396001815796
1772698688425191400,3.56819140625,0.45259299874305725,0.08327145129442215,0.36784952878952026
1772698688435148500,3.5781484375,0.4660278558731079,0.02474210038781166,0.4978221654891968
1772698688445105700,3.588105712890625,0.45262977480888367,-0.07566653192043304,0.5566763281822205
1772698688455062300,3.598062255859375,0.42309826612472534,-0.17521469295024872,0.5401151776313782
1772698688465019400,3.608019287109375,0.3572658896446228,-0.24945029616355896,0.497618705034256
1772698688474976500,3.6179765625,0.2750370502471924,-0.2756856381893158,0.49448391795158386
1772698688484933400,3.627933349609375,0.16432714462280273,-0.2598606050014496,0.48042434453964233
1772698688494890500,3.637890380859375,0.05677991360425949,-0.2225731611251831,0.3870805501937866
1772698688504847600,3.64784765625,-0.0071119945496320724,-0.19589413702487946,0.2157931625843048
1772698688514804500,3.657804443359375,-0.008908829651772976,-0.1960829645395279,0.0348697155714035
1772698688524761300,3.66776123046875,0.016851412132382393,-0.19589094817638397,-0.10190777480602264
1772698688534718500,3.677718505859375,0.01923840306699276,-0.1923111230134964,-0.15884535014629364
1772698688544675600,3.687675537109375,0.0015815759543329477,-0.17913751304149628,-0.1770600825548172
1772698688554631400,3.69763134765625,-0.04367858171463013,-0.16620707511901855,-0.19461403787136078
1772698688564588500,3.707588623046875,-0.07416878640651703,-0.17160531878471375,-0.21467669308185577
1772698688574545400,3.71754541015625,-0.08062828332185745,-0.18927006423473358,-0.20244371891021729
1772698688584502500,3.72750244140625,-0.06866750866174698,-0.20572972297668457,-0.1680450737476349
1772698688594459600,3.737459716796875,-0.061534494161605835,-0.18090559542179108,-0.11213679611682892
1772698688604416300,3.747416259765625,-0.0691303238272667,-0.12690362334251404,-0.03629806265234947
1772698688614373400,3.757373291015625,-0.04612993448972702,-0.06951569765806198,0.042935241013765335
1772698688624330500,3.76733056640625,0.02725181169807911,-0.02248958870768547,0.09643521904945374
1772698688634287400,3.777287353515625,0.13258914649486542,0.019044004380702972,0.12396751344203949
1772698688644244500,3.787244384765625,0.2460712343454361,0.060158416628837585,0.12312835454940796
1772698688654201600,3.79720166015625,0.35065144300460815,0.09045826643705368,0.09984593093395233
1772698688664158500,3.807158447265625,0.4252311587333679,0.12236826866865158,0.05849558860063553
1772698688674115300,3.817115234375,0.47448498010635376,0.11742197722196579,-0.009739125147461891
1772698688684072400,3.827072509765625,0.5141519904136658,0.07319191843271255,-0.059182681143283844
1772698688694029600,3.837029541015625,0.5311458706855774,0.05699590593576431,-0.037276316434144974
1772698688703986400,3.846986328125,0.4136168360710144,0.09371984004974365,0.10659465193748474
1772698688713943600,3.856943603515625,0.1552867442369461,0.1316235363483429,0.27473095059394836
1772698688723900700,3.866900634765625,-0.13805779814720154,0.12272007018327713,0.3113599717617035
1772698688733857300,3.876857177734375,-0.408573180437088,0.10276393592357635,0.24319903552532196
1772698688743813600,3.886813720703125,-0.6285534501075745,0.10078652948141098,0.18806706368923187
1772698688753770500,3.8967705078125,-0.8079053163528442,0.1312541663646698,0.20212696492671967
1772698688763727000,3.90672705078125,-0.9235792756080627,0.18209977447986603,0.24375984072685242
1772698688773684000,3.91668408203125,-0.9572509527206421,0.2546224594116211,0.2744823396205902
1772698688783641000,3.92664111328125,-0.8961601257324219,0.3435201048851013,0.26362520456314087
1772698688793598200,3.93659814453125,-0.7363496422767639,0.42612576484680176,0.17632408440113068
1772698688803555000,3.94655517578125,-0.4854082763195038,0.4977903366088867,0.06753019243478775
1772698688813512200,3.95651220703125,-0.16309626400470734,0.5423597097396851,-0.051469434052705765
1772698688823469000,3.966468994140625,0.1738974004983902,0.4605274200439453,-0.4088289737701416
1772698688833426000,3.976426025390625,0.4177449345588684,0.25229671597480774,-1.1615461111068726
1772698688843383000,3.986383056640625,0.4595978856086731,0.11091507226228714,-1.7458343505859375
1772698688853340200,3.996340087890625,0.3076893091201782,0.14047376811504364,-1.5571049451828003
1772698688863297000,4.006297119140625,0.052543044090270996,0.32006511092185974,-0.6478464603424072
1772698688873254100,4.016254150390625,-0.25947052240371704,0.5513331890106201,0.4260266423225403
1772698688883211000,4.0262109375,-0.5394931435585022,0.7322419881820679,1.034237027168274
1772698688893168000,4.036168212890625,-0.6668031215667725,0.7831701636314392,1.0088086128234863
1772698688903125000,4.046125,-0.5615235567092896,0.6914804577827454,0.5920863747596741
1772698688913082000,4.05608203125,-0.2457834780216217,0.49836641550064087,0.03817630559206009
1772698688923039200,4.066039306640625,0.1344325989484787,0.2979448735713959,-0.4685945212841034
1772698688932996000,4.07599609375,0.43521320819854736,0.17761845886707306,-0.796364963054657
1772698688942952200,4.0859521484375,0.5638089776039124,0.12122949212789536,-0.9307418465614319
1772698688952909000,4.095908935546875,0.554187536239624,0.12764985859394073,-0.9014233350753784
1772698688962866200,4.1058662109375,0.4787553548812866,0.1320302039384842,-0.721943736076355
1772698688972823000,4.115822998046875,0.3727213442325592,0.11716258525848389,-0.46137315034866333
1772698688982780200,4.1257802734375,0.2248263657093048,0.06834311783313751,-0.24619823694229126
1772698688992737000,4.135737060546875,0.06381882727146149,-0.0008958750404417515,-0.12377803772687912
1772698689002694100,4.145694091796875,-0.09320321679115295,-0.07774325460195541,-0.09719302505254745
1772698689012651300,4.1556513671875,-0.23612229526042938,-0.15175624191761017,-0.12984737753868103
1772698689022608100,4.165608154296875,-0.3533077836036682,-0.2055925577878952,-0.171429842710495
1772698689032565000,4.17556494140625,-0.45645150542259216,-0.24139796197414398,-0.21816512942314148
1772698689042522000,4.185522216796875,-0.5189369916915894,-0.25873273611068726,-0.2381228357553482
1772698689052479000,4.19547900390625,-0.5335574746131897,-0.2479964792728424,-0.18298262357711792
1772698689062436000,4.20543603515625,-0.5057268738746643,-0.21431203186511993,-0.056709807366132736
1772698689072393200,4.215393310546875,-0.45278483629226685,-0.1670321375131607,0.08067015558481216
1772698689082350000,4.22535009765625,-0.35929349064826965,-0.10515224933624268,0.1966082751750946
1772698689092307200,4.23530712890625,-0.2496497929096222,-0.045092906802892685,0.29729652404785156
1772698689102264000,4.24526416015625,-0.12580592930316925,0.008252877742052078,0.3613975942134857
1772698689112221000,4.255220947265625,-0.007202844601124525,0.061594925820827484,0.350468248128891
1772698689122178000,4.265177978515625,0.08919189125299454,0.11876208335161209,0.3088999092578888
1772698689132134100,4.275134033203125,0.1385842114686966,0.15205851197242737,0.26174038648605347
1772698689142091000,4.285091064453125,0.1693229079246521,0.15704049170017242,0.1955677717924118
1772698689152048000,4.295048095703125,0.16389910876750946,0.11616337299346924,0.0688529685139656
1772698689162005200,4.305005126953125,0.12290667742490768,0.04238901287317276,-0.12033661454916
1772698689171962000,4.314962158203125,0.051835156977176666,-0.018193375319242477,-0.31760069727897644
1772698689181919000,4.3249189453125,-0.06624619662761688,-0.03332599252462387,-0.44171807169914246
1772698689191876000,4.3348759765625,-0.16392295062541962,-0.008354328572750092,-0.4530911147594452
1772698689201833000,4.3448330078125,-0.18764667212963104,0.04942215606570244,-0.34735193848609924
1772698689211790000,4.3547900390625,-0.13014237582683563,0.09538404643535614,-0.16106301546096802
1772698689221747200,4.364747314453125,-0.034075625240802765,0.1078963652253151,0.06378506869077682
1772698689231704000,4.3747041015625,0.05772140622138977,0.0935179591178894,0.29854458570480347
1772698689241661200,4.3846611328125,0.10584618896245956,0.06597529351711273,0.45907026529312134
1772698689251618000,4.3946181640625,0.09478528052568436,0.05182432755827904,0.47263240814208984
1772698689261575000,4.404574951171875,0.024113329127430916,0.0950455516576767,0.3414481580257416
1772698689271532000,4.414531982421875,-0.08770721405744553,0.16882763803005219,0.15174052119255066
1772698689281489200,4.4244892578125,-0.12764959037303925,0.23763306438922882,-0.07195206731557846
1772698689291446300,4.4344462890625,-0.030642887577414513,0.22996555268764496,-0.30300581455230713
1772698689301402000,4.444402099609375,0.16800764203071594,0.13324514031410217,-0.4528229236602783
1772698689311359200,4.454359130859375,0.3178868889808655,-0.026307236403226852,-0.4690469205379486
1772698689321316000,4.464316162109375,0.3001992106437683,-0.14971067011356354,-0.37574800848960876
1772698689331273000,4.47427294921875,0.10507097095251083,-0.2552133798599243,-0.3202653229236603
1772698689341230000,4.48422998046875,-0.18252778053283691,-0.3750588297843933,-0.4463444650173187
1772698689351187000,4.49418701171875,-0.4496423304080963,-0.5126033425331116,-0.7182196378707886
1772698689361144000,4.50414404296875,-0.6862798929214478,-0.6018099188804626,-0.8951047658920288
1772698689371101200,4.51410107421875,-0.9251359105110168,-0.6613278388977051,-0.7692914605140686
1772698689381058300,4.524058349609375,-1.1322137117385864,-0.7022481560707092,-0.44428202509880066
1772698689391015200,4.53401513671875,-1.2344753742218018,-0.7002768516540527,-0.0924113467335701
1772698689400972000,4.543971923828125,-1.2363520860671997,-0.5967315435409546,0.23673252761363983
1772698689410929200,4.55392919921875,-1.1640148162841797,-0.36274808645248413,0.5666963458061218
1772698689420886000,4.563885986328125,-0.973321795463562,-0.05707632750272751,0.8630556464195251
1772698689430843100,4.573843017578125,-0.6228175759315491,0.21597465872764587,1.0623143911361694
1772698689440800300,4.58380029296875,-0.14247222244739532,0.3988416790962219,1.140825867652893
1772698689450757000,4.593757080078125,0.3712507486343384,0.4790009558200836,1.097115397453308
1772698689460714000,4.6037138671875,0.8465224504470825,0.4928688406944275,0.9767557978630066
1772698689470671000,4.613671142578125,1.1998144388198853,0.4955032467842102,0.8345736265182495
1772698689480628000,4.6236279296875,1.3717739582061768,0.5070466995239258,0.6862519383430481
1772698689490584000,4.633583984375,1.3774182796478271,0.5182546377182007,0.5196006298065186
1772698689500541200,4.643541259765625,1.2506600618362427,0.5033749938011169,0.31816670298576355
1772698689510498000,4.653498046875,1.024472713470459,0.42053020000457764,0.13356943428516388
1772698689520455200,4.663455078125,0.8089673519134521,0.24916934967041016,0.028338128700852394
1772698689530412300,4.673412353515625,0.6459919810295105,0.041275009512901306,0.042225711047649384
1772698689540369200,4.683369140625,0.4854063391685486,-0.15746551752090454,0.1619146764278412
1772698689550326000,4.693325927734375,0.2802140414714813,-0.3058307468891144,0.2907102108001709
1772698689560283100,4.703283203125,0.02778686210513115,-0.37858909368515015,0.36039185523986816
1772698689570240000,4.713239990234375,-0.2251330018043518,-0.3776356875896454,0.3501245677471161
1772698689580197000,4.723197021484375,-0.4297570586204529,-0.3510293960571289,0.28743159770965576
1772698689590154200,4.733154296875,-0.5563030242919922,-0.3126673400402069,0.19195327162742615
1772698689600111000,4.743111083984375,-0.5951099991798401,-0.2744547128677368,0.0994902104139328
1772698689610068000,4.75306787109375,-0.5628905296325684,-0.2288888394832611,0.019374065101146698
1772698689620025000,4.763025146484375,-0.47809335589408875,-0.18264730274677277,-0.035353560000658035
1772698689629982000,4.77298193359375,-0.3194720149040222,-0.14657266438007355,-0.07712071388959885
1772698689639939000,4.78293896484375,-0.1211077943444252,-0.12485778331756592,-0.08092288672924042
1772698689649896200,4.792896240234375,0.07829958200454712,-0.10047920048236847,-0.03374365344643593
1772698689659853300,4.802853271484375,0.24622997641563416,-0.07004459202289581,0.025200529024004936
1772698689669809200,4.81280908203125,0.3572142720222473,-0.02243286743760109,0.04850824922323227
1772698689679766300,4.822766357421875,0.409254252910614,0.030080949887633324,0.027240745723247528
1772698689689723100,4.83272314453125,0.41005852818489075,0.0817904844880104,-0.012583901174366474
1772698689699680000,4.842679931640625,0.3717919588088989,0.10790329426527023,-0.048189856112003326
1772698689709637000,4.85263720703125,0.3307907283306122,0.11641582101583481,-0.06130725145339966
1772698689719594000,4.862593994140625,0.28647080063819885,0.11581742763519287,-0.021949637681245804
1772698689729551000,4.872551025390625,0.217935711145401,0.10322599112987518,0.07127831131219864
1772698689739508200,4.88250830078125,0.10449787974357605,0.09898464381694794,0.17779698967933655
1772698689749465000,4.892465087890625,-0.03509756550192833,0.08864225447177887,0.28406113386154175
1772698689759422200,4.902422119140625,-0.16800615191459656,0.0629587396979332,0.33891499042510986
1772698689769379000,4.912379150390625,-0.2652685046195984,0.03901372477412224,0.3040403723716736
1772698689779336200,4.922336181640625,-0.26470494270324707,0.05162884294986725,0.25786226987838745
1772698689789293300,4.932293212890625,-0.1626208871603012,0.09210143983364105,0.3150954842567444
1772698689799250200,4.942250244140625,-0.0030623499769717455,0.1950451284646988,0.5188107490539551
1772698689809207300,4.952207275390625,0.15733905136585236,0.3425235152244568,0.801480233669281
1772698689819164200,4.9621640625,0.2766938805580139,0.5067375302314758,1.0173976421356201
1772698689829121000,4.97212109375,0.3147169053554535,0.5706038475036621,1.0338221788406372
1772698689839078100,4.982078125,0.2845214307308197,0.38284194469451904,0.6888126134872437
1772698689849034200,4.9920341796875,0.20839710533618927,-0.14956100285053253,-0.1483912616968155
1772698689858991000,5.0019912109375,0.06210561841726303,-0.7149889469146729,-1.3320724964141846
1772698689868948200,5.0119482421875,-0.24807888269424438,-1.0181331634521484,-2.1846399307250977
1772698689878905300,5.0219052734375,-0.5868088603019714,-1.0136361122131348,-2.194469928741455
1772698689888862200,5.0318623046875,-0.8177557587623596,-0.6281006932258606,-1.3886220455169678
1772698689898819300,5.0418193359375,-0.9001767039299011,-0.20314060151576996,-0.27381086349487305
1772698689908776200,5.051776123046875,-0.9093701839447021,0.19756394624710083,0.7140974998474121
1772698689918733000,5.061733154296875,-0.8182975053787231,0.4804297387599945,1.141789197921753
1772698689928690200,5.071690185546875,-0.627696692943573,0.6003473401069641,1.0035080909729004
1772698689938647300,5.081647216796875,-0.3100508451461792,0.5416496992111206,0.5151065587997437
1772698689948604200,5.091604248046875,0.07830914109945297,0.34433794021606445,-0.1063050776720047
1772698689958561300,5.101561279296875,0.4487966299057007,0.11497879028320312,-0.6873933672904968
1772698689968518100,5.11151806640625,0.6860600709915161,-0.05333138629794121,-1.0774264335632324
1772698689978475300,5.121475341796875,0.7806169986724854,-0.1457604020833969,-1.1675360202789307
1772698689988432100,5.13143212890625,0.8258259892463684,-0.19307944178581238,-0.9908017516136169
1772698689998389200,5.14138916015625,0.8281668424606323,-0.212009996175766,-0.625626802444458
1772698690008346400,5.151346435546875,0.7437385320663452,-0.19531702995300293,-0.2037496417760849
1772698690018303200,5.16130322265625,0.5417824983596802,-0.15026912093162537,0.1333947777748108
1772698690028260400,5.17126025390625,0.25228890776634216,-0.06643440574407578,0.31864026188850403
1772698690038216200,5.18121630859375,-0.0653814747929573,0.029727011919021606,0.36942803859710693
1772698690048173300,5.19117333984375,-0.3692058026790619,0.10449978709220886,0.35659265518188477
1772698690058130200,5.201130126953125,-0.6116152405738831,0.14573964476585388,0.3006872832775116
1772698690068087300,5.21108740234375,-0.760227382183075,0.152027890086174,0.19913721084594727
1772698690078044200,5.221044189453125,-0.8152629137039185,0.10125712305307388,0.0714588537812233
1772698690088001300,5.231001220703125,-0.7451621294021606,0.023957809433341026,-0.038332629948854446
1772698690097958400,5.24095849609375,-0.5925374031066895,-0.07662499696016312,-0.10040964186191559
1772698690107915300,5.250915283203125,-0.39971333742141724,-0.18243718147277832,-0.1125991940498352
1772698690117872000,5.2608720703125,-0.19037295877933502,-0.22452044486999512,-0.08095807582139969
1772698690127829200,5.270829345703125,-0.0007753269746899605,-0.21457833051681519,0.014995355159044266
1772698690137786000,5.2807861328125,0.12152397632598877,-0.125230610370636,0.1412612348794937
1772698690147743200,5.2907431640625,0.15349015593528748,0.03291907534003258,0.25984248518943787
1772698690157700400,5.300700439453125,0.11444616317749023,0.23030084371566772,0.329357385635376
1772698690167657200,5.3106572265625,0.053728751838207245,0.4002922773361206,0.30827048420906067
1772698690177614300,5.3206142578125,0.030850743874907494,0.48953375220298767,0.22339369356632233
1772698690187571200,5.3305712890625,0.05520269274711609,0.49688565731048584,0.10573310405015945
1772698690197528000,5.340528076171875,0.15310239791870117,0.4679003655910492,-0.049405161291360855
1772698690207485200,5.350485107421875,0.30574920773506165,0.3712364137172699,-0.21594062447547913
1772698690217441300,5.360441162109375,0.48702263832092285,0.24615545570850372,-0.3475116789340973
1772698690227398100,5.370398193359375,0.6604394316673279,0.09121459722518921,-0.40507084131240845
1772698690237355300,5.380355224609375,0.7768312692642212,-0.030696924775838852,-0.36378252506256104
1772698690247312400,5.3903125,0.794396698474884,-0.04386173188686371,-0.24697630107402802
1772698690257269200,5.400269287109375,0.6981896758079529,0.007094133645296097,-0.09727643430233002
1772698690267226000,5.41022607421875,0.53298419713974,0.09011445194482803,0.033858951181173325
1772698690277183200,5.420183349609375,0.33754971623420715,0.19337905943393707,0.12126872688531876
1772698690287140000,5.43014013671875,0.15156546235084534,0.3037721514701843,0.1813805252313614
1772698690297097200,5.44009716796875,0.020666087046265602,0.38626834750175476,0.24735181033611298
1772698690307054300,5.450054443359375,-0.03463099151849747,0.4113050103187561,0.3325604200363159
1772698690317011200,5.46001123046875,-0.006520809140056372,0.4067477881908417,0.4157199561595917
1772698690326968300,5.46996826171875,0.0813097134232521,0.3850579559803009,0.4970630407333374
1772698690336925200,5.47992529296875,0.20111390948295593,0.36102691292762756,0.5650789737701416
1772698690346882300,5.48988232421875,0.33158403635025024,0.3504696190357208,0.5590413212776184
1772698690356839200,5.499839111328125,0.46661025285720825,0.3536912500858307,0.4750841557979584
1772698690366796300,5.50979638671875,0.5779961943626404,0.35708943009376526,0.32329514622688293
1772698690376753400,5.51975341796875,0.6721059083938599,0.3494906425476074,0.14288344979286194
1772698690386710300,5.529710205078125,0.7463611960411072,0.3226369321346283,-0.015390885062515736
1772698690396666400,5.539666259765625,0.8052513599395752,0.2845419943332672,-0.10545583069324493
1772698690406623200,5.549623291015625,0.8208140730857849,0.24053166806697845,-0.1250566989183426
1772698690416580000,5.559580078125,0.785060465335846,0.19748324155807495,-0.10478296875953674
1772698690426537200,5.569537109375,0.7044255137443542,0.1658182591199875,-0.0823141485452652
1772698690436494000,5.579494140625,0.5973693132400513,0.14473189413547516,-0.06326769292354584
1772698690446451200,5.589451171875,0.456842303276062,0.12424419075250626,-0.05545078217983246
1772698690456408300,5.599408203125,0.3082491159439087,0.10325821489095688,-0.04725594446063042
1772698690466365400,5.609365478515625,0.1788700819015503,0.10213463008403778,-0.03336755931377411
1772698690476322000,5.619322021484375,0.07277718931436539,0.08936983346939087,0.01538257859647274
1772698690486279200,5.629279052734375,-0.011777910403907299,0.06196111813187599,0.08095892518758774
1772698690496236300,5.639236328125,-0.0925840511918068,0.041986338794231415,0.14884032309055328
1772698690506193200,5.649193115234375,-0.2823880910873413,0.03798440843820572,0.23746313154697418
1772698690516150300,5.659150390625,-0.3369431793689728,-0.22013530135154724,0.4162343442440033
1772698690526107400,5.669107421875,-0.12928292155265808,-0.08231963217258453,0.5704159140586853
1772698690536064300,5.679064208984375,-0.20970980823040009,-0.04782051965594292,-0.0455552339553833
1772698690546021000,5.689021240234375,-0.29300180077552795,-0.0734981894493103,-0.16710643470287323
1772698690555978200,5.698978271484375,-0.3231528401374817,-0.015179472975432873,-0.1560600847005844
1772698690565935000,5.70893505859375,-0.25335511565208435,0.016195228323340416,-0.22642932832241058
1772698690575891200,5.71889111328125,-0.1267031729221344,-0.014707563444972038,-0.26362696290016174
1772698690585848300,5.728848388671875,0.04240703210234642,-0.026653971523046494,-0.2482309490442276
1772698690595805200,5.73880517578125,0.1965223103761673,0.0354115255177021,-0.19847556948661804
1772698690605762300,5.74876220703125,0.28322872519493103,0.0933360755443573,-0.14886541664600372
1772698690615719400,5.758719482421875,0.26112639904022217,0.1712324619293213,-0.09540028870105743
1772698690625676000,5.768676025390625,0.15401247143745422,0.2498263567686081,-0.04412565007805824
1772698690635633200,5.778633056640625,-0.017972365021705627,0.2826002836227417,-0.012340674176812172
1772698690645590300,5.78859033203125,-0.2117713987827301,0.2440430372953415,-0.0477849505841732
1772698690655547100,5.798547119140625,-0.37739020586013794,0.31431934237480164,-0.1991918683052063
1772698690665504300,5.808504150390625,-0.4481024444103241,0.4597287178039551,-0.15961302816867828
1772698690675461400,5.81846142578125,-0.4590473175048828,0.3450138568878174,-0.19240905344486237
1772698690685418200,5.828418212890625,-0.44623032212257385,0.22397425770759583,-0.1097613126039505
1772698690695375000,5.838375,-0.38273492455482483,0.08601798117160797,-0.024731460958719254
1772698690705332200,5.848332275390625,-0.21888847649097443,-0.040029168128967285,-0.011190883815288544
1772698690715289000,5.8582890625,0.19220829010009766,0.1928219199180603,0.03372794762253761
1772698690725246200,5.86824609375,0.3605818450450897,-0.06336165964603424,0.05766443908214569
1772698690735203300,5.878203369140625,0.3689689040184021,-0.06809516251087189,-0.0033425246365368366
1772698690745160400,5.888160400390625,0.28398770093917847,0.08795276284217834,-0.08891788125038147
1772698690755116300,5.8981162109375,0.18267783522605896,0.18088990449905396,-0.1839899867773056
1772698690765073700,5.90807373046875,0.1127549484372139,0.24095483124256134,-0.25237515568733215
1772698690775030500,5.918030517578125,0.06249507516622543,0.262677937746048,-0.32017001509666443
1772698690784987600,5.927987548828125,0.017809631302952766,0.2782433331012726,-0.363013356924057
1772698690794944800,5.93794482421875,-0.027818402275443077,0.2764699459075928,-0.3968782424926758
1772698690804902000,5.94790185546875,-0.07087026536464691,0.25239017605781555,-0.3941546082496643
1772698690814858800,5.957858642578125,-0.11848782002925873,0.22333882749080658,-0.35863059759140015
1772698690824815900,5.96781591796875,-0.1636582314968109,0.20721711218357086,-0.2906222641468048
1772698690834772700,5.977772705078125,-0.22513224184513092,0.1046835407614708,-0.2894810438156128
1772698690844729600,5.9877294921875,-0.3453174829483032,0.06665600091218948,-0.4968864321708679
1772698690854686700,5.997686767578125,-0.3515029847621918,0.1959570050239563,-0.6033501029014587
1772698690864643800,6.007643798828125,-0.3045048415660858,0.16012710332870483,-0.541753888130188
1772698690874600700,6.0176005859375,-0.23040106892585754,0.04653981700539589,-0.46665623784065247
1772698690884557800,6.027557861328125,-0.13944745063781738,0.09799927473068237,-0.4123820960521698
1772698690894514700,6.0375146484375,-0.06909234821796417,0.12057250738143921,-0.35447704792022705
1772698690904471600,6.047471435546875,-0.026215989142656326,0.12173204123973846,-0.3020186126232147
1772698690914428700,6.0574287109375,-0.00901227630674839,0.11449702829122543,-0.3261835277080536
1772698690924384800,6.067384765625,0.01752159744501114,0.11610611528158188,-0.4179307520389557
1772698690934341600,6.077341552734375,0.041983868926763535,0.12047555297613144,-0.5230686068534851
1772698690944298800,6.087298828125,0.054137203842401505,0.11411752551794052,-0.5683034658432007
1772698690954256000,6.097255859375,0.04074471443891525,0.10418233275413513,-0.5142906904220581
1772698690964212700,6.107212646484375,-0.022528260946273804,0.10247498005628586,-0.3844839930534363
1772698690974169900,6.117169921875,-0.09553775191307068,0.10852675139904022,-0.20537306368350983
1772698690984126700,6.127126708984375,-0.15671829879283905,0.11228180676698685,-0.042492546141147614
1772698690994083600,6.13708349609375,-0.230060875415802,0.12217012047767639,0.03247598558664322
1772698691004040700,6.147040771484375,-0.13941645622253418,0.09259757399559021,0.142054945230484
1772698691013997800,6.156997802734375,-0.03500968962907791,0.06247749552130699,0.21566419303417206
1772698691023954700,6.16695458984375,0.013029742985963821,0.03400643914937973,0.23772528767585754
1772698691033911800,6.176911865234375,0.0465986430644989,0.038016095757484436,0.17419087886810303
1772698691043868700,6.18686865234375,0.06569883227348328,0.06359175592660904,0.07117607444524765
1772698691053825500,6.196825439453125,0.07143311202526093,0.07382389903068542,-0.04316825792193413
1772698691063782700,6.20678271484375,0.08068067580461502,0.08809711039066315,-0.12532491981983185
1772698691073739800,6.21673974609375,0.07228635996580124,0.09728288650512695,-0.15994052588939667
1772698691083697000,6.22669677734375,0.034907031804323196,0.11980870366096497,-0.1541079431772232
1772698691093653800,6.23665380859375,-0.01809997856616974,0.13505476713180542,-0.12820303440093994
1772698691103611000,6.24661083984375,-0.05371123552322388,0.1430322676897049,-0.09503442794084549
1772698691113566700,6.256566650390625,-0.05424363538622856,0.14354252815246582,-0.08148173987865448
1772698691123523800,6.26652392578125,-0.030136965215206146,0.14009933173656464,-0.07486618310213089
1772698691133480700,6.276480712890625,-0.006189736537635326,0.11672821640968323,-0.07469218224287033
1772698691143437600,6.2864375,0.031822092831134796,0.08479877561330795,-0.07051314413547516
1772698691153394700,6.296394775390625,0.07016731798648834,0.053291723132133484,-0.07421883195638657
1772698691163351800,6.306351806640625,0.08441390097141266,0.03562591224908829,-0.09291315823793411
1772698691173308700,6.31630859375,0.06384465843439102,0.031604547053575516,-0.12739278376102448
1772698691183265800,6.326265869140625,0.019934192299842834,0.050736695528030396,-0.17944398522377014
1772698691193222700,6.33622265625,-0.031106818467378616,0.05110340192914009,-0.25902265310287476
1772698691203179800,6.3461796875,-0.07522128522396088,0.0541231594979763,-0.3663429915904999
1772698691213136600,6.35613671875,-0.10916678607463837,0.05666675046086311,-0.4799608588218689
1772698691223093800,6.36609375,-0.10758380591869354,0.08964148163795471,-0.4886994957923889
1772698691233051000,6.37605078125,-0.052733831107616425,0.02654905989766121,-0.19136381149291992
1772698691243007700,6.3860078125,0.013998057693243027,-0.010681666433811188,0.07766419649124146
1772698691252964600,6.395964599609375,0.009266925975680351,0.0029683690518140793,0.1265714466571808
1772698691262921700,6.405921630859375,-0.06861055642366409,0.04502953588962555,0.04690510779619217
1772698691272878600,6.415878662109375,-0.15362924337387085,0.06744401901960373,-0.043590158224105835
1772698691282834700,6.425834716796875,-0.17827866971492767,0.06089770793914795,-0.11687822639942169
1772698691292791800,6.435791748046875,-0.15963397920131683,0.06069052219390869,-0.18039639294147491
1772698691302748700,6.445748779296875,-0.1297921985387802,0.05324006453156471,-0.23042014241218567
1772698691312705800,6.455705810546875,-0.09564217180013657,0.055939704179763794,-0.2705042362213135
1772698691322663000,6.465662841796875,-0.056156277656555176,0.0625440776348114,-0.27732008695602417
1772698691332619800,6.475619873046875,-0.006414894945919514,0.06149400398135185,-0.24601492285728455
