time,seconds_elapsed,z,y,x
1772699598047500800,0.106500732421875,0.07951485074162483,0.01835619755955413,-0.004622904281251249
1772699598057458000,0.1164580078125,0.07173369534611701,0.015830172513541765,-0.01752653152758139
1772699598067415000,0.1264150390625,0.08355389699935913,0.01383884799927473,-0.011684234098519663
1772699598077372000,0.136371826171875,0.07083294711410999,0.011713905434287153,-0.018094354585860856
1772699598087329800,0.146329833984375,0.07816226708889007,0.01343298887843266,-0.0054234384043957105
1772699598097287000,0.156286865234375,0.07441898890733718,-0.006666686781006865,0.0056541430293757
1772699598107244000,0.166244140625,0.0759130268573761,-0.00008241301986854523,-0.0058941817382816225
1772699598117201000,0.176200927734375,0.08563713301420212,-0.005078394676255993,0.021187646709370893
1772699598127158000,0.186157958984375,0.09461363567411898,-0.0016331130605889484,0.028484865929279474
1772699598137115000,0.196114990234375,0.05675356835722923,0.01023534818117041,0.024829777487833053
1772699598147071700,0.20607177734375,0.07440905203521252,-0.007334498473396524,-0.0016968053969671018
1772699598157030000,0.21602978515625,0.08069324687123298,-0.0038618447936139997,0.024349051616049836
1772699598166987000,0.225987060546875,0.07365911045074462,0.003328249373566359,0.008995819281740114
1772699598176944000,0.235944091796875,0.07605272758901119,0.017009271896048447,0.0005895542578306049
1772699598186900700,0.245900634765625,0.06976677918732166,0.01149788349685259,-0.030806870002904906
1772699598196857900,0.25585791015625,0.0827840816706419,-0.005968393185385503,-0.013229923462338046
1772699598206815000,0.26581494140625,0.0907224734544754,-0.0033347841456299646,-0.03322016223930986
1772699598216773000,0.275773193359375,0.06735153473913669,-0.011245543570443987,-0.03212322014834499
1772699598226730000,0.28572998046875,0.06468553040027618,-0.007437949714716523,-0.009956272086530224
1772699598236686800,0.295686767578125,0.08638765912055969,-0.007461175326677039,-0.002984092703060014
1772699598246644000,0.30564404296875,0.07935118461251259,0.003742355732945725,-0.0016239947474387007
1772699598256600800,0.315600830078125,0.08307692713737487,0.0004504928470123559,-0.002774450844884268
1772699598266558000,0.325557861328125,0.09473930788040161,-0.001825818054517731,0.007473161450348561
1772699598276515800,0.335515869140625,0.08741349503695964,-0.01447552020130679,0.009540988121039116
1772699598286472700,0.34547265625,0.0818815798729658,0.0032068423504475504,0.012204814773367252
1772699598296429800,0.355429931640625,0.07649988683462143,-0.010007932633464224,-0.0010583670711785088
1772699598306387000,0.365386962890625,0.07860007398426533,-0.005898930978635326,-0.00300944348591438
1772699598316344000,0.375343994140625,0.0769587365180254,0.006461396300140768,0.000673775642295368
1772699598326301000,0.385301025390625,0.06304127032458781,-0.0023954940015217287,-0.012339789097534958
1772699598336258800,0.3952587890625,0.07246727031767368,0.005812809898029081,-0.019664916954387445
1772699598346216000,0.4052158203125,0.08922609741687774,-0.009281554587674327,-0.00794264326726552
1772699598356172800,0.4151728515625,0.09222235662341118,-0.004342440517945215,0.0015258287484786704
1772699598366130000,0.4251298828125,0.08114683585762977,-0.004733695724699646,-0.0013971291868816477
1772699598376087000,0.435087158203125,0.07097440141141415,0.005910498118842951,0.009318462806759634
1772699598386044000,0.4450439453125,0.08264788807034491,0.0020344923691358414,0.020189673764142206
1772699598396001800,0.455001708984375,0.06902969708442687,-0.011801844012644142,0.011804434403596678
1772699598405959000,0.464958984375,0.08324526944160461,-0.00594140471376013,-0.000668225538454135
1772699598415916000,0.474916015625,0.0778559776186943,-0.008373248670296743,0.021830230345670134
1772699598425873000,0.484872802734375,0.0781564218699932,0.004995292103220708,-0.0023625883874075953
1772699598435829800,0.494829833984375,0.07755904049873352,0.00812699142480269,-0.005369043619325384
1772699598445787000,0.504786865234375,0.07681143700182437,0.012051480525312944,-0.01187158249731874
1772699598455745000,0.5147451171875,0.08878186078071594,0.003749548092135228,-0.02009634662461467
1772699598465702000,0.524701904296875,0.06723404583930968,0.0032168705541174855,-0.006018267058965284
1772699598475659000,0.534658935546875,0.07262333766222,-0.004965714382287115,-0.009308009911404224
1772699598485615900,0.544615966796875,0.06663900255560874,0.00695159096987918,0.0026925886683980935
1772699598495572700,0.55457275390625,0.08130465676784515,-0.008021887082513422,0.014178265704226214
1772699598505529900,0.56452978515625,0.07711363481879234,-0.007087748037558048,0.018494448402908165
1772699598515488000,0.574488037109375,0.08279869471788406,-0.00780595191004686,0.013218403129547368
1772699598525444900,0.58444482421875,0.08698679405748844,-0.01115399739604909,0.011210058981820474
1772699598535401700,0.594401611328125,0.06872925283312797,-0.02058466899767518,0.010685646948649081
1772699598545358800,0.60435888671875,0.07995031954944133,-0.00805131410639733,0.015191904292756225
1772699598555316000,0.61431591796875,0.07157119826078415,-0.007161105534713715,0.017497028013528322
1772699598565272800,0.62427294921875,0.062143444702029225,0.0022587067461805415,-0.008067435836602816
1772699598575230000,0.63422998046875,0.08698504049181938,-0.0004211799875600263,-0.017343622983526437
1772699598585187800,0.644187744140625,0.07875614132881165,0.009674266532575712,-0.025817961974698118
1772699598595145000,0.65414501953125,0.08743629139065742,0.013001999882911331,-0.012624233203748007
1772699598605101800,0.664101806640625,0.08908347407579421,0.0007436397078447043,-0.005321652822132455
1772699598615059000,0.674058837890625,0.06035539224147796,0.00865044904332608,-0.008072416259930468
1772699598625016000,0.68401611328125,0.07427168939113617,-0.0067767823922447856,-0.01082837874594261
1772699598634973000,0.693972900390625,0.06394727925360202,0.00007051251952070742,0.013243030680727678
1772699598644930800,0.703930908203125,0.0640969168573618,0.0030658127448288724,0.0009846956218359992
1772699598654888200,0.71388818359375,0.08399871815741061,-0.003778851818433031,-0.007332761461570044
1772699598664845300,0.72384521484375,0.08684183262884616,-0.00931760314858984,-0.0010054569945408729
1772699598674802200,0.73380224609375,0.08429623979926108,0.002593281595944427,0.008526907716158893
1772699598684759000,0.743759033203125,0.08354688273668288,0.004482383278175257,0.010418924587150104
1772699598694716200,0.753716064453125,0.07277239074409007,-0.0035464724012417717,0.00031328603738511445
1772699598704674300,0.76367431640625,0.08474398356676101,-0.0067324591933283955,-0.014508835665730293
1772699598714631400,0.77363134765625,0.08040332401394844,0.015033861903543583,-0.01933350674266694
1772699598724588000,0.783588134765625,0.06693535515367985,0.005650321945850737,-0.018590860265376978
1772699598734545200,0.793545166015625,0.07681260604560375,-0.0029437527011614293,-0.013429002256481908
1772699598744502300,0.803502197265625,0.06873334448635578,-0.008014973284536972,0.004919409288838506
1772699598754459100,0.813459228515625,0.08698796310126782,-0.004554991856659763,0.010076514632446923
1772699598764417300,0.823417236328125,0.06499006630480289,-0.008162779690814205,0.01605475678334478
1772699598774374100,0.8333740234375,0.07711188125312328,0.004165074657043442,0.02292877073867712
1772699598784331300,0.843331298828125,0.06334639075100422,-0.005295987516269088,0.024735315553855615
1772699598794288000,0.8532880859375,0.07830839756131172,-0.002932884247275069,0.01235733388738008
1772699598804245200,0.863245361328125,0.0889320829063654,-0.0035592177183832972,0.019764532270806375
1772699598814202400,0.873202392578125,0.0780085378319025,-0.0177840328279417,-0.001745438873997773
1772699598824160300,0.88316015625,0.06289572437405586,-0.004483091097651049,-0.013340025923441861
1772699598834117000,0.8931171875,0.07471709507107734,0.009792764645977876,-0.024317135807557497
1772699598844074200,0.90307421875,0.08429448623359202,-0.0034280336533440274,-0.026326363587984812
1772699598854031400,0.91303125,0.08848550818264483,0.013646471798908896,-0.015226690195058472
1772699598863988200,0.92298828125,0.07501870836615562,0.008987955635692924,-0.007478593394003109
1772699598873945300,0.9329453125,0.08489420569241046,0.005393351510097273,0.0010184129450586624
1772699598883903200,0.9429033203125,0.06858312236070632,-0.002635860362346284,0.004683099190267967
1772699598893860400,0.9528603515625,0.0708282709389925,-0.007176033675787038,0.00542768646289478
1772699598903817200,0.962817138671875,0.07711363481879234,0.003588306815549731,0.00857118068272539
1772699598913774300,0.9727744140625,0.0712765992283821,-0.0017061097981408238,0.012166769476543413
1772699598923731200,0.982731201171875,0.07037877360582351,-0.018963209842261856,0.009265775350763578
1772699598933688000,0.99268798828125,0.07351940971910953,0.00027383480558637526,0.01641426742825424
1772699598943646200,1.002646240234375,0.05705810426175594,0.0029080694664269683,0.0030986709807039005
1772699598953603300,1.012603271484375,0.07785773118436336,-0.0031572356216376645,-0.0062605285493540575
1772699598963560400,1.022560546875,0.08533902685046195,-0.001107632448337972,-0.008875177160312886
1772699598973517000,1.03251708984375,0.07291969026029109,0.008123561925278045,-0.020058816209377255
1772699598983474200,1.04247412109375,0.07097498593330383,0.01577139609758742,-0.017073400340555236
1772699598993431300,1.052431396484375,0.08279635663032531,0.01158760304034222,-0.023468814165820365
1772699599003389400,1.062389404296875,0.08564122466742992,0.0035687298988224935,-0.011288521912356372
1772699599013346300,1.07234619140625,0.0896814399689436,0.0018095519063062965,-0.0070000497753295345
1772699599023303200,1.08230322265625,0.06977905414700508,-0.011754360742261633,0.003194429251801921
1772699599033260300,1.09226025390625,0.06768471221625805,-0.014954864683467893,-0.005107234324139426
1772699599043217200,1.102217041015625,0.0648415977448225,-0.006642301258421503,0.014491950746299697
1772699599053174300,1.11217431640625,0.07187281155586242,-0.0028875153021654114,0.014653762845043092
1772699599063132200,1.122132080078125,0.08788345063626765,0.009578962065093219,0.016301319989515468
1772699599073089300,1.13208935546875,0.06693301706612109,-0.015269310060655697,-0.010650112127675674
1772699599083046100,1.142046142578125,0.08503858259916305,-0.013714710162952542,0.0052035885335702916
1772699599093003300,1.152003173828125,0.0769587365180254,0.011086078692413865,-0.01812284660305013
1772699599102960400,1.16196044921875,0.0751630852729082,0.002928194372425787,-0.024734810947068035
1772699599112917200,1.171917236328125,0.08504033616483211,0.002510836610035039,-0.010602640273736324
1772699599122875100,1.181875244140625,0.07217208676338195,0.019853907037712632,-0.005052302966240677
1772699599132832300,1.191832275390625,0.08115092751085758,0.016598937529488465,-0.006055462972418172
1772699599142789400,1.201789306640625,0.061847676625847815,-0.0025144350729184224,0.0021537702256056944
1772699599152746200,1.211746337890625,0.07157587443590163,0.0028028874923242252,-0.003301057689252775
1772699599162703400,1.221703369140625,0.07711188125312328,-0.00335159828311298,0.008778207604595809
1772699599172660200,1.23166015625,0.07606324898302555,-0.005853004911099561,0.01859849786584964
1772699599182618000,1.2416181640625,0.06169745450019836,-0.01601688615810126,0.008774444744930951
1772699599192575200,1.2515751953125,0.09416822999417782,0.002048324531666003,0.017150171354215125
1772699599202532400,1.261532470703125,0.07845511255562305,-0.010161972417705691,0.003465881445701234
1772699599212489500,1.271489501953125,0.08129647346138953,0.01720331489711534,-0.0028092247599211984
1772699599222446000,1.281446044921875,0.08279343402087688,0.013217099371738731,-0.017380452429153957
1772699599232403200,1.2914033203125,0.09027414516508579,0.012568120243982411,-0.01346851799118449
1772699599242361300,1.301361328125,0.08833002535998821,0.005646380989672616,-0.01647973616318777
1772699599252318200,1.311318115234375,0.08354279108345508,0.0029536758735543116,0.009306121060883743
1772699599262275300,1.321275390625,0.06453939992785454,-0.0003713083972688764,-0.011644545975525398
1772699599272232200,1.331232177734375,0.07501344766914844,-0.006627797809033654,0.011009081633179449
1772699599282189000,1.34118896484375,0.07561258260607719,-0.0020105954703176394,-0.000885447914886754
1772699599292146200,1.351146240234375,0.08414134149849414,-0.0023137020361609756,0.011855722774483728
1772699599302104300,1.361104248046875,0.07606032637357711,-0.004326092171343043,0.019232651600521056
1772699599312061200,1.371061279296875,0.08189560839831829,-0.015225813412223942,0.022788421553070655
1772699599322018000,1.38101806640625,0.08174597079455852,-0.008685045432671904,0.004448369127430487
1772699599331975200,1.39097509765625,0.07037351290881633,-0.006060989672550931,0.007380317226366605
1772699599341932300,1.400932373046875,0.07950140673816204,0.006667216503969393,-0.0027380963232921203
1772699599351889200,1.41088916015625,0.07740764932930469,0.00800824214965105,0.0022768880027317206
1772699599361847000,1.420846923828125,0.09461597376167774,0.012193227083561941,-0.0062738583883852695
1772699599371804200,1.43080419921875,0.0795025757819414,0.00596041080832947,-0.013677700337523128
1772699599381761300,1.44076123046875,0.08174830888211726,0.0011597416614880784,-0.015286418742372188
1772699599391718100,1.45071826171875,0.0763613551467657,0.006179843978979625,-0.008747400903556262
1772699599401675300,1.46067529296875,0.0633428836196661,0.012106019157567061,-0.004827937892146292
1772699599411632400,1.47063232421875,0.07306874334216118,-0.0020932505187811327,-0.009014114702722871
1772699599421589200,1.48058935546875,0.06887947495877743,-0.010106127744354307,-0.00048907414584246
1772699599431547100,1.490547119140625,0.07232113984525203,0.0028242225412977856,0.007079160018192488
1772699599441504300,1.500504150390625,0.08773264398872851,-0.0027979921214981002,0.024830300360929685
1772699599451461400,1.51046142578125,0.07112228544950484,-0.006375343718193471,0.016166745240858288
1772699599461418200,1.520418212890625,0.07605974185168743,0.017511750658624804,0.005051994722275412
1772699599471375000,1.530375,0.06887655234932899,0.00929783443561755,-0.01136370832370594
1772699599481332200,1.540332275390625,0.06947393372058867,0.007615986862475983,0.0014170380366937024
1772699599491290400,1.550290283203125,0.07575871307849884,0.012356993677373975,-0.008925553357391617
1772699599501247200,1.560247314453125,0.08563479492664337,0.02175131532398518,-0.01636864732139511
1772699599511204400,1.570204345703125,0.07770283288359642,0.019210398669517598,-0.007120522362575866
1772699599521161200,1.5801611328125,0.07770283288359642,0.0063170376596972345,-0.014272454785212175
1772699599531118000,1.5901181640625,0.07231646367013454,-0.0054681246462045235,-0.014784076977113727
1772699599541075200,1.6000751953125,0.08099486016631126,0.003028325712075457,0.010838714051933493
1772699599551033300,1.610033447265625,0.08518412854969501,-0.005283808454708196,0.013454169805423589
1772699599560990200,1.619990234375,0.07770166383981704,-0.015668017921503633,0.02270579162078211
1772699599570947000,1.629947021484375,0.086230422732234,-0.007025217895093374,0.01703092660543043
1772699599580904200,1.639904296875,0.08009411193430423,0.008826065905136056,0.0005105713083088631
1772699599590861300,1.649861328125,0.0793459239155054,-0.011013506646547466,-0.0027303434167435625
1772699599600818200,1.659818115234375,0.07590367450714111,-0.0012109923581127076,0.0009508772630913881
1772699599610776000,1.669776123046875,0.09056757515370845,0.0011248621443519368,-0.009305452628136845
1772699599620733200,1.679733154296875,0.07096504906117916,0.004829338118899613,-0.016916894604591653
1772699599630690300,1.689690185546875,0.06064063892364502,0.01164801429095678,-0.01999549376575742
1772699599640647200,1.699647216796875,0.08099193755686282,-0.010108543463726527,-0.014241988865000893
1772699599650604300,1.709604248046875,0.09296353037953377,0.005265217918669804,-0.022262397518125362
1772699599660561200,1.71956103515625,0.06393383525013924,0.006735285904654302,0.0037747065079223826
1772699599670519000,1.72951904296875,0.06827449480295181,-0.0015978134183445944,0.00022722945968271232
1772699599680476000,1.739475830078125,0.079646952688694,-0.0029046308337477966,-0.00508651176734129
1772699599690433000,1.74943310546875,0.0878770208954811,-0.00889336812084075,0.0182667234695924
1772699599700390100,1.75939013671875,0.06812485719919205,-0.00037017131953034546,0.0120084256932314
1772699599710347000,1.769346923828125,0.06483224539458751,0.00044711357983760535,0.010195906653348356
1772699599720304000,1.77930419921875,0.07246376318633556,-0.010991495744138956,0.012626386344927595
1772699599730262000,1.789261962890625,0.07814999212920665,-0.0029649370530853048,0.015246713494713184
1772699599740219100,1.79921923828125,0.07051788981556892,0.0015092446523252874,0.006121304454220808
1772699599750176000,1.809176025390625,0.05869710364043712,-0.0023905483983457086,-0.015499312574381474
1772699599760133000,1.819133056640625,0.0627373189419508,0.0034287688722833987,-0.009419973823564942
1772699599770090000,1.829090087890625,0.07141571543812751,-0.0009806496343808249,-0.009513840390031692
1772699599780046800,1.839046875,0.07081774954497813,-0.0033442095611011607,-0.030697368046711197
1772699599790004000,1.84900390625,0.056153848898410796,0.003210070920572616,-0.000906950785574736
1772699599799962000,1.858962158203125,0.0643839171051979,0.01074539376227185,0.00848782123971905
1772699599809919200,1.868919189453125,0.07366261758208274,-0.0037421959027415137,0.010053749103145673
1772699599819875800,1.878875732421875,0.06707797849476337,-0.00469272896007169,0.00027930956090276596
1772699599829833000,1.8888330078125,0.06423486402332783,-0.010756257649580948,0.019537744627473874
1772699599839790000,1.8987900390625,0.07156710660755634,0.0020055859350599347,0.018988109104789326
1772699599849747000,1.908746826171875,0.06273790346384048,-0.005382387158088386,0.017016354657383635
1772699599859705000,1.918705078125,0.073063482645154,-0.005762043258594349,-0.019367833703954236
1772699599869662000,1.928661865234375,0.06992050844430923,-0.0043631134132156146,-0.008696456167608266
1772699599879619000,1.938619140625,0.0775508571922779,-0.0003436714716721326,-0.0015948594136774772
1772699599889576000,1.948575927734375,0.07246317866444588,-0.018082495184708385,-0.01724004844462033
1772699599899533000,1.958532958984375,0.07081716502308845,-0.011163381712324916,0.004154147408474819
1772699599909490200,1.968490234375,0.06498188299834728,0.0049017229350982235,-0.014132143273868131
1772699599919448000,1.978447998046875,0.0723141255825758,0.0075801666304236275,0.010958735118852928
1772699599929405000,1.988405029296875,0.09236556448638439,0.0030402947110822424,0.006468723373359534
1772699599939362000,1.998362060546875,0.07470891176462173,0.000928969679493457,-0.006746074443438555
1772699599949319200,2.008319091796875,0.06498305204212665,0.01004478947855532,0.0008487143673817627
1772699599959276000,2.018276123046875,0.06199029996693134,-0.004331846058694646,0.007657564977635047
1772699599969233200,2.028233154296875,0.07620587232410907,-0.01076905776564963,0.010695387457951438
1772699599979191000,2.03819091796875,0.07545768430531025,-0.006446212430740706,-0.014097419020358938
1772699599989148200,2.048148193359375,0.07111760927438736,-0.006062277447339147,0.0013370201865996931
1772699599999105000,2.05810498046875,0.06169044023752212,0.0069642997544026,-0.015369147997716208
1772699600009062100,2.068062255859375,0.07441080560088158,0.0111297762702452,0.00479168212278746
1772699600019019000,2.07801904296875,0.08413666532337664,0.010305888100154698,-0.0010415746249374932
1772699600028975900,2.087975830078125,0.0678261665135622,0.009478090939926914,-0.02839858958504628
1772699600038934000,2.09793408203125,0.06887421426177025,0.0018056931485189124,-0.019503529547329524
1772699600048891100,2.10789111328125,0.08593348561227321,-0.005131380672240629,-0.005033993274703971
1772699600058848300,2.11784814453125,0.08578443253040313,0.008147029565833509,0.0037171368100098333
1772699600068804900,2.127804931640625,0.07067045002877712,0.006382810072018764,0.009581360659800702
1772699600078762000,2.137761962890625,0.07590718163847923,0.01329113728890661,0.01183676234568702
1772699600088719000,2.147718994140625,0.05959609830677509,0.0015381510864011943,0.022229292116255964
1772699600098676000,2.157676025390625,0.07470949628651141,-0.0053841498569119715,0.010618413231603336
1772699600108634000,2.167634033203125,0.08892506864368915,0.0013160236351657658,0.017252862260420807
1772699600118591000,2.177591064453125,0.06977087084054946,-0.01817516017053276,-0.0023611242285725893
1772699600128548000,2.187548095703125,0.07530746217966079,-0.010051315117464401,-0.004925198567163897
1772699600138505000,2.1975048828125,0.07096797167062759,-0.007442735487688332,-0.007189654063296621
1772699600148462000,2.207462158203125,0.08263912024199963,0.007692066039680503,0.005848688924763701
1772699600158419200,2.217419189453125,0.06902209829986095,-0.0024318211236502973,-0.008558368008569232
1772699600168376800,2.227376953125,0.07874854254424571,0.005886592086870223,-0.006005230622523231
1772699600178334000,2.237333984375,0.0709673871487379,-0.0065586278632283205,0.009066745076503138
1772699600188291000,2.247291015625,0.08832476466298103,0.001176108274399303,0.01215866494354559
1772699600198248200,2.257248291015625,0.0748579648464918,-0.000007169526303187012,-0.012831024946889374
1772699600208205000,2.267205078125,0.050317982351779936,-0.004569974796660244,0.021429892216739244
1772699600218162200,2.277162109375,0.058548050558567044,0.0005211560635827482,0.015133872228895779
1772699600228120000,2.2871201171875,0.07051964338123798,-0.004386923547065816,0.018331935334554874
1772699600238077000,2.297076904296875,0.07590659711658954,-0.0045933967714430765,0.013590300615283194
1772699600248034000,2.307033935546875,0.08578267896473407,0.0010599984809057787,0.007909200509500806
1772699600257991200,2.3169912109375,0.07560732190907,-0.0035725475574145092,-0.00907055816851789
1772699600267948000,2.326947998046875,0.060493339407443995,0.001136794610740617,-0.012526135132624768
1772699600277905000,2.33690478515625,0.07635550992786884,-0.002294485879037529,-0.00707072840409819
1772699600287863000,2.346863037109375,0.08219196099638938,0.00021728231275919824,-0.018701583780988584
1772699600297820200,2.356820068359375,0.0724661012738943,0.0005600450355559587,-0.0164676815408573
1772699600307777000,2.366777099609375,0.09176935215890407,0.009076245840499177,-0.01809364790802938
1772699600317734000,2.37673388671875,0.07545885334908962,0.002868664471223019,-0.013621803148533217
1772699600327691000,2.38669091796875,0.07396189278960227,-0.0025120284867007282,-0.009560364108366774
1772699600337648000,2.396648193359375,0.058847910287976264,-0.008569565826840698,0.016628524383576586
1772699600347605000,2.40660498046875,0.07964812173247336,-0.020107288143737242,0.024511407137487548
1772699600357563100,2.416563232421875,0.07336334237456321,-0.010224712622724473,0.027621109256392808
1772699600367520000,2.42652001953125,0.08383855915963649,-0.0025325598180759696,0.013491931974457111
1772699600377476900,2.436476806640625,0.08323883970081805,-0.0013838829732965678,0.012523388336400966
1772699600387434000,2.44643408203125,0.07919862439930439,-0.006853952981415204,0.009912171508255414
1772699600397391000,2.45639111328125,0.07396189278960227,0.00443261671916116,0.005119663405805477
1772699600407348200,2.46634814453125,0.07261573887765407,0.002827368913032114,-0.003251966983673628
1772699600417305900,2.476305908203125,0.06618190643787383,0.0054693393557565285,-0.003936522602420882
1772699600427263000,2.486262939453125,0.07291676765084266,-0.0031795113855274393,-0.0080023329986725
1772699600437220000,2.49622021484375,0.06498655917346477,-0.008624634182057342,-0.011441627831547521
1772699600447177000,2.506177001953125,0.07291735217273235,0.009102695456007495,-0.002920915819090442
1772699600457134000,2.516134033203125,0.07067337263822555,0.014108522652974352,-0.014162529278977308
1772699600467091200,2.52609130859375,0.0862350989073515,-0.011927292456640861,0.0005236083155730739
1772699600477049000,2.536049072265625,0.07680734534859657,-0.000927079116506502,0.004138124430502648
1772699600487006000,2.546005859375,0.07366495566964149,0.007956543928454629,0.010422005885158432
1772699600496963000,2.555963134765625,0.06708148562610149,-0.00472291860235855,0.020277196783968245
1772699600506920200,2.565920166015625,0.07590951972603797,-0.003582479862961918,0.006529965741035993
1772699600516877000,2.575876953125,0.08249415881335735,-0.009036776913213543,0.0026299169620382598
1772699600526834000,2.585833984375,0.06648176616728306,0.006301575229084119,-0.007539569758553989
1772699600536792000,2.5957919921875,0.07381400875151158,0.015779081647121346,-0.00001834222839970607
1772699600546749200,2.605749267578125,0.05750467898547649,-0.001244520168378949,0.002465823857951909
1772699600556706000,2.6157060546875,0.0748626410216093,0.006331856202916241,-0.005272159116109833
1772699600566663000,2.625662841796875,0.08892916029691696,-0.006336806372669525,-0.007186738303714082
1772699600576620000,2.6356201171875,0.07501169410347938,-0.006374576533213257,-0.011393791793071432
1772699600586577000,2.645576904296875,0.0609463438719511,0.00012249386850744486,0.015612691554671617
1772699600596534000,2.655533935546875,0.055260114929080006,0.005066567241144366,-0.003989106168784201
1772699600606492200,2.6654921875,0.05585866534411907,0.0038769555977778507,0.01893107940463815
1772699600616449000,2.675448974609375,0.0732160428583622,0.00015889405587222427,0.019974914485320912
1772699600626406000,2.685406005859375,0.06917524303495884,-0.002041862824838608,0.010205432533519342
1772699600636363000,2.695363037109375,0.07141980709135531,-0.014353035465953871,0.002926553829543991
1772699600646320000,2.705320068359375,0.06857610809803008,-0.001839947044569999,-0.000659453143531573
1772699600656276700,2.71527685546875,0.07530980026721953,0.0034891116242390125,0.011451355782762402
1772699600666234600,2.725234619140625,0.07845160542428493,-0.001196219480666332,0.005107625908139743
1772699600676191500,2.73519140625,0.0715688601732254,0.015982705327286385,-0.0011588528913882327
1772699600686148600,2.745148681640625,0.07321545833647251,0.0020012020208872855,0.0008618187316606053
1772699600696105700,2.755105712890625,0.07351531806588173,-0.0019003993943799286,-0.006495273453567642
1772699600706062600,2.7650625,0.07680734534859657,0.01636306924726814,-0.008701651220067287
1772699600716019700,2.775019775390625,0.07486147197782993,-0.0021959071756573393,0.012815380994830048
1772699600725977600,2.7849775390625,0.07560849095284938,-0.0019620481874328107,-0.0019330978000507456
1772699600735934700,2.794934814453125,0.07156827565133571,-0.01025972913717851,0.00727821940438298
1772699600745891600,2.8048916015625,0.06737842274606227,-0.009907540998910553,0.012575798943650442
1772699600755848700,2.8148486328125,0.08294131805896758,-0.005987846804526634,0.006908081763359951
1772699600765805800,2.824805908203125,0.07935001556873321,-0.005141929465718567,0.027381425598869098
1772699600775762400,2.834762451171875,0.07022270626127719,-0.0029300621025264264,0.00021718241888156624
1772699600785719600,2.844719482421875,0.058252282482385634,-0.0006090946419397368,-0.0004195217491913354
1772699600795677700,2.854677734375,0.07067220359444618,0.002154954110761173,-0.0006734588359977351
1772699600805634800,2.864634765625,0.07441372821033,-0.0040112221024697645,-0.015196116960281504
1772699600815591700,2.874591796875,0.07516250075101852,-0.00372348663569428,0.004363604891093564
1772699600825548500,2.884548583984375,0.07276888361275195,-0.004895539789483882,0.0023630199289589654
1772699600835505700,2.894505615234375,0.06483867513537407,-0.011880717935133725,0.005713726017039153
1772699600845462500,2.904462646484375,0.06394084951281548,-0.004979217751254327,-0.0008122473938245093
1772699600855420700,2.914420654296875,0.08623802151679992,0.0037266558403149246,-0.003546511217148509
1772699600865377800,2.924377685546875,0.06917933468818664,-0.0027717708348529413,0.00030665365473250855
1772699600875334700,2.934334716796875,0.07411796013414859,-0.012623636123770847,0.003608927766003762
1772699600885291500,2.94429150390625,0.06783318077623844,0.0025820523824542758,0.014080052327027078
1772699600895248600,2.95424853515625,0.05885550907254219,0.0021388158267131073,0.010949044841900468
1772699600905205800,2.964205810546875,0.08070259922146797,0.004022962772613391,0.00016180296558886766
1772699600915163600,2.97416357421875,0.06259703368842602,0.004991698206914589,-0.0057188976657897
1772699600925120500,2.98412060546875,0.06708616180121899,0.0028190075100632383,0.008257005875240428
1772699600935077600,2.99407763671875,0.07501695480048656,0.011600220493320375,-0.009018502041828469
1772699600945034800,3.00403466796875,0.08459376144111155,0.015240901383501477,-0.014535878936282824
1772699600954991600,3.01399169921875,0.07426935130357742,0.008785437067225574,-0.018689325945969903
1772699600964948700,3.02394873046875,0.08489303664863108,0.008587832135893404,-0.009478064111285493
1772699600974906600,3.03390673828125,0.07875847941637039,0.002076947837951593,-0.004259724391510827
1772699600984863700,3.04386376953125,0.06948094798326492,0.001294108630879782,0.004691208860665211
1772699600994820600,3.053820556640625,0.07187456512153148,-0.0027368593516759574,-0.00612104073438386
1772699601004777700,3.06377783203125,0.06080196696519851,0.00042183300810866054,-0.00908502051871037
1772699601014734800,3.07373486328125,0.0751677614480257,-0.008743273859354667,0.019668307638005353
1772699601024691500,3.08369140625,0.08354688273668288,-0.00856936489744112,0.026189937092247418
1772699601034648600,3.093648681640625,0.07935702983140945,0.008682880875049159,0.01970641572526656
1772699601044606700,3.103606689453125,0.07726151885688304,0.007701454922533594,0.009642540237039792
1772699601054563800,3.113563720703125,0.08279811019599437,-0.009100069674081168,0.018471544734644702
1772699601064520700,3.123520751953125,0.076213471108675,0.016737313953717237,-0.012384107729874085
1772699601074477600,3.1334775390625,0.0652899260342121,0.007419245014246552,-0.001980466335179517
1772699601084434700,3.1434345703125,0.09057985011339187,0.0052633958543417975,-0.024678347502497488
1772699601094391600,3.1533916015625,0.1009048447728157,0.008159784016129561,-0.0017672117435664403
1772699601104349700,3.163349609375,0.08130231868028641,0.013751005319040268,-0.0031542981708131265
1772699601114306800,3.173306884765625,0.0787578948944807,0.0018692553374450652,-0.006895547079594689
1772699601124263700,3.183263671875,0.08998013065457343,-0.0001638716250890866,0.0037685136583313576
1772699601134220500,3.193220458984375,0.06708616180121899,0.009134921791753731,0.011935011113859945
1772699601144177700,3.203177734375,0.07681202152371407,-0.004274759276327676,0.016423510180634912
1772699601154134800,3.213134765625,0.07606324898302555,-0.009426790010952391,0.014513373701885575
1772699601164092700,3.2230927734375,0.07097557045519351,0.008661687389970757,0.0167036708373751
1772699601174049500,3.233049560546875,0.07546469856798649,-0.006645064037665725,0.008975150953046978
1772699601184006700,3.243006591796875,0.06603694500923156,0.013879339839867316,0.0029943041406426344
1772699601193963800,3.2529638671875,0.07471592602729797,0.0030710643086815253,0.005920117043025675
1772699601203920600,3.262920654296875,0.056311669808626175,-0.0025835410866420715,-0.023150569396349602
1772699601213877800,3.272877685546875,0.07262275314033032,0.021011292345332912,-0.008331164235883625
1772699601223835000,3.2828349609375,0.08160042484402656,0.0003658833034802228,-0.023795475137187168
1772699601233792800,3.292792724609375,0.08668810337185859,0.0039637753647053615,-0.009647561188740656
1772699601243749600,3.30274951171875,0.08743629139065742,0.010419052451313473,0.003756065168711939
1772699601253706800,3.312706787109375,0.07666296844184398,-0.009154475875594653,0.002136761437766836
1772699601263663900,3.322663818359375,0.09851005859076976,-0.00451101115103811,-0.0037958777309366268
1772699601273620500,3.332620361328125,0.0678343498200178,0.0010890693117631598,0.01739357220563106
1772699601283577600,3.34257763671875,0.0830973854035139,0.002821907286625355,0.022560165755148045
1772699601293535700,3.35253564453125,0.08249766594469547,-0.008884134501614608,0.015750578213488915
1772699601303492600,3.36249267578125,0.07920563866198062,-0.001929885783768259,-0.0037776074261288155
1772699601313449700,3.37244970703125,0.08070143017768859,-0.009814629417913966,0.010649834708106936
1772699601323406600,3.382406494140625,0.07890636345446109,-0.008537924012984149,-0.011541229448234661
1772699601333363700,3.39236376953125,0.0736690473228693,-0.0016732395750004797,-0.0023928276912221916
1772699601343320600,3.402320556640625,0.07950432934761047,-0.0052167117349803446,-0.003544007591163972
1772699601353278700,3.41227880859375,0.07022796695828437,0.009800135101680643,-0.019172507494676392
1772699601363235800,3.42223583984375,0.07262216861844062,0.0062456529239192605,-0.013534064357931492
1772699601373192400,3.4321923828125,0.06469196014106274,-0.0011445577920880167,0.00864120400765678
1772699601383149600,3.442149658203125,0.0703793581277132,-0.00788716392009519,0.002755280353533453
1772699601393106700,3.452106689453125,0.08145254080593585,-0.013932042708061634,0.012139964809652883
1772699601403063800,3.462063720703125,0.06903261969387531,-0.00750866316363681,0.01075180295346072
1772699601413020700,3.472020751953125,0.08175064696967602,0.0037073483516462144,0.020955856380646582
1772699601422978600,3.481978515625,0.06648761138617992,0.0010700129848439245,-0.00042303401792887597
1772699601432935700,3.491935791015625,0.05705927330553531,0.003912899127416313,0.01758251091496204
1772699601442892500,3.501892578125,0.07965455147325992,-0.0015598514615558087,0.01004369350001216
1772699601452849700,3.511849609375,0.08459317691922187,-0.0042650644327979536,0.004994120776152703
1772699601462806800,3.521806884765625,0.08818447940945624,0.002726141594839282,-0.000581197421438992
1772699601472764000,3.531763916015625,0.08429390171170234,0.00397807788469363,-0.01718650760949822
1772699601482721500,3.541721435546875,0.08683774097561836,-0.0026214802105445413,-0.013741675801691599
1772699601492678700,3.5516787109375,0.09506780918240547,-0.007914312221924773,-0.01745661380474921
1772699601502635800,3.5616357421875,0.07501637027859688,0.006313315899227745,0.007762801750664948
1772699601512592600,3.571592529296875,0.07022796695828437,-0.001212293832632713,0.007687811131315538
1772699601522549500,3.581549560546875,0.07591419590115547,0.004068984738271683,0.022081465160381047
1772699601532506600,3.591506591796875,0.0805529616177082,-0.013705960600916296,0.018128782011847942
1772699601542464800,3.60146484375,0.08534194945991039,-0.004698921238840558,0.019338310781947803
1772699601552421600,3.611421630859375,0.06633680473864079,0.0037647045620717106,0.004561797769248369
1772699601562378800,3.621378662109375,0.08204875313341617,-0.001482630640035495,0.004712357821615296
1772699601572335600,3.631335693359375,0.06663666446805,-0.005012814060179517,0.0009889128559385425
1772699601582292500,3.64129248046875,0.07576572734117508,-0.001511669504852034,0.0065895453037664985
1772699601592249600,3.65124951171875,0.08444470835924148,-0.0068689404879929495,-0.0026952281500562092
1772699601602206700,3.661206787109375,0.05810907461941242,0.001615919897193089,-0.021870439058472402
1772699601612164600,3.67116455078125,0.07786240735948086,0.0016535393606871365,-0.012584642120520583
1772699601622121500,3.68112158203125,0.07292436643540859,0.001380782267334871,-0.0025016760560451073
1772699601632078600,3.69107861328125,0.08265139520168303,-0.0004249108811840415,0.009697380263393278
1772699601642035700,3.70103564453125,0.07891103962957859,0.011767169991484843,0.0018529224030411568
1772699601651992600,3.71099267578125,0.0757692344725132,0.0011221632971893996,0.013407005053805187
1772699601661950200,3.7209501953125,0.07891103962957859,-0.0025083843580447135,-0.003807472270607832
1772699601671908000,3.730908203125,0.09043371964097023,-0.012284001506399363,0.006810587051257607
1772699601681865200,3.740865234375,0.07262684479355812,-0.002256240794458426,0.031582220023265106
1772699601691822000,3.750822021484375,0.0705313338190317,0.008257426571170798,0.004601049213291844
1772699601701779200,3.760779296875,0.07412263630926609,-0.00300495396964252,0.0035385322650254235
1772699601711736300,3.770736328125,0.07711597290635108,0.003378974913805723,0.0030601267853140597
1772699601721693200,3.780693115234375,0.08354980534613132,-0.0022156667554751037,-0.0027282359413366066
1772699601731650000,3.790650146484375,0.06274959390163422,0.0052751410910626875,-0.01438159940673504
1772699601741608200,3.800608154296875,0.07008066744208336,0.007350591091671958,-0.003382024245773209
1772699601751565300,3.8105654296875,0.0825011730760336,0.007082697403104975,-0.009883644100092352
1772699601761522200,3.820522216796875,0.08818740201890468,-0.002433707120059989,-0.00620915512596548
1772699601771479000,3.83047900390625,0.07950783647894859,0.006562002563825808,0.00720189077789546
1772699601781436200,3.840436279296875,0.07397182966172695,-0.0073883521190611645,0.01559574498644797
1772699601791393300,3.850393310546875,0.06050386080145836,-0.007833342240471393,0.016115471711347345
1772699601801351200,3.86035107421875,0.07337211020290851,-0.003231141108064912,0.003466518483229447
1772699601811308000,3.87030810546875,0.05885667811632156,0.004320799508295022,0.004135986130699166
1772699601821265200,3.88026513671875,0.06693710871934891,0.00019388773743994533,0.010930557053850497
1772699601831222000,3.890221923828125,0.060651160317659374,-0.007165959806344472,0.007791664231434697
1772699601841179100,3.90017919921875,0.0784574506431818,-0.001313854510965757,-0.004167696443214663
1772699601851136300,3.91013623046875,0.062297173959016794,0.017171472153859214,0.004438176526979077
1772699601861094100,3.92009423828125,0.07830839756131172,0.008121447600005193,-0.00332524970312661
1772699601871051000,3.930051025390625,0.09057985011339187,0.012192414232809095,-0.019434980656031983
1772699601881008000,3.940008056640625,0.07815992900133133,-0.003005753120663576,-0.013692692410678137
1772699601890965200,3.94996533203125,0.06529109507799148,0.012417482559802009,0.00390628215696197
1772699601900922000,3.959922119140625,0.05751052420437336,-0.0016892956606578081,-0.006818169281980954
1772699601910879200,3.969879150390625,0.07516659240424632,-0.011559299394465051,0.00023202379498688967
1772699601920836000,3.979836181640625,0.06499181987047195,-0.008712659525382332,0.015949175233731513
1772699601930794200,3.989794189453125,0.06633914282619953,0.0011156193919712677,0.004367126863807789
1772699601940751000,3.999751220703125,0.0729237819135189,0.010631160832033491,0.018954467130091506
1772699601950708200,4.009708251953125,0.07023030504584311,-0.0068627025434514505,0.0052109127526782685
1772699601960665300,4.019665283203125,0.08055529970526695,0.003597312105912715,0.008431874389201403
1772699601970622000,4.0296220703125,0.06439443849921227,-0.001276659739157185,-0.0028556303180695976
1772699601980579000,4.0395791015625,0.07651566892564296,0.004066381789231673,0.002848896329072886
1772699601990537200,4.049537109375,0.0828010328054428,-0.00510662525689695,0.0003793980888905935
1772699602000494300,4.059494384765625,0.06574234597682953,-0.0007644039346603676,-0.0026206079942872745
1772699602010451200,4.069451171875,0.07337444829046726,0.014094498694199136,-0.0006486023851321078
1772699602020408000,4.079407958984375,0.07995908737778663,0.003814694883371703,-0.009685577944456599
1772699602030365200,4.089365234375,0.08489771282374858,0.005866873606247827,0.01251923731766874
1772699602040322000,4.099322021484375,0.07921206840276718,0.009260657930118031,0.013503339284460526
1772699602050280200,4.1092802734375,0.07472294028997421,0.0037671157148666677,0.017496397825866004
1772699602060237000,4.119237060546875,0.05931026710271835,0.00012205547709017991,0.014686083937267539
1772699602070194200,4.129194091796875,0.05497019207179546,-0.009812391795055008,0.006462520248969667
1772699602080151000,4.139151123046875,0.07576981899440288,-0.004504471812397241,0.006571896624288638
1772699602090108200,4.149108154296875,0.07786416092514992,-0.001759488519770093,0.00578784042437619
1772699602100065300,4.159065185546875,0.07083119354844093,0.0036348585041705516,0.007251461544909398
1772699602110022100,4.169022216796875,0.08759118969142436,0.018021079287095926,-0.006543837861117208
1772699602119980000,4.17897998046875,0.07232756958603859,0.008263559484435246,-0.0034935469124058724
1772699602129937200,4.188937255859375,0.08609364461004733,-0.002214972635731101,-0.012197738861897959
1772699602139894300,4.198894287109375,0.07726561051011085,-0.0036566228114068506,-0.006198114854609593
1772699602149851100,4.20885107421875,0.07262626027166844,-0.0029951266953721642,-0.010998553389299195
1772699602159808300,4.218808349609375,0.07651625344753266,-0.007519577283295802,-0.0039812094150518534
1772699602169765000,4.22876513671875,0.07965805860459804,0.00043096159605775025,0.01582877057432197
1772699602179723300,4.23872314453125,0.07217559389472007,-0.00458415858563967,0.013521772273583336
1772699602189680000,4.24868017578125,0.07441957342922687,0.00116871498581022,0.019732262552576138
1772699602199637200,4.25863720703125,0.07277355978786945,-0.004935625204700045,0.012398259552812669
1772699602209594400,4.268594482421875,0.07082885546088219,0.009500590466102585,0.026046541999606414
1772699602219551000,4.278551025390625,0.07905950818955898,-0.00903484525103122,0.001854246710447478
1772699602229508000,4.288508056640625,0.06783610338568687,0.006730399666982702,-0.0011498675798007753
1772699602239465200,4.29846533203125,0.06604103666245938,0.011284738503093831,0.011925517199729802
1772699602249423400,4.30842333984375,0.0856423937112093,0.004752368459128775,0.00925233876798884
1772699602259380200,4.318380126953125,0.07861001085639,0.0016944010940380394,-0.014356947881024098
1772699602269337000,4.328337158203125,0.07875964846014977,0.010234462265181354,-0.009657209224853431
1772699602279294200,4.338294189453125,0.06633914282619953,0.002914937598630786,-0.009615672779711894
1772699602289251000,4.3482509765625,0.07172492751777172,-0.0009416373648215084,-0.010613072619494051
1772699602299208200,4.358208251953125,0.08100245895087718,0.00984701101728715,0.0032057886127440723
1772699602309166000,4.368166015625,0.07322071903347968,0.003355109981028363,0.014614135229197562
1772699602319123200,4.378123291015625,0.06633738926053047,0.0012292906332062557,-0.00048207700783095786
1772699602329080000,4.388080078125,0.08204875313341617,-0.007346325908508151,0.017673418910184407
1772699602339037200,4.398037109375,0.07277180622220039,-0.006218815149343572,0.024927401776565238
1772699602348994300,4.407994384765625,0.07875614132881165,0.00299108070791699,0.0062650437526230235
1772699602358951200,4.417951171875,0.09087561818957328,0.001440312168537639,-0.0075936620078806295
1772699602368908300,4.427908203125,0.08309387827217578,-0.004537533831782639,0.0044338668196869544
1772699602378866200,4.4378662109375,0.07546236048042773,-0.0047756671363255,0.0059728056406660466
1772699602388823300,4.4478232421875,0.08114858942329883,0.0018644512981642037,-0.0029568650569504825
1772699602398780200,4.4577802734375,0.0890799669444561,0.00464577541265171,-0.020171583268314135
1772699602408737300,4.4677373046875,0.06064823770821094,0.007520823958888649,-0.008560242588535766
1772699602418694100,4.477694091796875,0.06962649393379688,-0.00366760542972479,-0.001386719959421316
1772699602428651000,4.487651123046875,0.08055003900825977,0.001268691061832942,0.003930029500374803
1772699602438609200,4.497609130859375,0.07082301024198531,0.003705389290000312,0.0006379531269543804
1772699602448566300,4.507566162109375,0.07456395033597946,-0.007194692710484378,-0.00535971010622161
1772699602458523400,4.5175234375,0.05585924986600876,0.008531567337433807,0.019587241758429443
1772699602468480000,4.52747998046875,0.08159633319079876,-0.014728038224228657,0.019125170354766304
1772699602478437000,4.53743701171875,0.07695756747424602,-0.007994510451820678,0.0003369226412993157
1772699602488394200,4.547394287109375,0.07082301024198531,-0.0007955114589771256,0.0007019719736068509
1772699602498352000,4.55735205078125,0.06887772139310837,0.0036269902915460985,0.01148770231284434
1772699602508309200,4.567309326171875,0.07246843936145306,0.0011670755845727399,0.006757475474398233
1772699602518266000,4.57726611328125,0.07950023769438266,0.009220773444301448,-0.00003354893068608362
1772699602528223200,4.58722314453125,0.0815945796251297,0.009369506865763105,-0.014533419834426603
1772699602538180000,4.59718017578125,0.07860065850615501,-0.008085243775462731,-0.010827737141837133
1772699602548137200,4.60713720703125,0.06169219380319118,0.00346124636977911,-0.013940936117281671
1772699602558094300,4.61709423828125,0.06857610809803008,-0.012255296001723036,0.0022322451434069078
1772699602568052000,4.627052001953125,0.07141863804757595,-0.004311383225978352,0.0029785169122216754
1772699602578009000,4.637009033203125,0.07979775933623313,-0.004938840075093321,0.01457359658118803
1772699602587966200,4.64696630859375,0.07949731508493423,0.006593393215932883,-0.004877260351521545
1772699602597923300,4.65692333984375,0.08054477831125259,0.012426085991365835,-0.005027103451258153
1772699602607880200,4.666880126953125,0.06827391028106213,0.00021965236635878682,0.004632627665888867
1772699602617837300,4.67683740234375,0.07291209147572517,-0.010389757858170196,-0.0014192225730919744
1772699602627795200,4.686795166015625,0.07425882990956306,-0.005138335569412447,-0.009533878531062509
1772699602637752000,4.696751953125,0.07695172225534916,0.001793774381862022,0.00745810487428971
1772699602647709200,4.706709228515625,0.07829846068918704,0.0057552390584722155,-0.011931859033904037
1772699602657666000,4.716666015625,0.07500701792836188,0.006433243351313285,0.0007296893851278583
1772699602667623000,4.726622802734375,0.06168868667185306,-0.00713786622302141,-0.010099724261387017
1772699602677579800,4.736579833984375,0.06857084740102291,-0.012132724501402117,-0.013895240661897696
1772699602687537000,4.746536865234375,0.059143093842267985,0.0008501414227765053,0.0003306304686528165
1772699602697495000,4.7564951171875,0.07455518250763415,0.015873664595396256,0.0011939150716149015
1772699602707452000,4.766451904296875,0.0794938079535961,-0.003826800879696384,-0.003045502892450895
1772699602717408800,4.77640869140625,0.057497664722800254,-0.005645344376633874,0.021198896472458727
1772699602727366000,4.786365966796875,0.05719838951528072,0.007819386780355125,0.019944765942229423
1772699602737322800,4.79632275390625,0.07545300813019275,0.00008460497695486993,0.009612453342741354
1772699602747280000,4.80627978515625,0.0878729292422533,-0.0065390144138829775,0.010929961115517653
1772699602757238000,4.816238037109375,0.0773982969790697,-0.0031475225117988882,-0.0013260449889698064
1772699602767195000,4.82619482421875,0.07380757901072502,-0.012454923926782794,-0.015449736669968114
1772699602777151700,4.83615185546875,0.06258534325063228,-0.008744310472393407,0.005422837328663444
1772699602787108900,4.84610888671875,0.06931903541982173,0.009045992266130632,-0.012376785223232581
1772699602797066000,4.85606591796875,0.07979425220489501,0.005311737641249783,-0.003894991294678766
1772699602807022800,4.86602294921875,0.07530512409210205,0.0014215161365224048,-0.013144652906747068
1772699602816980000,4.87597998046875,0.07695113773345946,-0.005926225410937331,0.007680847100989194
1772699602826937900,4.885937744140625,0.06602759265899658,-0.008559154030680655,0.009987373902625404
1772699602836895000,4.89589501953125,0.06782265938222408,-0.007217968554794788,0.016187767479289322
1772699602846851800,4.905851806640625,0.08772504520416259,-0.014112655405397526,0.012796513039222917
1772699602856809000,4.91580908203125,0.06961889514923095,-0.006476525370613671,0.014059027805307413
1772699602866766000,4.92576611328125,0.06513035155832766,-0.005689667575550265,0.004256090537653654
1772699602876722700,4.93572265625,0.08024433405995368,-0.006915368879027664,0.014928545215411577
1772699602886680800,4.945680908203125,0.07036708316802978,0.004700647405046038,0.0039036426753038538
1772699602896638000,4.955637939453125,0.0738081635326147,-0.00829891849218402,-0.02091539878938347
1772699602906595000,4.965594970703125,0.09161503838002681,0.008015064616082236,-0.00539641397097439
1772699602916552000,4.975552001953125,0.09715162971913814,0.0013910159669816493,-0.004744803353070165
1772699602926508800,4.9855087890625,0.08353402325510978,-0.00556786326020956,-0.0004544863188290037
1772699602936466000,4.9954658203125,0.05151157605051994,0.0008386108151869848,-0.007868254294470535
1772699602946422800,5.0054228515625,0.07246084057688712,0.01100096225880552,0.0018496464546769857
1772699602956381000,5.015380859375,0.0699175858348608,0.005532015628693625,-0.001993990824566572
1772699602966337800,5.025337890625,0.07470540463328361,-0.008420645175711252,0.011295637781376718
1772699602976295000,5.035294921875,0.0765010558784008,-0.005937536822818219,0.008657379965967266
1772699602986251800,5.045251708984375,0.07006605439484119,-0.020398188248556107,-0.01729911483823089
1772699602996209000,5.055208984375,0.06856909383535385,-0.017889561861916443,0.005727240802449523
1772699603006166000,5.065166015625,0.06482756921947003,-0.017500946136820128,0.002343613688056939
1772699603016124000,5.0751240234375,0.07739654341340065,-0.014593895017122849,0.005753887922424474
1772699603026080800,5.085080810546875,0.06722177087962627,0.004602630390669219,-0.007694725500114145
1772699603036038000,5.095037841796875,0.07575111429393291,-0.00825088723252993,-0.00919397619809897
1772699603045995000,5.1049951171875,0.07201017419993877,-0.010886519266013056,-0.003708831918434589
1772699603055952000,5.114951904296875,0.09026654638051985,0.004118678232049569,-0.019444890128693076
1772699603065909000,5.124908935546875,0.07814590047597884,0.0028329081712523472,-0.007294823479311889
1772699603075865900,5.134865966796875,0.08248539098501205,-0.002195738212298602,-0.0011986688785458682
1772699603085824000,5.144823974609375,0.08338321660757064,-0.011790345371095462,-0.014218186722660902
1772699603095780900,5.15478076171875,0.07186170563995838,-0.010204117359267547,-0.004105742260307306
1772699603105738000,5.164738037109375,0.083833882984519,-0.002837680244492367,0.035678206932893954
1772699603115695000,5.174695068359375,0.07440671394765376,-0.006688642884488217,0.017697184519906293
1772699603125651700,5.184651611328125,0.06872048500478267,-0.004730891846260056,0.010454518773627932
1772699603135608800,5.19460888671875,0.06438099449574947,-0.002267771402047947,0.016249605785298625
1772699603145567000,5.20456689453125,0.0872761323928833,-0.0002693915259093046,0.0014831826250621815
1772699603155524000,5.214524169921875,0.07994447433054447,0.0011849080687854438,-0.004096549740276532
1772699603165481000,5.22448095703125,0.06498012943267822,0.0017162978320149705,-0.005252083871638751
1772699603175437800,5.234437744140625,0.07605389663279057,-0.01287307170704007,-0.004956733066454762
1772699603185395000,5.24439501953125,0.08518237498402595,-0.010211492381547577,-0.027843860045424662
1772699603195351800,5.254351806640625,0.07381050162017345,0.004253479026281275,0.0009996876949910074
1772699603205309000,5.264308837890625,0.07859890494048595,-0.002784059494268149,-0.008667237493811989
1772699603215266800,5.274266845703125,0.06573065553903579,0.004215517069492489,-0.00007149718774307984
1772699603225224000,5.284223876953125,0.059894204470515244,-0.007333617123984731,0.003080742027546512
1772699603235180800,5.294180908203125,0.08682897314727306,0.011588502656063064,0.011518848653067834
1772699603245138000,5.304137939453125,0.06991933940052986,-0.0026699863942340014,0.013375623534852638
1772699603255095000,5.314094970703125,0.07036766768991946,-0.01716652655068319,0.014026573140698018
1772699603265052000,5.324052001953125,0.0636345600426197,-0.0031912429225165397,0.016062780259596184
1772699603275009800,5.334009765625,0.07111644023060798,-0.004179345210990868,0.00830636144230084
1772699603284967000,5.343966796875,0.09475801258087158,-0.001709562130551785,-0.0036969359846640145
1772699603294924000,5.353924072265625,0.06572773292958736,-0.003006438107253052,-0.008174765243663569
1772699603304881000,5.363880859375,0.05181202030181885,-0.004990456097899005,-0.017018716719473012
1772699603314838000,5.373838134765625,0.06797346602976322,0.004860103149921633,-0.0074739760135678806
1772699603324795000,5.383794921875,0.06647708999216556,-0.006139785963227041,-0.005412427244969876
1772699603334751700,5.393751708984375,0.07081541145741939,0.0009413359707221388,-0.012497411361639387
1772699603344710000,5.4037099609375,0.08652677533030509,0.0009926962652010843,-0.00090003070855455
1772699603354667000,5.4136669921875,0.06258358968496322,-0.0002291280141798779,0.0037573369604797335
1772699603364624100,5.4236240234375,0.09999299062490463,0.0008010233177337795,-0.005289014923610375
1772699603374580700,5.433580810546875,0.07814590047597884,-0.005893263856251723,0.006188241343744448
1772699603384537900,5.443537841796875,0.07201075872182845,-0.0003836381558794528,0.007002054502748069
1772699603394495000,5.453494873046875,0.09670096334218978,-0.0076119226087117565,-0.0016073107574076856
1772699603404452900,5.463452880859375,0.08113865255117415,-0.004727708941907622,0.0012334262397402198
1772699603414410000,5.473409912109375,0.07290858434438705,0.0002743325625080615,0.0021811303024558584
1772699603424366800,5.483366943359375,0.0908662658393383,0.0020372003494529053,-0.009049327579999225
1772699603434324000,5.493323974609375,0.08278641975820064,-0.003619542204029858,-0.004742007466140785
1772699603444280800,5.50328076171875,0.06423135689198971,-0.012737001404329202,-0.019702388004120438
1772699603454238000,5.513238037109375,0.0694686730235815,0.005276981421699747,-0.01926119270841591
1772699603464195000,5.523195068359375,0.07350947284698486,0.00609945851941593,-0.000028054767416324463
1772699603474152700,5.533152587890625,0.06752396869659423,-0.007069879020727239,-0.00029312231547955886
1772699603484109800,5.54310986328125,0.07844692924916744,-0.010716300098528154,0.009321046918668434
1772699603494067000,5.55306689453125,0.07126432426869869,0.0016800848743179812,-0.007797158965526614
1772699603504024000,5.563024169921875,0.08129004372060299,-0.005170566471735947,0.01233793735045474
1772699603513981000,5.57298095703125,0.07171382160186768,-0.015399621909437701,0.014090208394860382
1772699603523938000,5.58293798828125,0.07515607101023197,0.00438392330580391,0.009706796545709948
1772699603533896000,5.59289599609375,0.07051788981556892,0.006897294366220012,0.0003186523364915047
1772699603543852800,5.602852783203125,0.07515665553212166,-0.0016860944899963215,-0.0029363748247706097
1772699603553810000,5.612809814453125,0.08473346217274666,0.010632731734612025,0.015319496744778007
1772699603563767000,5.62276708984375,0.062437459212541575,-0.0011517958170501514,-0.0015454867219523293
1772699603573724000,5.632723876953125,0.08009469645619392,0.015368240390485151,-0.01928924290925497
1772699603583680800,5.6426806640625,0.08443418696522713,0.009616047239047475,-0.004703709295100998
1772699603593638000,5.652637939453125,0.07740063506662845,0.006380371519760228,-0.0011345735417242395
1772699603603596000,5.662595947265625,0.05839724391102791,-0.001635560746002011,-0.0005117997175926576
1772699603613553000,5.672552978515625,0.06453297018706798,0.005828071399242617,-0.00006168018827156628
1772699603623509800,5.682509765625,0.05974515138864517,-0.021031622747308572,0.005524529866914963
1772699603633467000,5.692466796875,0.06064297701120376,-0.007007769003370776,0.009135113587998785
1772699603643423700,5.702423828125,0.07875029610991477,-0.00750607391432859,0.016922808322147466
1772699603653380900,5.712380859375,0.0690244363874197,-0.006117140306578949,0.011874730010697384
1772699603663337700,5.722337646484375,0.06543254937529563,0.0002112224647309631,0.006397914026316721
1772699603673295600,5.732295654296875,0.08428630292713642,-0.0077523357263999055,0.00371744162904215
1772699603683252700,5.742252685546875,0.06977262440621852,-0.005292261189222335,-0.0015228718897007639
1772699603693209600,5.752209716796875,0.06962357132434845,0.016310357245919293,0.004829046999599086
1772699603703166700,5.762166748046875,0.06573240910470485,0.00005755713982507586,-0.006109274377243127
1772699603713123800,5.772123779296875,0.06917407399117946,0.008736903484072536,-0.006196957227273378
1772699603723080700,5.782080810546875,0.07620704136788845,-0.006483809061348438,-0.014804128817876334
1772699603733038600,5.79203857421875,0.08548340375721454,-0.021082809511851517,-0.010175249741098378
1772699603742995700,5.80199560546875,0.06842530145049094,-0.0055603329743025825,-0.011876012077264022
1772699603752952800,5.811952880859375,0.07007189961373805,-0.004221535818325356,0.006711542556996573
1772699603762909700,5.82190966796875,0.08174480175077915,0.004627536503062584,0.011537706333876121
1772699603772866800,5.83186669921875,0.08354045299589634,0.004733654625504277,-0.002615059032090357
1772699603782823700,5.84182373046875,0.0592991611868143,-0.0005793662239564582,0.016504205025808186
1772699603792780500,5.851780517578125,0.06872633022367954,-0.009777379847178235,0.013438167377049103
1772699603802738700,5.86173876953125,0.08383972820341587,-0.006948636394389905,0.012131532624736428
1772699603812695800,5.87169580078125,0.0684276395380497,0.005422066147928126,0.006516174677701201
1772699603822653000,5.88165283203125,0.08174597079455852,0.0013181379604386165,-0.007808728959845029
1772699603832609500,5.891609619140625,0.0705231505125761,-0.004624490596028045,-0.0006244120837247464
1772699603842566700,5.901566650390625,0.0762087949335575,0.00466314210598357,-0.007717109149391763
1772699603852523800,5.911523681640625,0.07770517097115516,-0.007872697003325447,-0.011651436940615531
1772699603862482000,5.92148193359375,0.07157002921700477,-0.00057553029905539,0.004447274861353798
1772699603872438800,5.931438720703125,0.08159633319079876,-0.007633677782793529,-0.005376451749290572
1772699603882395600,5.941395751953125,0.07770575549304484,-0.004941653086687438,-0.001941899877725518
1772699603892352800,5.951352783203125,0.07531096931099891,-0.01686183081595227,0.0016963584432174684
1772699603902309600,5.9613095703125,0.060197571331262585,0.005915735982963815,0.006038711054550367
1772699603912266800,5.971266845703125,0.08369184416532516,0.0047550033742096275,0.02706484306352213
1772699603922223900,5.981223876953125,0.07112228544950484,-0.005506104869302362,0.015049330042378278
1772699603932181800,5.991181640625,0.07067395716011524,-0.011974976656422949,0.004662492510367883
1772699603942138600,6.001138671875,0.08623568342924118,-0.0012010189533699304,0.016460672986402643
1772699603952095700,6.011095703125,0.06947627180814743,0.001786582022672519,0.010474955348524963
1772699603962052900,6.021052978515625,0.07246902388334274,-0.011648986971913836,-0.004220048826604033
1772699603972009700,6.031009765625,0.09850713598132133,0.007200971754221245,-0.004410113768052542
1772699603981966800,6.040966796875,0.08878127625882624,-0.004438667434034869,-0.0009663619557686615
1772699603991923700,6.050923828125,0.06394143403470516,0.010734918034030124,-0.01237642218034016
1772699604001881900,6.0608818359375,0.0811503429889679,-0.0029988164898008107,0.005855644392757676
1772699604011838700,6.070838623046875,0.07486673267483711,0.0057109295592876145,0.005998117036791518
1772699604021795800,6.0807958984375,0.07576397377550602,-0.006664851016947068,0.0028328139855962942
1772699604031752700,6.090752685546875,0.07815759091377258,-0.022153187822876497,-0.007555883855826687
1772699604041709600,6.10070947265625,0.07202303368151187,-0.01202083879187703,0.014212985391158143
1772699604051666700,6.110666748046875,0.07725976529121399,-0.0019520747826900333,0.011717071213974849
1772699604061624800,6.120624755859375,0.07471592602729797,0.0008070283668348565,0.004387852274716715
1772699604071582000,6.13058203125,0.06558744767606257,-0.00005874901649076491,-0.004792866007942939
1772699604081538600,6.14053857421875,0.07875497228503227,-0.008823659318918362,0.0015635521016054553
1772699604091495700,6.15049560546875,0.07456395033597946,0.010183343999297358,-0.011684498960000927
1772699604101452800,6.160452880859375,0.07965162886381148,0.014119240409811027,-0.004973949633559095
1772699604111409700,6.17040966796875,0.07456336581408977,0.0165040760200005,-0.0002473709195241099
1772699604121366800,6.18036669921875,0.07172025134265422,-0.008822841901588253,0.00609810395843524
1772699604131324700,6.19032470703125,0.0805488699644804,-0.0032093083021696657,-0.011258231805369723
1772699604141281800,6.20028173828125,0.06034720893502235,0.015997528437082655,0.006212239848906756
1772699604151238700,6.21023876953125,0.07546002239286899,-0.010686315952218138,0.012606054801307618
1772699604161195800,6.22019580078125,0.07905190940499306,-0.0056191230899887154,0.012145841994590591
1772699604171153000,6.23015283203125,0.0800999571532011,-0.001835238903411664,0.021389025916811077
1772699604181109800,6.24010986328125,0.08683364932239056,-0.008431509063020348,0.0028890268392395228
1772699604191067600,6.250067626953125,0.08518705115914345,-0.015332566288905218,0.006254514937920612
1772699604201024800,6.260024658203125,0.059898296123743054,-0.00713950562425889,0.012024094761465676
1772699604210982000,6.26998193359375,0.0732160428583622,0.017361090141558087,-0.005227044757682597
1772699604220938800,6.279938720703125,0.07964929077625274,-0.006341409482550807,-0.006766838099432061
1772699604230895900,6.289895751953125,0.07994856598377227,-0.0011572072111070155,-0.009805837615038036
1772699604240852700,6.299852783203125,0.06707973206043243,-0.009978290980448945,-0.00847447484684526
1772699604250809600,6.3098095703125,0.07845218994617462,-0.0012042520900722592,-0.012737293665274046
1772699604260767700,6.319767822265625,0.07186813538074494,0.012266771810385399,-0.00439001968645025
1772699604270724900,6.329724853515625,0.06348784504830837,-0.014975217918329871,0.0033532713628577765
1772699604280681700,6.339681640625,0.07680559178292751,-0.0016664216751465573,-0.005029185810490162
1772699604290638600,6.349638671875,0.06722820062041282,0.0038693202805938198,0.006048524629088933
1772699604300595700,6.359595703125,0.06707856301665306,-0.002082532761944458,0.009418848162269568
1772699604310552800,6.369552734375,0.07441080560088158,0.0036220355552155524,0.010302483716804998
1772699604320509700,6.379509765625,0.07800269261300563,0.004610041945567354,0.008992880118449101
1772699604330467600,6.389467529296875,0.07710486699044704,-0.0015886528643546626,0.0043533226715633646
1772699604340424700,6.3994248046875,0.07351414902210235,-0.00013103793456684798,-0.0002650949475268135
1772699604350381800,6.4093818359375,0.07919979344308375,-0.0013129000963177531,0.007455743953844648
1772699604360338700,6.419338623046875,0.07545826882719993,0.007857006243849173,-0.013373305996891576
1772699604370295800,6.4292958984375,0.08129413537383079,-0.007570142993330955,-0.012279761439410503
1772699604380253000,6.4392529296875,0.08174363270699977,-0.014427708137361332,-0.000013333263964159413
1772699604390210800,6.4492109375,0.07875146515369415,-0.0012595624738838524,0.002423794222465949
1772699604400167700,6.459167724609375,0.07605915732979775,0.0016344145351089537,0.011151239183382131
1772699604410124800,6.469124755859375,0.08084697612822056,0.0014237857254222035,0.004178173883922863
1772699604420082000,6.47908203125,0.08234276764392852,-0.004795216653589159,0.008180031648892326
1772699604430038800,6.489038818359375,0.07231646367013454,-0.006251826936379074,0.029033152028382754
1772699604439995600,6.49899560546875,0.08533435067534446,0.0032767657815013077,-0.003905770129486336
1772699604449952800,6.508952880859375,0.07381167066395282,-0.004112184559181332,0.015286352527001872
1772699604459910700,6.51891064453125,0.062140522092580794,-0.001226687684166245,0.0018234656964050372
1772699604469867800,6.52886767578125,0.07620587232410907,0.007570923878042958,-0.012379018279514275
1772699604479825000,6.538824951171875,0.07710428246855736,0.004051978804543614,-0.007241375117379357
1772699604489781800,6.54878173828125,0.07231587914824486,0.0208682580122957,-0.011078543839929626
1772699604499738600,6.558738525390625,0.0651332741677761,-0.005186946784378961,-0.004759403271402698
1772699604509695700,6.56869580078125,0.0693289722919464,-0.00028047004234977067,-0.006428730431332951
1772699604519654000,6.57865380859375,0.06603811405301094,0.015297727870964443,-0.010814481509686447
1772699604529610800,6.58861083984375,0.09446867424547671,0.0006723234707256779,0.015013090826862025
1772699604539567600,6.598567626953125,0.06947802537381649,0.011435193524183705,0.009645569019409595
1772699604549524700,6.608524658203125,0.08429039458036422,-0.007176590798213146,0.012202677615208084
1772699604559481900,6.61848193359375,0.07516191622912884,-0.012800791922118514,0.0071456117088819155
1772699604569438700,6.628438720703125,0.07680676082670689,-0.006408259607106447,0.027348619307810438
1772699604579395800,6.638395751953125,0.09625906479358673,0.0008761298139812424,0.013309778057294898
