time,seconds_elapsed,z,y,x
1772699598047500800,0.106500732421875,-0.000022496329620480537,0.0026493952609598637,0.0029116664081811905
1772699598057458000,0.1164580078125,-0.0006294306367635727,0.002677092794328928,-0.0026125286240130663
1772699598067415000,0.1264150390625,0.0007018835749477148,-0.0012414827942848206,-0.00030010566115379333
1772699598077372000,0.136371826171875,0.0030470206402242184,0.0005929511971771717,-0.000680992379784584
1772699598087329800,0.146329833984375,-0.000836713588796556,0.0005911393091082573,-0.001570303924381733
1772699598097287000,0.156286865234375,-0.0016716144746169448,-0.0013066292740404606,0.0028984802775084972
1772699598107244000,0.166244140625,0.00039046723395586014,0.0005397452041506767,0.0005410211160778999
1772699598117201000,0.176200927734375,0.000520429341122508,-0.00003656279295682907,-0.0016467655077576637
1772699598127158000,0.186157958984375,-0.0010659884428605437,0.002003920264542103,-0.0020801248028874397
1772699598137115000,0.196114990234375,0.0016783990431576967,-0.0012840181589126587,0.0005481489934027195
1772699598147071700,0.20607177734375,0.00031484104692935944,0.00037328852340579033,0.000361049547791481
1772699598157030000,0.21602978515625,0.0014165907632559538,-0.00004988769069314003,-0.0018222101498395205
1772699598166987000,0.225987060546875,0.000993144465610385,-0.0002653333358466625,-0.001023024320602417
1772699598176944000,0.235944091796875,0.0010506687685847282,-0.0021002511493861675,0.00011867284774780273
1772699598186900700,0.245900634765625,-0.0001983616966754198,0.0005903495475649834,-0.0037520232144743204
1772699598196857900,0.25585791015625,-0.0010905206436291337,-0.0010661366395652294,0.003165271133184433
1772699598206815000,0.26581494140625,0.00009621516801416874,0.0004449058324098587,0.0023473803885281086
1772699598216773000,0.275773193359375,-0.003027406521141529,0.0015748851001262665,-0.003404514864087105
1772699598226730000,0.28572998046875,-0.003552076406776905,-0.00038437172770500183,0.0023378562182188034
1772699598236686800,0.295686767578125,0.00004958244971930981,0.000758390873670578,0.00035300198942422867
1772699598246644000,0.30564404296875,0.0012474763207137585,-0.00005973689258098602,-0.0008429945446550846
1772699598256600800,0.315600830078125,0.0016024757642298937,0.0027176737785339355,-0.0012054508551955223
1772699598266558000,0.325557861328125,0.0011795773170888424,0.0004110969603061676,0.0007078512571752071
1772699598276515800,0.335515869140625,-0.0006023438181728125,0.0014356146566569805,0.0021808454766869545
1772699598286472700,0.34547265625,-0.0001077831257134676,-0.0016384851187467575,0.0007478860206902027
1772699598296429800,0.355429931640625,0.0005026133731007576,0.0023203035816550255,0.0023636259138584137
1772699598306387000,0.365386962890625,-0.0005501110572367907,0.0013788500800728798,-0.00003118114545941353
1772699598316344000,0.375343994140625,-0.000043844105675816536,0.0008400925435125828,0.0007312819361686707
1772699598326301000,0.385301025390625,0.001700487919151783,-0.0001710662618279457,0.0009765350259840488
1772699598336258800,0.3952587890625,0.0002077859826385975,-0.00215299054980278,0.0008186092600226402
1772699598346216000,0.4052158203125,-0.001035918015986681,-0.0006088810041546822,-0.00023526139557361603
1772699598356172800,0.4151728515625,-0.0011139486450701952,-0.002465370576828718,-0.0013551204465329647
1772699598366130000,0.4251298828125,-0.0010769229847937822,-0.00016121240332722664,-0.0007209640461951494
1772699598376087000,0.435087158203125,0.0023593539372086525,0.000015355180948972702,0.004706025589257479
1772699598386044000,0.4450439453125,0.0005979777779430151,-0.0006768442690372467,-0.0007102871313691139
1772699598396001800,0.455001708984375,0.00007786229252815247,0.00027044210582971573,0.0012490004301071167
1772699598405959000,0.464958984375,0.0014277722220867872,0.0004875427111983299,-0.0010746896732598543
1772699598415916000,0.474916015625,-0.0010617506923153996,-0.00010181497782468796,-0.0020518035162240267
1772699598425873000,0.484872802734375,-0.0017227472271770239,-0.0009761308319866657,0.00027766358107328415
1772699598435829800,0.494829833984375,-0.0005403037648648024,-0.0012317942455410957,0.0025850264355540276
1772699598445787000,0.504786865234375,-0.00026307255029678345,0.001503276638686657,-0.00042117899283766747
1772699598455745000,0.5147451171875,-0.001998920924961567,0.0023506944999098778,0.0005026715807616711
1772699598465702000,0.524701904296875,-0.0004904870875179768,-0.00003338931128382683,-0.0006455383263528347
1772699598475659000,0.534658935546875,-0.002168012084439397,0.0016952683217823505,0.0004045460373163223
1772699598485615900,0.544615966796875,0.0024334127083420753,-0.0006256937049329281,0.0009862971492111683
1772699598495572700,0.55457275390625,-0.0011173797538504004,0.0005583479069173336,0.00048082927241921425
1772699598505529900,0.56452978515625,-0.0020654688123613596,0.0032148552127182484,-0.0006585004739463329
1772699598515488000,0.574488037109375,0.0012349868193268776,0.0000677979551255703,0.001789743546396494
1772699598525444900,0.58444482421875,-0.0010297733824700117,0.003223652485758066,-0.0014630993828177452
1772699598535401700,0.594401611328125,0.0005113978404551744,0.0003229374997317791,-0.0010561682283878326
1772699598545358800,0.60435888671875,-0.00008224789053201675,-0.0015375162474811077,-0.0017005903646349907
1772699598555316000,0.61431591796875,0.0026698627043515444,0.001458273734897375,0.001348995603621006
1772699598565272800,0.62427294921875,0.0004680000711232424,-0.0018020118586719036,0.0006627230904996395
1772699598575230000,0.63422998046875,-0.0008193720132112503,-0.0015759095549583435,0.001071518287062645
1772699598585187800,0.644187744140625,-0.0014137972611933947,0.0018206946551799774,-0.00042683444917201996
1772699598595145000,0.65414501953125,0.0038046666886657476,-0.0011591161601245403,0.0010456275194883347
1772699598605101800,0.664101806640625,0.0007191670592874289,0.0011516651138663292,-0.0001157526858150959
1772699598615059000,0.674058837890625,0.001981505425646901,-0.0013005738146603107,-0.002498482819646597
1772699598625016000,0.68401611328125,0.000638430705294013,-0.00040756771340966225,0.0006032474339008331
1772699598634973000,0.693972900390625,0.0022507086396217346,0.0014041806571185589,0.0009952648542821407
1772699598644930800,0.703930908203125,-0.0007192564662545919,-0.001103176735341549,0.0003874730318784714
1772699598654888200,0.71388818359375,0.0007763747125864029,0.00030164094641804695,0.002034904435276985
1772699598664845300,0.72384521484375,0.0010445471853017807,-0.002424095757305622,0.0012340336106717587
1772699598674802200,0.73380224609375,-0.0002382975071668625,0.002772796433418989,-0.00041020195931196213
1772699598684759000,0.743759033203125,-0.0002574566751718521,-0.000743392389267683,-0.0008827964775264263
1772699598694716200,0.753716064453125,-0.0028393913526088,-0.0008733547292649746,0.0007047136314213276
1772699598704674300,0.76367431640625,0.002025984227657318,0.0018217111937701702,-0.002247850876301527
1772699598714631400,0.77363134765625,0.000993210356682539,-0.0013828705996274948,-0.0028800852596759796
1772699598724588000,0.783588134765625,-0.0011247594375163317,0.0004148497246205807,0.0006126160733401775
1772699598734545200,0.793545166015625,0.002698474796488881,-0.0008344394154846668,0.0024669752456247807
1772699598744502300,0.803502197265625,-0.00001520104706287384,-0.0022550481371581554,0.001583572942763567
1772699598754459100,0.813459228515625,0.00047029322013258934,0.0003135707229375839,-0.002672158647328615
1772699598764417300,0.823417236328125,-0.0009651896543800831,0.0007591028697788715,-0.001442538807168603
1772699598774374100,0.8333740234375,0.001418339554220438,-0.0010806084610521793,0.004607098177075386
1772699598784331300,0.843331298828125,0.0008023732807487249,-0.00337414862588048,-7.953494787216187e-7
1772699598794288000,0.8532880859375,-0.00009005190804600716,-0.0010452140122652054,0.0013393075205385685
1772699598804245200,0.863245361328125,-0.001209965324960649,-0.0017218622379004955,-0.0004589997697621584
1772699598814202400,0.873202392578125,0.00004251929931342602,0.0010326448827981949,-0.001596702029928565
1772699598824160300,0.88316015625,0.0002236685249954462,0.00035401061177253723,0.0009691282175481319
1772699598834117000,0.8931171875,-0.0010133698815479875,-0.0015437579713761806,0.0008412962779402733
1772699598844074200,0.90307421875,-0.001060984912328422,0.0026299888268113136,-0.00031998753547668457
1772699598854031400,0.91303125,0.00006633112207055092,-0.0028337526600807905,0.0041288225911557674
1772699598863988200,0.92298828125,-0.000037085264921188354,0.0005391319282352924,-0.0025036572478711605
1772699598873945300,0.9329453125,-0.0017803905066102743,0.0011465991847217083,-0.0036482838913798332
1772699598883903200,0.9429033203125,0.0005199566949158907,0.0005343928933143616,-0.004024640191346407
1772699598893860400,0.9528603515625,-0.0019796863198280334,0.0015234905295073986,-0.0001907534897327423
1772699598903817200,0.962817138671875,0.001998036401346326,-0.0003038952127099037,0.0020047686994075775
1772699598913774300,0.9727744140625,-0.0005173194222152233,-0.0008935187943279743,0.000240956898778677
1772699598923731200,0.982731201171875,-0.0010661226697266102,0.00030233897268772125,-0.0027606161311268806
1772699598933688000,0.99268798828125,-0.0008269707905128598,0.00000539654865860939,-0.0027638119645416737
1772699598943646200,1.002646240234375,-0.0008039040258154273,0.00019528856500983238,0.00011541694402694702
1772699598953603300,1.012603271484375,-0.0005397184286266565,-0.001593556720763445,-0.0022784986067563295
1772699598963560400,1.022560546875,-0.001690031262114644,0.000004527159035205841,-0.002993991132825613
1772699598973517000,1.03251708984375,0.0014631515368819237,0.0008021439425647259,0.0007328363135457039
1772699598983474200,1.04247412109375,-0.00048971944488585,-0.0002459320239722729,-0.00026679225265979767
1772699598993431300,1.052431396484375,-0.0002609540242701769,-0.0014683227054774761,0.0005300259217619896
1772699599003389400,1.062389404296875,0.0003160156775265932,-0.0007434901781380177,0.0015096766874194145
1772699599013346300,1.07234619140625,0.00033519044518470764,0.0014019524678587914,-0.0014914392959326506
1772699599023303200,1.08230322265625,-0.000549152959138155,0.0006312732584774494,0.0005159932188689709
1772699599033260300,1.09226025390625,0.000117169925943017,-0.000049697235226631165,0.0005993503145873547
1772699599043217200,1.102217041015625,0.0018532020039856434,0.0006226799450814724,-0.0015188981778919697
1772699599053174300,1.11217431640625,0.0013533267192542553,-0.002003729809075594,-0.0003308621235191822
1772699599063132200,1.122132080078125,0.0007154480554163456,-0.0009849444031715393,-0.00046302215196192265
1772699599073089300,1.13208935546875,0.000054717762395739555,0.00037007173523306847,-0.0018614479340612888
1772699599083046100,1.142046142578125,-0.003234711242839694,-0.000014571938663721085,-0.0001394534483551979
1772699599093003300,1.152003173828125,0.0010130307637155056,0.00022910721600055695,-0.0004023071378469467
1772699599102960400,1.16196044921875,-0.0004898619372397661,0.000942982267588377,-0.0011557212565094233
1772699599112917200,1.171917236328125,-0.0002477806992828846,0.0010788035579025745,0.0000040852464735507965
1772699599122875100,1.181875244140625,-0.0015585769433528185,4.7637149691581726e-7,0.0034327260218560696
1772699599132832300,1.191832275390625,-0.001280010212212801,-0.0008887532167136669,-0.0007638831157237291
1772699599142789400,1.201789306640625,-0.002837438602000475,-0.0014629173092544079,0.001082665752619505
1772699599152746200,1.211746337890625,0.002089942339807749,0.0000055497512221336365,-0.001096332911401987
1772699599162703400,1.221703369140625,-0.0005117233376950026,0.0001230211928486824,-0.0006437697447836399
1772699599172660200,1.23166015625,0.0010635366197675467,0.0001382012851536274,-0.0023503233678638935
1772699599182618000,1.2416181640625,-0.00023691542446613312,0.00033778510987758636,-0.0005151159130036831
1772699599192575200,1.2515751953125,0.00031196209602057934,-0.0003266735002398491,-0.00047783181071281433
1772699599202532400,1.261532470703125,0.0017787311226129532,0.001277347095310688,-0.0011916793882846832
1772699599212489500,1.271489501953125,0.0003291722387075424,0.00009490316733717918,-0.0005120406858623028
1772699599222446000,1.281446044921875,0.00004771724343299866,-0.00020026927813887596,-0.0009960683528333902
1772699599232403200,1.2914033203125,-0.0010969095164909959,0.0023824642412364483,-0.0015332279726862907
1772699599242361300,1.301361328125,-0.001848254818469286,-0.0012262850068509579,0.0034146863035857677
1772699599252318200,1.311318115234375,0.003491116687655449,0.0010328744538128376,-0.0003664698451757431
1772699599262275300,1.321275390625,0.001608559163287282,-0.001544687431305647,-0.0004142262041568756
1772699599272232200,1.331232177734375,0.0009832486975938082,0.0028111785650253296,0.0007066982798278332
1772699599282189000,1.34118896484375,-0.0010168238077312708,0.0008330149576067924,0.00276488671079278
1772699599292146200,1.351146240234375,-0.00034357677213847637,-0.001700450200587511,0.0007382212206721306
1772699599302104300,1.361104248046875,0.00039719720371067524,-0.00004040403291583061,0.0009749773889780045
1772699599312061200,1.371061279296875,-0.0008451673202216625,0.0006472240202128887,0.0005062608979642391
1772699599322018000,1.38101806640625,-0.002136108698323369,0.0014630798250436783,-0.003224451094865799
1772699599331975200,1.39097509765625,-0.0009102555923163891,0.0013325847685337067,0.001299993135035038
1772699599341932300,1.400932373046875,-0.0018607943784445524,-0.000300730112940073,-0.0000280686654150486
1772699599351889200,1.41088916015625,-0.0005611716769635677,-0.0011329678818583488,0.0007341280579566956
1772699599361847000,1.420846923828125,0.0033351380843669176,0.0007835137657821178,0.002202331554144621
1772699599371804200,1.43080419921875,-0.0019664166029542685,0.0003653974272310734,0.0008409232832491398
1772699599381761300,1.44076123046875,0.0006386169698089361,-0.0022324174642562866,0.001707026269286871
1772699599391718100,1.45071826171875,0.000026622554287314415,-0.00038764579221606255,-0.0036872064229100943
1772699599401675300,1.46067529296875,-0.0009267576970160007,-0.0014343932271003723,-0.0014955662190914154
1772699599411632400,1.47063232421875,-0.001963260117918253,0.0012972112745046616,-0.000911002280190587
1772699599421589200,1.48058935546875,0.0019730215426534414,-0.002565608127042651,0.0011684121564030647
1772699599431547100,1.490547119140625,-0.0006230275612324476,-0.0014337645843625069,-0.00220794347114861
1772699599441504300,1.500504150390625,-0.001094531617127359,0.0013648844324052334,-0.0014819374773651361
1772699599451461400,1.51046142578125,-0.0008117039687931538,-0.0024748609866946936,-0.0003468981012701988
1772699599461418200,1.520418212890625,0.0010196261573582888,0.001538695301860571,-0.0011028784792870283
1772699599471375000,1.530375,-0.0006773399654775858,-0.0006608092226088047,-0.0008376275654882193
1772699599481332200,1.540332275390625,0.0020923831034451723,0.00006690016016364098,-0.002153316978365183
1772699599491290400,1.550290283203125,-0.0001630478072911501,-0.0013528307899832726,0.0005710967816412449
1772699599501247200,1.560247314453125,0.0012288361322134733,-0.00007481686770915985,-0.0032491872552782297
1772699599511204400,1.570204345703125,-0.0018348644953221083,0.00013583945110440254,-0.002354631433263421
1772699599521161200,1.5801611328125,-0.0010872200364246964,0.0011542155407369137,0.0000887308269739151
1772699599531118000,1.5901181640625,-0.0005817520432174206,0.0024053691886365414,0.0005151028744876385
1772699599541075200,1.6000751953125,0.0004980787634849548,-0.0004201456904411316,-0.0015200234483927488
1772699599551033300,1.610033447265625,0.0027729510329663754,-0.0005623581819236279,0.0008810823783278465
1772699599560990200,1.619990234375,-0.00005981512367725372,0.0006748889572918415,0.00004238123074173927
1772699599570947000,1.629947021484375,-0.0001729994546622038,0.0005896678194403648,-0.001107305521145463
1772699599580904200,1.639904296875,0.002037825295701623,0.0003493879921734333,0.001224319450557232
1772699599590861300,1.649861328125,-0.001672490849159658,0.0010292930528521538,0.0005060648545622826
1772699599600818200,1.659818115234375,0.0010850192047655582,-0.0003398875705897808,0.00039478717371821404
1772699599610776000,1.669776123046875,-0.000709951389580965,0.002159222960472107,-0.0005277320742607117
1772699599620733200,1.679733154296875,-0.00002180691808462143,0.0009154044091701508,-0.0009873469825834036
1772699599630690300,1.689690185546875,0.001056506996974349,-0.0013373633846640587,0.002156781032681465
1772699599640647200,1.699647216796875,-0.0010616984218358994,0.0015389523468911648,0.000018040649592876434
1772699599650604300,1.709604248046875,-0.00017353426665067673,0.0010257610119879246,0.0010771797969937325
1772699599660561200,1.71956103515625,0.0002729047555476427,-0.0011186674237251282,0.001684381626546383
1772699599670519000,1.72951904296875,0.00016211741603910923,0.0031495802104473114,0.0006633256562054157
1772699599680476000,1.739475830078125,-0.00014419108629226685,0.0013838964514434338,-0.0012667037080973387
1772699599690433000,1.74943310546875,-0.0010944069363176823,-0.0023860742803663015,0.0020569213666021824
1772699599700390100,1.75939013671875,0.0009851707145571709,-0.0007886998355388641,0.00008274475112557411
1772699599710347000,1.769346923828125,-0.0015610776608809829,0.00022649718448519707,0.0014872956089675426
1772699599720304000,1.77930419921875,0.0005635905545204878,0.001681067980825901,-0.0009902720339596272
1772699599730262000,1.789261962890625,0.0009755815844982862,0.001212884671986103,0.0014619664289057255
1772699599740219100,1.79921923828125,-0.0022930968552827835,0.0023047756403684616,-0.003358632791787386
1772699599750176000,1.809176025390625,0.0009548943489789963,-0.0028399184811860323,0.001710427924990654
1772699599760133000,1.819133056640625,0.00010573840700089931,0.00023188302293419838,-0.00160602992400527
1772699599770090000,1.829090087890625,0.0012668767012655735,0.0019496222957968712,-0.0012241327203810215
1772699599780046800,1.839046875,0.00018098065629601479,0.0009630946442484856,0.0009203720837831497
1772699599790004000,1.84900390625,-0.0015223771333694458,-0.0012803524732589722,0.00018427427858114243
1772699599799962000,1.858962158203125,0.0014695031568408012,-0.0024526254273951054,0.000288898590952158
1772699599809919200,1.868919189453125,-0.0008477130904793739,0.0015399856492877007,-0.00045572128146886826
1772699599819875800,1.878875732421875,0.002781864255666733,-0.0030263508670032024,-0.0015454094391316175
1772699599829833000,1.8888330078125,0.0009932853281497955,0.000285556074231863,-0.0009507255163043737
1772699599839790000,1.8987900390625,0.00018744473345577717,0.00009346147999167442,0.0011675977148115635
1772699599849747000,1.908746826171875,-0.002889571711421013,0.00005910685285925865,-0.0008851669263094664
1772699599859705000,1.918705078125,0.0015515799168497324,0.001521651167422533,-0.0019031953997910023
1772699599869662000,1.928661865234375,0.0003566197119653225,-0.0016666855663061142,-0.002738629002124071
1772699599879619000,1.938619140625,0.0010631780605763197,-0.0012945309281349182,-0.0024107026401907206
1772699599889576000,1.948575927734375,0.0003875340335071087,0.00040669646114110947,0.0009605931118130684
1772699599899533000,1.958532958984375,0.00190292252227664,-0.0007410799153149128,-0.0016183971893042326
1772699599909490200,1.968490234375,-0.0021794370841234922,0.0007566818967461586,0.00025407131761312485
1772699599919448000,1.978447998046875,-0.0003713672049343586,-0.0008436711505055428,-0.001980972709134221
1772699599929405000,1.988405029296875,-0.0005407442804425955,-0.0018910923972725868,0.0007314565591514111
1772699599939362000,1.998362060546875,0.0010895140003412962,-0.000628491397947073,0.002588406205177307
1772699599949319200,2.008319091796875,-0.0014263741904869676,-0.00033501069992780685,0.0025833463296294212
1772699599959276000,2.018276123046875,0.00056459940969944,-0.0003757122904062271,0.00018784590065479279
1772699599969233200,2.028233154296875,-0.0010410203831270337,-0.002312629483640194,0.0008863932453095913
1772699599979191000,2.03819091796875,-0.00041290419176220894,-0.001363283023238182,-0.0010011906269937754
1772699599989148200,2.048148193359375,-0.001010783831588924,-0.0007821815088391304,-0.0005947924219071865
1772699599999105000,2.05810498046875,-0.00041257264092564583,-0.001505363266915083,0.0000692964531481266
1772699600009062100,2.068062255859375,-0.0009918102296069264,-0.0007370412349700928,0.00023387977853417397
1772699600019019000,2.07801904296875,-0.000626775436103344,-0.0005842461250722408,0.0017333836294710636
1772699600028975900,2.087975830078125,0.0005133238155394793,-0.000558946281671524,0.001065196469426155
1772699600038934000,2.09793408203125,-0.0005204915069043636,-0.0004430869594216347,-0.0023881900124251842
1772699600048891100,2.10789111328125,0.0005130814388394356,0.0016296510584652424,0.002283793408423662
1772699600058848300,2.11784814453125,0.002787911333143711,-0.002463506069034338,-0.0025322248693555593
1772699600068804900,2.127804931640625,-0.0008667447837069631,0.0028020963072776794,-0.002260316163301468
1772699600078762000,2.137761962890625,-0.0027809820603579283,0.0031894552521407604,-0.0027275336906313896
1772699600088719000,2.147718994140625,0.0009610257111489773,0.00022855214774608612,0.001337515190243721
1772699600098676000,2.157676025390625,0.0016780048608779907,-0.001309120561927557,-0.00002369564026594162
1772699600108634000,2.167634033203125,-0.002025653375312686,0.0006389818154275417,-0.0005563278682529926
1772699600118591000,2.177591064453125,-0.000012912321835756302,-0.0014167772606015205,-0.000477855559438467
1772699600128548000,2.187548095703125,0.0007335718255490065,-0.00044632144272327423,0.0023464271798729897
1772699600138505000,2.1975048828125,-0.0008659635204821825,0.0013977834023535252,-0.0020414339378476143
1772699600148462000,2.207462158203125,-0.00012081093154847622,-0.0004611029289662838,0.00025714049115777016
1772699600158419200,2.217419189453125,-0.00002452475018799305,-0.0007291263900697231,-0.00021223817020654678
1772699600168376800,2.227376953125,-0.0020820829086005688,0.00044878991320729256,0.001104162074625492
1772699600178334000,2.237333984375,0.002658677753061056,-0.0027910589706152678,0.0008054124191403389
1772699600188291000,2.247291015625,0.0030371127650141716,-0.0016725310124456882,-0.0025632199831306934
1772699600198248200,2.257248291015625,-0.0027801438700407743,-0.0013148258440196514,0.0011294852010905743
1772699600208205000,2.267205078125,-0.0021942483726888895,-0.000337445642799139,0.0013135094195604324
1772699600218162200,2.277162109375,0.002043334301561117,-0.0008030449971556664,0.002605233807116747
1772699600228120000,2.2871201171875,0.00014423392713069916,-0.0015553883276879787,0.001483776606619358
1772699600238077000,2.297076904296875,-0.0009507413487881422,0.0009244205430150032,-0.0008886936120688915
1772699600248034000,2.307033935546875,-0.0013898966135457158,0.001525496132671833,0.0010311789810657501
1772699600257991200,2.3169912109375,0.0020552710629999638,0.0014523249119520187,-0.00036221882328391075
1772699600267948000,2.326947998046875,-0.00037353159859776497,-0.0023709090892225504,0.0008308771066367626
1772699600277905000,2.33690478515625,0.0018776729702949524,-0.0006139916367828846,0.00118283461779356
1772699600287863000,2.346863037109375,-0.0012685854453593493,0.000809467863291502,0.00012795627117156982
1772699600297820200,2.356820068359375,-0.0030273909214884043,0.00046687666326761246,0.0005195471458137035
1772699600307777000,2.366777099609375,-0.002848160220310092,-0.00015656929463148117,-0.0005880617536604404
1772699600317734000,2.37673388671875,-0.00045471638441085815,0.001182811800390482,0.0000537787564098835
1772699600327691000,2.38669091796875,0.00032612262293696404,0.0023857620544731617,-0.0034727794118225574
1772699600337648000,2.396648193359375,-0.0011999293928965926,-0.0006253407336771488,0.0012170192785561085
1772699600347605000,2.40660498046875,0.0017034485936164856,-0.00016354862600564957,-0.00048687122762203217
1772699600357563100,2.416563232421875,-0.0025280206464231014,0.0010356497950851917,0.0004409058019518852
1772699600367520000,2.42652001953125,0.0011410163715481758,-0.0012639896012842655,-0.0005886720027774572
1772699600377476900,2.436476806640625,0.0005801103543490171,0.001117777545005083,0.0002763420343399048
1772699600387434000,2.44643408203125,-0.00009233783930540085,0.0016781063750386238,0.0008063111454248428
1772699600397391000,2.45639111328125,-0.001005940604954958,-0.0012041190639138222,0.0013523753732442856
1772699600407348200,2.46634814453125,0.00041006202809512615,0.0017221621237695217,0.0011867270804941654
1772699600417305900,2.476305908203125,0.0018868292681872845,-0.0013493760488927364,0.00011238455772399902
1772699600427263000,2.486262939453125,-0.00044317031279206276,-0.0002707955427467823,0.0023949798196554184
1772699600437220000,2.49622021484375,0.0007252390496432781,0.001495144795626402,0.0020520202815532684
1772699600447177000,2.506177001953125,0.0005148493219166994,-0.0007296600379049778,-0.00026919087395071983
1772699600457134000,2.516134033203125,0.0001471485011279583,0.00046321284025907516,-0.0007807561196386814
1772699600467091200,2.52609130859375,-0.0009237086633220315,-0.0007264213636517525,-0.0000933939591050148
1772699600477049000,2.536049072265625,0.00005754292942583561,-0.0008103852160274982,0.0015092245303094387
1772699600487006000,2.546005859375,0.0019419954624027014,0.000749694649130106,0.0032503996044397354
1772699600496963000,2.555963134765625,-0.0025014407001435757,-0.00034159282222390175,-0.0027357630897313356
1772699600506920200,2.565920166015625,0.00019927090033888817,0.00016334233805537224,0.00021422049030661583
1772699600516877000,2.575876953125,0.0010265123564749956,-0.0021606814116239548,-0.00021022604778409004
1772699600526834000,2.585833984375,-0.0019663481507450342,-0.001016054768115282,0.00022520078346133232
1772699600536792000,2.5957919921875,-0.0023226796183735132,-0.0013566953130066395,0.0017771157436072826
1772699600546749200,2.605749267578125,0.0015167996753007174,-0.0005228598602116108,0.00034273741766810417
1772699600556706000,2.6157060546875,0.0024177615996450186,0.0002587190829217434,0.004165551625192165
1772699600566663000,2.625662841796875,0.00009521888568997383,-0.0018113558180630207,-0.001181809464469552
1772699600576620000,2.6356201171875,-0.0019569159485399723,0.0015514479018747807,0.0008535715751349926
1772699600586577000,2.645576904296875,-0.0012314707273617387,0.0005791275762021542,-0.0004772101528942585
1772699600596534000,2.655533935546875,-0.0007121753878891468,-0.00036393431946635246,0.001250517088919878
1772699600606492200,2.6654921875,-0.0019164567347615957,0.0005695032887160778,0.00004969770088791847
1772699600616449000,2.675448974609375,0.00018336763605475426,0.000926571898162365,-0.0013727236073464155
1772699600626406000,2.685406005859375,-0.0001007916871458292,0.0012416238896548748,0.0005772430449724197
1772699600636363000,2.695363037109375,-0.0018202844075858593,-0.0023374927695840597,0.0011661280877888203
1772699600646320000,2.705320068359375,0.0014977478422224522,-0.001297262031584978,-0.0016174076590687037
1772699600656276700,2.71527685546875,-0.00006916932761669159,-0.0009249472059309483,-0.00019713258370757103
1772699600666234600,2.725234619140625,-0.00029127695597708225,0.0023041353560984135,0.0009184656664729118
1772699600676191500,2.73519140625,0.0005219110753387213,0.00006283773109316826,0.0007111756131052971
1772699600686148600,2.745148681640625,0.0011938263196498156,-0.001193108968436718,0.003629733808338642
1772699600696105700,2.755105712890625,0.0029983764979988337,-0.001470689196139574,-0.0008327795658260584
1772699600706062600,2.7650625,-0.00044828676618635654,-0.0030129256192594767,0.0010735108517110348
1772699600716019700,2.775019775390625,0.00033363979309797287,0.0006053163670003414,-0.004584923852235079
1772699600725977600,2.7849775390625,0.0009091489482671022,0.00037468643859028816,-0.0007960444781929255
1772699600735934700,2.794934814453125,-0.0009676119079813361,0.00016302568838000298,0.00046755513176321983
1772699600745891600,2.8048916015625,-0.00408004829660058,0.001741747371852398,-0.0013364700134843588
1772699600755848700,2.8148486328125,-0.0007571673486381769,-0.0032455655746161938,0.0023083211854100227
1772699600765805800,2.824805908203125,-0.00033292570151388645,0.0006343936547636986,-0.00036442745476961136
1772699600775762400,2.834762451171875,-0.0009324107086285949,0.0013050553388893604,0.0001761559396982193
1772699600785719600,2.844719482421875,0.00311053404584527,-0.0011407914571464062,0.002022258937358856
1772699600795677700,2.854677734375,0.0010279337875545025,-0.0013019735924899578,0.0014940421096980572
1772699600805634800,2.864634765625,-0.0024916997645050287,0.00039818836376070976,0.0017108237370848656
1772699600815591700,2.874591796875,0.0015534290578216314,-0.0014335489831864834,-0.0006152878049761057
1772699600825548500,2.884548583984375,-0.002474868204444647,-0.0005717496387660503,0.0011394689790904522
1772699600835505700,2.894505615234375,-0.0006672812160104513,0.002316088881343603,-0.0002281120978295803
1772699600845462500,2.904462646484375,0.0018307638820260763,-0.0011268453672528267,-0.0016451799310743809
1772699600855420700,2.914420654296875,0.0007095069158822298,0.00006300816312432289,0.0004266155883669853
1772699600865377800,2.924377685546875,-0.00010568671859800816,-0.0011817533522844315,0.001914257649332285
1772699600875334700,2.934334716796875,-0.001036246889270842,0.0005842046812176704,-0.0005657942965626717
1772699600885291500,2.94429150390625,-0.0008338466286659241,0.0016079233027994633,0.0012693898752331734
1772699600895248600,2.95424853515625,0.002475158777087927,-0.001386693213135004,0.001947004348039627
1772699600905205800,2.964205810546875,-0.00018187682144343853,0.0021707573905587196,-0.00009963475167751312
1772699600915163600,2.97416357421875,-0.0017034609336405993,0.001688140444457531,-0.0007937715854495764
1772699600925120500,2.98412060546875,-0.0013966647675260901,-0.0032813181169331074,0.000615573488175869
1772699600935077600,2.99407763671875,0.0002881495747715235,-0.002215811051428318,0.0008549033664166927
1772699600945034800,3.00403466796875,2.6193447411060333e-7,-0.000365180429071188,0.00020109722390770912
1772699600954991600,3.01399169921875,-0.00037538446485996246,-0.0022637941874563694,-0.00014434987679123878
1772699600964948700,3.02394873046875,-0.0004893678706139326,0.00007579289376735687,0.0033401302061975002
1772699600974906600,3.03390673828125,-0.0018174492288380861,-0.0002748621627688408,0.001407485455274582
1772699600984863700,3.04386376953125,0.001035328721627593,0.0014926781877875328,-0.0012258482165634632
1772699600994820600,3.053820556640625,-0.0021492938976734877,-0.00015907827764749527,0.001487706322222948
1772699601004777700,3.06377783203125,-0.0005996003746986389,-0.0003375099040567875,0.0036102458834648132
1772699601014734800,3.07373486328125,-0.0003244122490286827,3.110617399215698e-7,0.00004484783858060837
1772699601024691500,3.08369140625,-0.002366257831454277,-0.0012306016869843006,-0.00057007628493011
1772699601034648600,3.093648681640625,-0.00190523243509233,0.0000119856558740139,-0.0019377779681235552
1772699601044606700,3.103606689453125,-0.0005898971576243639,0.0003787027671933174,0.0005426905117928982
1772699601054563800,3.113563720703125,0.0036056283861398697,0.0006759539246559143,-0.0019684305880218744
1772699601064520700,3.123520751953125,-0.0012589017860591412,-0.001101972535252571,0.002366929315030575
1772699601074477600,3.1334775390625,-0.0006711590103805065,-0.00002030516043305397,0.0006714765913784504
1772699601084434700,3.1434345703125,-0.0008735592709854245,-0.0019686738960444927,0.0021878802217543125
1772699601094391600,3.1533916015625,0.0008454222697764635,-0.00032697152346372604,-0.0009536216966807842
1772699601104349700,3.163349609375,-0.0005221108440309763,0.0015124739147722721,0.0007635843940079212
1772699601114306800,3.173306884765625,0.0004885667003691196,0.0004061879590153694,-0.0014015075284987688
1772699601124263700,3.183263671875,0.000391627661883831,-0.000297419261187315,0.001433161087334156
1772699601134220500,3.193220458984375,0.0010914832819253206,-2.1047890186309814e-7,-0.0015291206073015928
1772699601144177700,3.203177734375,0.0019090736750513315,0.0013779755681753159,-0.000565855298191309
1772699601154134800,3.213134765625,0.0030468818731606007,-0.0002259938046336174,-0.0017864929977804422
1772699601164092700,3.2230927734375,0.0006207423284649849,-0.0012907255440950394,0.002794676460325718
1772699601174049500,3.233049560546875,0.00019659358076751232,0.0009944583289325237,-0.004537187982350588
1772699601184006700,3.243006591796875,0.0006256287451833487,-0.00013685226440429688,0.001099125947803259
1772699601193963800,3.2529638671875,0.0003292520996183157,-0.0013602464459836483,-0.0001285737380385399
1772699601203920600,3.262920654296875,0.00046533974818885326,-0.0001413174904882908,0.0034834719263017178
1772699601213877800,3.272877685546875,-0.001760744722560048,0.00236016558483243,0.0004313420504331589
1772699601223835000,3.2828349609375,-0.003828156739473343,0.0007742531597614288,-0.0006693422328680754
1772699601233792800,3.292792724609375,-0.000006254995241761208,0.0007249354384839535,0.0007375436834990978
1772699601243749600,3.30274951171875,0.003026020247489214,0.00026234425604343414,0.002018790226429701
1772699601253706800,3.312706787109375,-0.0026677888818085194,-0.0019481419585645199,0.0014910399913787842
1772699601263663900,3.322663818359375,-0.00020543020218610764,0.0008804015815258026,0.0008180593140423298
1772699601273620500,3.332620361328125,0.0006086300127208233,0.0006388155743479729,0.0018613142892718315
1772699601283577600,3.34257763671875,0.0019929411355406046,0.0001860777847468853,-0.0022221107501536608
1772699601293535700,3.35253564453125,-0.0007811589166522026,0.00012055598199367523,-0.003735883394256234
1772699601303492600,3.36249267578125,-0.00026929937303066254,0.00024359393864870071,0.0013707280158996582
1772699601313449700,3.37244970703125,-0.00039508938789367676,0.001508152112364769,0.0017193597741425037
1772699601323406600,3.382406494140625,0.0008382205851376057,-0.0033518506679683924,0.0035769147798419
1772699601333363700,3.39236376953125,0.001518030185252428,-0.0024747669231146574,0.00006073061376810074
1772699601343320600,3.402320556640625,0.00127488374710083,0.0003644293174147606,0.00005487166345119476
1772699601353278700,3.41227880859375,-0.0020070490427315235,0.0012743053957819939,0.0034922175109386444
1772699601363235800,3.42223583984375,0.0018241745419800282,-0.0011278660967946053,0.0013667489401996136
1772699601373192400,3.4321923828125,-0.00022959732450544834,-0.00009774649515748024,0.0013700495474040508
1772699601383149600,3.442149658203125,0.0004135558847337961,0.0013518123887479305,0.0008965395390987396
1772699601393106700,3.452106689453125,0.001955239102244377,-0.0005582105368375778,-0.002108181593939662
1772699601403063800,3.462063720703125,-0.002843244466930628,0.0012711146846413612,-0.003016319591552019
1772699601413020700,3.472020751953125,0.003032759763300419,-0.0023593485821038485,0.0029998235404491425
1772699601422978600,3.481978515625,0.0018101027235388756,0.0005008862353861332,-0.0023669786751270294
1772699601432935700,3.491935791015625,0.000939847668632865,0.0006238291971385479,-0.000019807834178209305
1772699601442892500,3.501892578125,0.000818407628685236,0.00024060020223259926,0.0024926182813942432
1772699601452849700,3.511849609375,-0.00032004015520215034,-0.0021209842525422573,0.000897891353815794
1772699601462806800,3.521806884765625,0.0014352495782077312,0.0008756048046052456,-0.0005764346569776535
1772699601472764000,3.531763916015625,-0.0017840070649981499,0.001914298627525568,-0.0016196898650377989
1772699601482721500,3.541721435546875,-0.004873273894190788,-0.00003540189936757088,-0.0007115521002560854
1772699601492678700,3.5516787109375,0.0015085325576364994,-0.00038274144753813744,-0.002096053445711732
1772699601502635800,3.5616357421875,0.000969775253906846,-0.0009028571657836437,0.0019386354833841324
1772699601512592600,3.571592529296875,0.0007930828724056482,0.0008524288423359394,-0.00014808308333158493
1772699601522549500,3.581549560546875,0.0002945391461253166,0.0003331126645207405,0.0010735089890658855
1772699601532506600,3.591506591796875,0.0035534529015421867,0.0010110246948897839,-0.00009780796244740486
1772699601542464800,3.60146484375,0.0009020098950713873,-0.0007826141081750393,-0.0005505452863872051
1772699601552421600,3.611421630859375,-0.002063428284600377,-0.0005598231218755245,-0.00004974380135536194
1772699601562378800,3.621378662109375,-0.0014394496101886034,0.000555774662643671,0.0011619944125413895
1772699601572335600,3.631335693359375,-0.00023600971326231956,-0.0013614166527986526,0.0024498128332197666
1772699601582292500,3.64129248046875,0.0011032938491553068,0.000619442667812109,0.004318553023040295
1772699601592249600,3.65124951171875,0.0006132160779088736,0.0011925664730370045,0.0001248144544661045
1772699601602206700,3.661206787109375,0.005213027819991112,0.0005965507589280605,0.0032449737191200256
1772699601612164600,3.67116455078125,-0.0002227833028882742,0.000834333710372448,0.002118445001542568
1772699601622121500,3.68112158203125,-0.00027444842271506786,0.00014084670692682266,0.001042793970555067
1772699601632078600,3.69107861328125,0.0023928959853947163,0.0008889418095350266,-0.0005731726996600628
1772699601642035700,3.70103564453125,-0.0027645817026495934,0.0016799001023173332,0.0004074033349752426
1772699601651992600,3.71099267578125,0.0010075164027512074,0.0003050686791539192,0.0006821216084063053
1772699601661950200,3.7209501953125,-0.0010015723528340459,0.0005064038559794426,-0.0011951406486332417
1772699601671908000,3.730908203125,-0.000735327834263444,0.0001524495892226696,0.000418816227465868
1772699601681865200,3.740865234375,0.0008668298833072186,0.002126118168234825,-0.0009090360254049301
1772699601691822000,3.750822021484375,-0.000878803082741797,0.0015533044934272766,-0.0014805227983742952
1772699601701779200,3.760779296875,0.0017420139629393816,-0.002033440861850977,0.00104069197550416
1772699601711736300,3.770736328125,-0.000050548696890473366,-0.0029079760424792767,0.0012556370347738266
1772699601721693200,3.780693115234375,0.0006418731063604355,-0.0027439252007752657,0.001913970336318016
1772699601731650000,3.790650146484375,0.0014438796788454056,-0.0003513083793222904,-0.0004931234288960695
1772699601741608200,3.800608154296875,-0.0020451275631785393,0.00011234777048230171,-0.003293437184765935
1772699601751565300,3.8105654296875,0.0015160301700234413,-0.00027485424652695656,0.0004976596683263779
1772699601761522200,3.820522216796875,0.0010222804266959429,0.0015235785394906998,-0.0009260661900043488
1772699601771479000,3.83047900390625,0.0018845670856535435,0.0018233414739370346,0.0008445964194834232
1772699601781436200,3.840436279296875,-0.0005959011614322662,-0.00002835458144545555,-0.0006526329088956118
1772699601791393300,3.850393310546875,0.0004151675384491682,0.0010088770650327206,0.0005027004517614841
1772699601801351200,3.86035107421875,0.0026130746118724346,-0.0002065896987915039,-0.0007812094409018755
1772699601811308000,3.87030810546875,0.00014581158757209778,0.0025910590775310993,-0.00188192049972713
1772699601821265200,3.88026513671875,0.0004576677456498146,-0.0013118037022650242,0.000695220660418272
1772699601831222000,3.890221923828125,-0.00026769028045237064,0.000875379890203476,-0.002745463978499174
1772699601841179100,3.90017919921875,0.0018828120082616806,-0.0025055031292140484,-0.0009827178437262774
1772699601851136300,3.91013623046875,0.0006860841531306505,0.0004738420248031616,0.0016277600079774857
1772699601861094100,3.92009423828125,-0.0028607137501239777,0.00006637861952185631,-0.00044844066724181175
1772699601871051000,3.930051025390625,-0.0004840053152292967,-0.0017010727897286415,0.0020797522738575935
1772699601881008000,3.940008056640625,-0.00027947453781962395,0.00013677449896931648,-0.0009977964218705893
1772699601890965200,3.94996533203125,-0.000031102681532502174,0.0026122713461518288,0.0003722147084772587
1772699601900922000,3.959922119140625,0.00032602716237306595,0.0006508533842861652,-0.0028616618365049362
1772699601910879200,3.969879150390625,-0.000153030501678586,0.0019976808689534664,-0.0007834301795810461
1772699601920836000,3.979836181640625,-0.0004632887430489063,0.0017068642191588879,0.0018469737842679024
1772699601930794200,3.989794189453125,-0.00013947905972599983,-0.0008930978365242481,0.0004004393704235554
1772699601940751000,3.999751220703125,0.0008703914936631918,0.0008691158145666122,0.0013565141707658768
1772699601950708200,4.009708251953125,0.0033232499845325947,-0.0009379261173307896,0.00008676992729306221
1772699601960665300,4.019665283203125,0.0001476965844631195,-0.0004558940418064594,-0.00003360491245985031
1772699601970622000,4.0296220703125,-0.0003981189802289009,0.00021884357556700706,0.001157855149358511
1772699601980579000,4.0395791015625,-0.0003089031670242548,-0.0006261770613491535,0.0005874061025679111
1772699601990537200,4.049537109375,-0.0008419519290328026,0.0002510841004550457,-0.00014099804684519768
1772699602000494300,4.059494384765625,0.002050773473456502,-0.0008197729475796223,0.0016457168385386467
1772699602010451200,4.069451171875,-0.0005189797375351191,0.001022192183881998,-0.0017685682978481054
1772699602020408000,4.079407958984375,0.0007079385686665773,0.001663481816649437,0.0007129651494324207
1772699602030365200,4.089365234375,-0.0018484625034034252,0.0009166952222585678,0.0006563807837665081
1772699602040322000,4.099322021484375,-0.0024439452681690454,0.0016820873133838177,0.0014209742657840252
1772699602050280200,4.1092802734375,-0.00018961564637720585,0.00007068412378430367,-0.0004987006541341543
1772699602060237000,4.119237060546875,0.00043223239481449127,0.001334087923169136,-0.000008945353329181671
1772699602070194200,4.129194091796875,0.0018014560919255018,-0.0009513073600828648,0.000026852823793888092
1772699602080151000,4.139151123046875,-0.0011669032974168658,-0.0002998979762196541,-0.0013563933316618204
1772699602090108200,4.149108154296875,0.0008389991708099842,0.0011255806311964989,0.0005161291919648647
1772699602100065300,4.159065185546875,-0.0014015182387083769,0.00117777893319726,0.0008082780987024307
1772699602110022100,4.169022216796875,-0.001601777970790863,0.000790787860751152,0.0014137420803308487
1772699602119980000,4.17897998046875,-0.000027317088097333908,-0.000509100966155529,-0.00201667589135468
1772699602129937200,4.188937255859375,-0.00004591350443661213,-0.0032278576400130987,-0.0006088106893002987
1772699602139894300,4.198894287109375,0.0003924428019672632,-0.002211329061537981,-0.0012865851167589426
1772699602149851100,4.20885107421875,0.0020438781939446926,-0.0007803537882864475,-0.0020237870048731565
1772699602159808300,4.218808349609375,0.0013509239070117474,0.0010274001397192478,-0.0035822689533233643
1772699602169765000,4.22876513671875,0.0009529686067253351,0.001993913669139147,-0.00243182759732008
1772699602179723300,4.23872314453125,0.0023223659954965115,-0.0005374206230044365,0.0002489103935658932
1772699602189680000,4.24868017578125,-0.0006059545557945967,0.0009352019988000393,-0.001491753850132227
1772699602199637200,4.25863720703125,-0.003200672334060073,-0.001942609902471304,0.001480333972722292
1772699602209594400,4.268594482421875,0.0028370595537126064,-0.00008379481732845306,0.00286243949085474
1772699602219551000,4.278551025390625,-0.001925471588037908,0.0012752162292599678,-0.0011075346264988184
1772699602229508000,4.288508056640625,-0.000675971619784832,-0.0006952681578695774,-0.00018365588039159775
1772699602239465200,4.29846533203125,-0.0003020637668669224,-0.0004047174006700516,-0.0007160217501223087
1772699602249423400,4.30842333984375,-0.0005521045532077551,-0.00042629241943359375,-0.00006490899249911308
1772699602259380200,4.318380126953125,0.00016135629266500473,0.0027447333559393883,0.0005918261595070362
1772699602269337000,4.328337158203125,0.001991751603782177,-0.0010098428465425968,-0.0002897302620112896
1772699602279294200,4.338294189453125,0.00037441402673721313,0.00238622073084116,-0.0026676668785512447
1772699602289251000,4.3482509765625,-0.0015908776549622416,0.000793499406427145,-0.00280204601585865
1772699602299208200,4.358208251953125,0.0024717748165130615,0.0012006964534521103,-0.0009053428657352924
1772699602309166000,4.368166015625,0.0005338115151971579,-0.002104217652231455,0.0016714651137590408
1772699602319123200,4.378123291015625,-0.0029581254348158836,-0.0033684205263853073,0.0014999574050307274
1772699602329080000,4.388080078125,0.001979351043701172,-0.0017787283286452293,0.001358943060040474
1772699602339037200,4.398037109375,-0.0037214113399386406,-0.000795222818851471,-0.0023399214260280132
1772699602348994300,4.407994384765625,-0.0005877052899450064,-0.00009370781481266022,-0.001565201673656702
1772699602358951200,4.417951171875,-0.0012630828423425555,-0.0012463238090276718,-0.001195821212604642
1772699602368908300,4.427908203125,-0.0007281892467290163,0.00047834357246756554,0.0002682246267795563
1772699602378866200,4.4378662109375,-0.0013050299603492022,0.000859708059579134,0.00006049824878573418
1772699602388823300,4.4478232421875,0.00044961972162127495,0.0005782917141914368,0.001067935023456812
1772699602398780200,4.4577802734375,0.002732215216383338,0.00041397474706172943,-0.0003320886753499508
1772699602408737300,4.4677373046875,-0.001452815835364163,0.0004028300754725933,-0.0014019743539392948
1772699602418694100,4.477694091796875,-0.00394313782453537,0.00024117622524499893,0.00017248652875423431
1772699602428651000,4.487651123046875,-0.0006912467069923878,0.0027008550241589546,-0.003231222741305828
1772699602438609200,4.497609130859375,0.00033167353831231594,-0.001483770553022623,-0.000357672106474638
1772699602448566300,4.507566162109375,0.0005404762923717499,-0.0008659735321998596,0.0005053351633250713
1772699602458523400,4.5175234375,0.0019663325510919094,-0.0005418667569756508,0.0004563326947391033
1772699602468480000,4.52747998046875,0.0028253463096916676,0.001304842997342348,0.0002531236968934536
1772699602478437000,4.53743701171875,0.0012090739328414202,0.00016314582899212837,0.0012315688654780388
1772699602488394200,4.547394287109375,-0.0022112904116511345,0.0016233902424573898,-0.000274567399173975
1772699602498352000,4.55735205078125,-0.000353469280526042,0.000998612493276596,-0.0013917635660618544
1772699602508309200,4.567309326171875,-0.0030738648492842913,0.0022823470644652843,-0.0034120737109333277
1772699602518266000,4.57726611328125,-0.0003372004721313715,0.00038031674921512604,-0.0013848755042999983
1772699602528223200,4.58722314453125,-0.000026760855689644814,-0.0014962865971028805,-0.002606320194900036
1772699602538180000,4.59718017578125,-0.0028342653531581163,0.0000776415690779686,-0.0003828471526503563
1772699602548137200,4.60713720703125,0.004174273461103439,0.00003597186878323555,-0.0005429221782833338
1772699602558094300,4.61709423828125,-0.0016487285029143095,0.00028977077454328537,0.00010023126378655434
1772699602568052000,4.627052001953125,-0.0021219011396169662,0.0006065396592020988,-0.0022001496981829405
1772699602578009000,4.637009033203125,0.0008573769591748714,0.0006374325603246689,0.001291787251830101
1772699602587966200,4.64696630859375,-0.0010467268293723464,-0.0017820303328335285,-0.0016873760614544153
1772699602597923300,4.65692333984375,0.0027855620719492435,0.0011711488477885723,0.0012080124579370022
1772699602607880200,4.666880126953125,0.0016565888654440641,0.0012840237468481064,-0.0008213680703192949
1772699602617837300,4.67683740234375,0.0034923057537525892,-0.0005407743155956268,-0.00027621909976005554
1772699602627795200,4.686795166015625,-0.00008448981679975986,-0.002066217362880707,-0.0013264943845570087
1772699602637752000,4.696751953125,0.0006566678639501333,-0.001174058299511671,-0.0011067837476730347
1772699602647709200,4.706709228515625,-0.0009144386276602745,0.0004283157177269459,0.001201440580189228
1772699602657666000,4.716666015625,-0.001647606841288507,-0.0009314944036304951,-0.0010752957314252853
1772699602667623000,4.726622802734375,-0.0006690400186926126,0.0012337397783994675,-0.0008946175221353769
1772699602677579800,4.736579833984375,-0.002823803573846817,0.0022955420427024364,-0.000730833038687706
1772699602687537000,4.746536865234375,0.0006420037243515253,0.0013962765224277973,0.00018034270033240318
1772699602697495000,4.7564951171875,0.00191099988296628,0.0019166581332683563,0.00021895859390497208
1772699602707452000,4.766451904296875,-0.0014565616147592664,-0.000898528378456831,0.0032849470153450966
1772699602717408800,4.77640869140625,-0.0012986361980438232,-0.001099863089621067,0.0010257875546813011
1772699602727366000,4.786365966796875,0.0017160603310912848,0.0005451161414384842,-0.0013051291462033987
1772699602737322800,4.79632275390625,-0.0014267358928918839,-0.0011324090883135796,0.000010738614946603775
1772699602747280000,4.80627978515625,0.0004358903970569372,0.0008113360963761806,-0.0008796642068773508
1772699602757238000,4.816238037109375,0.0027837331872433424,0.0011125393211841583,0.000603982713073492
1772699602767195000,4.82619482421875,0.0017977573443204165,0.0008321884088218212,-0.00033401791006326675
1772699602777151700,4.83615185546875,0.00042356643825769424,-0.00018567172810435295,0.0012252633459866047
1772699602787108900,4.84610888671875,-0.0010357171995565295,0.0012081610038876534,-0.00047326437197625637
1772699602797066000,4.85606591796875,0.00020877784118056297,0.0004949662834405899,-0.0005198696162551641
1772699602807022800,4.86602294921875,0.002177906222641468,-0.0005069966427981853,0.0010967259295284748
1772699602816980000,4.87597998046875,0.0008519182447344065,-0.0005781031213700771,-0.000027128029614686966
1772699602826937900,4.885937744140625,0.0008560253772884607,-0.0006122146733105183,-0.0014766009990125895
1772699602836895000,4.89589501953125,0.0009146148804575205,0.0013318927958607674,-0.000669396948069334
1772699602846851800,4.905851806640625,-0.0033080452121794224,0.0013513448648154736,0.0009477930143475533
1772699602856809000,4.91580908203125,-0.004116314463317394,0.0015920945443212986,-0.0002825874835252762
1772699602866766000,4.92576611328125,-0.00044650444760918617,-0.0005174605175852776,0.0004940484650433064
1772699602876722700,4.93572265625,0.0017274341080337763,0.0021094814874231815,-0.000769355334341526
1772699602886680800,4.945680908203125,-0.00021450710482895374,0.0023839669302105904,-0.0022675911895930767
1772699602896638000,4.955637939453125,0.0006933645345270634,0.00035836687311530113,-0.003958964720368385
1772699602906595000,4.965594970703125,0.00247633527033031,0.00046993279829621315,0.0006702016107738018
1772699602916552000,4.975552001953125,-0.0025594360195100307,-0.00206140149384737,0.0012204106897115707
1772699602926508800,4.9855087890625,-0.0007256524404510856,0.0021271659061312675,-0.004871107172220945
1772699602936466000,4.9954658203125,0.0008607925847172737,0.0014941329136490822,0.001756435725837946
1772699602946422800,5.0054228515625,-0.00036627333611249924,0.0009986134245991707,0.0010213777422904968
1772699602956381000,5.015380859375,0.0031080865301191807,-0.0007295119576156139,0.0032664225436747074
1772699602966337800,5.025337890625,0.0015480050351470709,-0.0004812171682715416,-0.0026161624118685722
1772699602976295000,5.035294921875,-0.00006187567487359047,0.000979260541498661,0.00009253900498151779
1772699602986251800,5.045251708984375,-0.0019333385862410069,0.00248361611738801,-0.0030456818640232086
1772699602996209000,5.055208984375,-0.0006222643423825502,0.000386643223464489,-0.002111711073666811
1772699603006166000,5.065166015625,0.0021917144767940044,0.0004651942290365696,0.0001676836982369423
1772699603016124000,5.0751240234375,-0.0003518706653267145,-0.0012397617101669312,-0.0006509718950837851
1772699603026080800,5.085080810546875,0.0024010129272937775,-0.0014479556120932102,0.00009166775271296501
1772699603036038000,5.095037841796875,0.0007341406308114529,0.0021278709173202515,-0.0008521564304828644
1772699603045995000,5.1049951171875,-0.0016750956419855356,-0.0010469472035765648,0.0024282033555209637
1772699603055952000,5.114951904296875,-0.0007139607332646847,0.0007152664475142956,0.0007789074443280697
1772699603065909000,5.124908935546875,0.000336973462253809,-0.0012319986708462238,0.000555101316422224
1772699603075865900,5.134865966796875,0.00039875879883766174,-0.0007355855777859688,-0.0024518738500773907
1772699603085824000,5.144823974609375,-0.0039119599387049675,0.003062911331653595,-0.00041612633503973484
1772699603095780900,5.15478076171875,-0.0020008753053843975,0.00040401099249720573,0.0033383979462087154
1772699603105738000,5.164738037109375,0.001452734461054206,0.0018407809548079967,0.002247205004096031
1772699603115695000,5.174695068359375,0.001095071667805314,0.0002194480039179325,0.0015750234015285969
1772699603125651700,5.184651611328125,-0.0007882125210016966,0.00013305572792887688,0.0006997352465987206
1772699603135608800,5.19460888671875,-0.0012492056703194976,0.002276900690048933,-0.0013354525435715914
1772699603145567000,5.20456689453125,0.0013190798927098513,-0.001545017585158348,0.002885247580707073
1772699603155524000,5.214524169921875,-0.003129997057840228,-0.0013247737661004066,-0.0008319923654198647
1772699603165481000,5.22448095703125,0.0014801218640059233,-0.0020383410155773163,0.0007178201340138912
1772699603175437800,5.234437744140625,-0.000006721122190356255,-0.0012497790157794952,-0.0015583839267492294
1772699603185395000,5.24439501953125,-0.0005013642366975546,-0.0005988762713968754,-0.00012442423030734062
1772699603195351800,5.254351806640625,-0.0004680745769292116,-0.00008115777745842934,0.0021919934079051018
1772699603205309000,5.264308837890625,-0.00017705000936985016,-0.001314489170908928,-0.002594851888716221
1772699603215266800,5.274266845703125,-0.0005078145768493414,0.001353731844574213,0.0003593927249312401
1772699603225224000,5.284223876953125,0.0012111468240618706,-0.00294380821287632,0.001079463865607977
1772699603235180800,5.294180908203125,-0.0010216474765911698,0.001935369335114956,0.0004299189895391464
1772699603245138000,5.304137939453125,0.002075792523100972,-0.0005954690277576447,-0.0011312118731439114
1772699603255095000,5.314094970703125,-0.0007447612006217241,0.003302333876490593,-0.0008651621174067259
1772699603265052000,5.324052001953125,0.00043144472874701023,-0.0026229366194456816,0.0016403710469603539
1772699603275009800,5.334009765625,0.0013683447614312172,0.0014282637275755405,-0.0006765793077647686
1772699603284967000,5.343966796875,0.0007026439998298883,0.0010471846908330917,-0.001786170294508338
1772699603294924000,5.353924072265625,0.0018696412444114685,0.0008857971988618374,-0.0018519503064453602
1772699603304881000,5.363880859375,-0.001291693770326674,-0.0007002009078860283,0.0006666844710707664
1772699603314838000,5.373838134765625,-0.000673041446134448,0.0006561470218002796,-0.0006502489559352398
1772699603324795000,5.383794921875,-0.000097617506980896,-0.001255121547728777,0.0005962857976555824
1772699603334751700,5.393751708984375,0.0019532826263457537,0.002482891082763672,-0.0023331916891038418
1772699603344710000,5.4037099609375,-0.002841070294380188,-0.0016267425380647182,-0.0009719308000057936
1772699603354667000,5.4136669921875,-0.0013550264993682504,0.00006569642573595047,-0.002620960120111704
1772699603364624100,5.4236240234375,-0.0006276816129684448,-0.00043945154175162315,-0.0001460709609091282
1772699603374580700,5.433580810546875,-0.0013134456239640713,-0.0016234931536018848,-0.0004315616097301245
1772699603384537900,5.443537841796875,0.0013734924141317606,-0.0026474373880773783,-0.00007957406342029572
1772699603394495000,5.453494873046875,-0.000576740363612771,0.001460222527384758,-0.0012226030230522156
1772699603404452900,5.463452880859375,0.0008797973860055208,0.00005479436367750168,0.000757983885705471
1772699603414410000,5.473409912109375,0.0010790019296109676,-0.0009630657732486725,0.003437390085309744
1772699603424366800,5.483366943359375,0.0015688485000282526,0.0008190791122615337,-0.00003689853474497795
1772699603434324000,5.493323974609375,0.0015640549827367067,0.0011626267805695534,-0.0007455658633261919
1772699603444280800,5.50328076171875,-0.0006122996564954519,-0.0010661827400326729,0.000033079180866479874
1772699603454238000,5.513238037109375,-0.0010296170366927981,-0.0020922990515828133,0.0012807701714336872
1772699603464195000,5.523195068359375,-0.000678027980029583,-0.0022111316211521626,0.00041878363117575645
1772699603474152700,5.533152587890625,-0.0030570297967642546,-0.00126304617151618,-0.0021756677888333797
1772699603484109800,5.54310986328125,0.0015696673654019833,0.0024555912241339684,0.0007015070877969265
1772699603494067000,5.55306689453125,-0.0007795072160661221,-0.0007929322309792042,-0.0019355551339685917
1772699603504024000,5.563024169921875,-0.0007334661204367876,-0.0004555489867925644,0.001998760737478733
1772699603513981000,5.57298095703125,0.0022716447710990906,-0.0009895125404000282,-0.00020820088684558868
1772699603523938000,5.58293798828125,0.0009234331082552671,-0.0016667414456605911,0.0011012125760316849
1772699603533896000,5.59289599609375,0.000313302967697382,-0.00041745277121663094,0.000877507496625185
1772699603543852800,5.602852783203125,-0.0008190779481083155,-0.00040534744039177895,-0.00012191152200102806
1772699603553810000,5.612809814453125,0.0013593879994004965,-0.002528419718146324,0.0016672001220285892
1772699603563767000,5.62276708984375,-0.00012068403884768486,0.0008420799858868122,0.0007876260206103325
1772699603573724000,5.632723876953125,-0.0005515834782272577,-0.00029801949858665466,-0.0013953670859336853
1772699603583680800,5.6426806640625,0.0013876878656446934,-0.000631280243396759,-0.001989226322621107
1772699603593638000,5.652637939453125,-0.00007278961129486561,0.0009085596539080143,-0.0017942830454558134
1772699603603596000,5.662595947265625,0.001701329369097948,0.00024960190057754517,0.0013353321701288223
1772699603613553000,5.672552978515625,-0.0008425218984484673,0.001683714333921671,-0.0022223845589905977
1772699603623509800,5.682509765625,0.0008454255294054747,0.00034147873520851135,0.002139393240213394
1772699603633467000,5.692466796875,-0.000028091249987483025,-0.003716113744303584,0.0016499040648341179
1772699603643423700,5.702423828125,-0.0012936455896124244,-0.0010373829863965511,0.0016560349613428116
1772699603653380900,5.712380859375,-0.0020678264554589987,0.002293964847922325,0.0003042141906917095
1772699603663337700,5.722337646484375,0.000997659983113408,-0.0007457449100911617,-0.0018615743611007929
1772699603673295600,5.732295654296875,0.00009058741852641106,0.0015341872349381447,0.0035270657390356064
1772699603683252700,5.742252685546875,0.0016181201208382845,-0.0010581202805042267,0.0016057132743299007
1772699603693209600,5.752209716796875,-0.0007145424606278539,-0.0014147176407277584,0.0019644410349428654
1772699603703166700,5.762166748046875,-0.00009920960292220116,0.0018795281648635864,-0.0025603617541491985
1772699603713123800,5.772123779296875,-0.0016976390033960342,0.0012984266504645348,-0.0011976221576333046
1772699603723080700,5.782080810546875,0.000345687847584486,-0.00004456983879208565,-0.001910124672576785
1772699603733038600,5.79203857421875,0.0005432944744825363,-0.002095470204949379,-0.002047277521342039
1772699603742995700,5.80199560546875,0.0008776679169386625,0.00026270700618624687,0.002500238362699747
1772699603752952800,5.811952880859375,0.0008963099680840969,-0.0008425051346421242,-0.0004516094923019409
1772699603762909700,5.82190966796875,-0.00026374170556664467,0.0008363327942788601,0.001274419017136097
1772699603772866800,5.83186669921875,0.0008156374096870422,0.0008650948293507099,0.00003205426037311554
1772699603782823700,5.84182373046875,0.00011799484491348267,0.00003102375194430351,-0.0009020830038934946
1772699603792780500,5.851780517578125,0.0014088291209191084,0.0009865658357739449,0.003275617491453886
1772699603802738700,5.86173876953125,0.0005379854701459408,-0.0029904625844210386,0.0006332346238195896
1772699603812695800,5.87169580078125,0.0007837952580302954,0.000463124830275774,-0.0001388154923915863
1772699603822653000,5.88165283203125,0.00038831448182463646,-0.0014325990341603756,0.0019673709757626057
1772699603832609500,5.891609619140625,-0.0008971934439614415,-0.0009039612486958504,-0.0014875479973852634
1772699603842566700,5.901566650390625,0.0012241327203810215,0.0005263779312372208,0.0013998830690979958
1772699603852523800,5.911523681640625,-0.0005822896491736174,0.0009740553796291351,0.0007458105683326721
1772699603862482000,5.92148193359375,0.0011219095904380083,0.0004036901518702507,-0.00245688040740788
1772699603872438800,5.931438720703125,0.00042522652074694633,-0.00017208559438586235,0.001391653437167406
1772699603882395600,5.941395751953125,0.00008455244824290276,0.0004804120399057865,-0.004231319762766361
1772699603892352800,5.951352783203125,-0.00214344821870327,0.0007475269958376884,-0.00027759047225117683
1772699603902309600,5.9613095703125,-0.002088849665597081,0.0008812136948108673,-0.000763322226703167
1772699603912266800,5.971266845703125,-0.0009910946246236563,-0.0010229460895061493,0.0025515141896903515
1772699603922223900,5.981223876953125,0.0002217299770563841,0.00044726068153977394,0.0013567274436354637
1772699603932181800,5.991181640625,0.0007455737795680761,-0.00027445564046502113,0.0008834833279252052
1772699603942138600,6.001138671875,-0.0008466202998533845,0.00127887399867177,-0.002670369576662779
1772699603952095700,6.011095703125,-0.00038056704215705395,0.0007766019552946091,0.0014862925745546818
1772699603962052900,6.021052978515625,0.0017222228925675154,-0.0018420414999127388,0.0004213606007397175
1772699603972009700,6.031009765625,0.0017930630128830671,-0.00013681966811418533,0.002740441355854273
1772699603981966800,6.040966796875,0.0014343047514557838,-0.0019054054282605648,-0.000962182180956006
1772699603991923700,6.050923828125,0.003168288618326187,0.00008610635995864868,0.0009129494428634644
1772699604001881900,6.0608818359375,-0.0017641960876062512,-0.0009853332303464413,-0.00017203064635396004
1772699604011838700,6.070838623046875,-0.0008587213233113289,-0.0011874670162796974,-0.0003997310996055603
1772699604021795800,6.0807958984375,0.0007823915220797062,-0.001283458899706602,-0.002662103855982423
1772699604031752700,6.090752685546875,-0.0005545152816921473,0.0009581241756677628,0.0009363596327602863
1772699604041709600,6.10070947265625,0.0018772128969430923,-0.0016766279004514217,0.0005259807221591473
1772699604051666700,6.110666748046875,-0.0014101930428296328,-0.001384213101118803,-0.0021262613590806723
1772699604061624800,6.120624755859375,0.0015740543603897095,-0.0006432458758354187,0.001010439358651638
1772699604071582000,6.13058203125,0.00006564008072018623,-0.001334069762378931,-0.002119307406246662
1772699604081538600,6.14053857421875,0.0012397198006510735,-0.00037226732820272446,-0.00275923078879714
1772699604091495700,6.15049560546875,-0.0009576544398441911,-0.00004922598600387573,-0.0005061966367065907
1772699604101452800,6.160452880859375,0.0003959240857511759,-0.0015339236706495285,-0.0034500369802117348
1772699604111409700,6.17040966796875,-0.0005367149133235216,-0.0007917005568742752,-0.000056370627135038376
1772699604121366800,6.18036669921875,0.0009642706718295813,-0.000029883813112974167,-0.0010352577082812786
1772699604131324700,6.19032470703125,0.0018324609845876694,0.000774923712015152,-0.0022893401328474283
1772699604141281800,6.20028173828125,0.00039559253491461277,0.0009290017187595367,-0.00027951784431934357
1772699604151238700,6.21023876953125,-0.0029762357007712126,-0.0017546657472848892,-0.00011786399409174919
1772699604161195800,6.22019580078125,-0.0008461079560220242,0.0010282108560204506,0.0007605748251080513
1772699604171153000,6.23015283203125,-0.0009654175955802202,0.0010007801465690136,0.0010015908628702164
1772699604181109800,6.24010986328125,0.0015974475536495447,-0.00005410797894001007,-0.0005957884714007378
1772699604191067600,6.250067626953125,-0.0006111119873821735,0.0004526912234723568,-0.0003915238194167614
1772699604201024800,6.260024658203125,-0.0010429869871586561,-0.0009285090491175652,0.0031409398652613163
1772699604210982000,6.26998193359375,0.0006891330704092979,0.00013888627290725708,0.00005247211083769798
1772699604220938800,6.279938720703125,0.00042669312097132206,0.00015418743714690208,-0.0025669322349131107
1772699604230895900,6.289895751953125,0.0014618635177612305,-0.00029748445376753807,-0.00001269439235329628
1772699604240852700,6.299852783203125,0.0019075905438512564,-0.0016118050552904606,-0.0012539331801235676
1772699604250809600,6.3098095703125,0.0003879906143993139,0.00038023944944143295,-0.0019202560652047396
1772699604260767700,6.319767822265625,-0.000029486604034900665,-0.000051186420023441315,-0.0007791048847138882
1772699604270724900,6.329724853515625,-0.0015397651586681604,0.00025614211335778236,-0.0006408868357539177
1772699604280681700,6.339681640625,0.0005640552844852209,-0.0007873331196606159,0.000006188172847032547
1772699604290638600,6.349638671875,0.00012942729517817497,-0.001887219026684761,-0.0018710740841925144
1772699604300595700,6.359595703125,-0.00012128730304539204,-0.00016440730541944504,0.0003126473166048527
1772699604310552800,6.369552734375,0.0010947119444608688,0.00038819853216409683,0.0008279690518975258
1772699604320509700,6.379509765625,-0.0009037407580763102,-0.00015383679419755936,0.0007529645226895809
1772699604330467600,6.389467529296875,0.0028033792041242123,-0.0004118969663977623,0.0026555266231298447
1772699604340424700,6.3994248046875,-0.00028336443938314915,0.0023363702930510044,-0.0004079448990523815
1772699604350381800,6.4093818359375,0.001492963870987296,-0.00017898483201861382,-0.0009837201796472073
1772699604360338700,6.419338623046875,0.001045943470671773,-0.00022147316485643387,-0.0000664805993437767
1772699604370295800,6.4292958984375,0.00013540848158299923,-0.00015329616144299507,0.0014933329075574875
1772699604380253000,6.4392529296875,-0.0009292458416894078,-0.001507702749222517,-0.00006952416151762009
1772699604390210800,6.4492109375,-0.00007357215508818626,0.0003141658380627632,-0.0004325129557400942
1772699604400167700,6.459167724609375,-0.0017188487108796835,-0.002177325077354908,-0.00019651232287287712
1772699604410124800,6.469124755859375,-0.0008631751406937838,-0.0012082005850970745,-0.0019078594632446766
1772699604420082000,6.47908203125,0.0014453260228037834,0.0008412022143602371,-0.0026655709370970726
1772699604430038800,6.489038818359375,-0.0011467286385595798,-0.0003878464922308922,-0.0005076115485280752
1772699604439995600,6.49899560546875,0.00014155288226902485,-0.001176414079964161,-0.001835389994084835
1772699604449952800,6.508952880859375,0.0010419676546007395,0.0014060535468161106,-0.00021059531718492508
1772699604459910700,6.51891064453125,-0.0004911129362881184,-0.00017591845244169235,-0.0011701444163918495
1772699604469867800,6.52886767578125,0.0006809441838413477,0.00005098292604088783,-0.001031393650919199
1772699604479825000,6.538824951171875,-0.0008120591519400477,-0.0019857403822243214,0.00002745911478996277
1772699604489781800,6.54878173828125,-0.0007904875092208385,0.0004598400555551052,-0.001973639940842986
1772699604499738600,6.558738525390625,-0.0009685795521363616,0.00038132211193442345,0.0008869548328220844
1772699604509695700,6.56869580078125,0.00068444455973804,0.015105938538908958,0.012636288069188595
1772699604519654000,6.57865380859375,0.0018595110159367323,-0.0014643301256000996,-0.003230549395084381
1772699604529610800,6.58861083984375,0.0009324646089226007,-0.004342941101640463,0.00009866803884506226
1772699604539567600,6.598567626953125,-0.0016641842667013407,-0.006770969834178686,-0.002351708710193634
1772699604549524700,6.608524658203125,-0.00134061009157449,-0.00462712487205863,-0.0011833799071609974
1772699604559481900,6.61848193359375,-0.0013987018028274179,-0.002656832104548812,-0.0006713911425322294
1772699604569438700,6.628438720703125,-0.00102452770806849,-0.0009979489259421825,-0.0006801795680075884
1772699604579395800,6.638395751953125,0.0006816447712481022,-0.0024776766076684,-0.003325110301375389
