time,seconds_elapsed,z,y,x
1772698677034372000,0.0743720703125,-0.030741759744286536,0.37954350697696204,-0.00055127720721066
1772698677044329200,0.0843291015625,-0.1699298656821251,0.49159869131743905,0.11119608329311012
1772698677054286000,0.0942861328125,-0.11765658454410731,0.4710182601034641,0.1024923514262773
1772698677064243200,0.1042431640625,-0.08155833926796913,0.40497663891911506,0.0026622232128866016
1772698677074200000,0.114199951171875,-0.11602576847188174,0.2999006459414959,-0.044837870440259574
1772698677084157000,0.124156982421875,-0.09995382765829562,0.19291560447216033,-0.08138559478325769
1772698677094114000,0.134114013671875,-0.0743617057621479,0.12740706725120543,-0.08836144341155887
1772698677104071200,0.1440712890625,-0.1739637243080884,0.08994447481930255,0.007778177987132221
1772698677114028000,0.154028076171875,-0.2377683071553707,0.08537935886085032,0.03299604147709906
1772698677123985200,0.163985107421875,-0.22443536285161972,0.11698738004565239,0.04832463484378531
1772698677133942000,0.17394189453125,-0.23445114543139933,0.03901157543957233,0.11595725154662503
1772698677143899000,0.18389892578125,-0.26350955519862473,-0.01253916357755661,0.15119217625800518
1772698677153856000,0.19385595703125,-0.13008531001713125,-0.009926350730657577,0.03546322617507539
1772698677163813000,0.203813232421875,-0.11720073053538799,0.016287117934226988,0.021728432205319403
1772698677173770200,0.213770263671875,-0.11799568030536174,0.03766483700573444,0.09632466824254952
1772698677183727000,0.22372705078125,-0.12439915413949638,0.00812543878853321,0.11390136932958848
1772698677193684200,0.233684326171875,-0.062101322593353686,-0.0380371774494648,0.0903246789090801
1772698677203640000,0.24364013671875,-0.0499971163669601,-0.1250304012477398,0.07055050431038253
1772698677213597200,0.25359716796875,-0.09680329120550304,-0.2004185274481773,0.042053217290947215
1772698677223554000,0.263553955078125,-0.06159987587723881,-0.17197569229602813,0.011159828915214165
1772698677233511000,0.273510986328125,-0.07417465875744819,-0.062271454995870584,0.07270844496267381
1772698677243468000,0.283468017578125,-0.06059091803040355,0.042216508960723875,0.10179321758043952
1772698677253425200,0.293425048828125,-0.0796773112943396,0.1024427218645811,0.07921784055642783
1772698677263382300,0.30338232421875,-0.0645054611256346,0.18246727569401264,0.05485561664826236
1772698677273339100,0.313339111328125,-0.047945371468923983,0.1913473322421312,0.0933765498935245
1772698677283296000,0.3232958984375,0.0024736966371536255,0.15335691654384134,0.10939507088628597
1772698677293253000,0.333253173828125,0.052852469265460965,0.16259411596655846,0.04621577119734138
1772698677303210000,0.3432099609375,0.07696633530259132,0.1478121418982744,0.11107969950498081
1772698677313167000,0.3531669921875,0.0649772433558479,0.05046820447742939,0.20954070392278953
1772698677323124200,0.363124267578125,0.04808510873317718,-0.07876724724471569,0.19417643645452334
1772698677333081000,0.3730810546875,0.09565583820343017,-0.13400690390765665,0.10423514910615049
1772698677343038200,0.3830380859375,0.1692144108891487,-0.1307072778403759,0.021287629635259507
1772698677352995000,0.3929951171875,0.1667641133938916,-0.21116262430250643,0.06591005352681968
1772698677362952000,0.402951904296875,0.22198095543682575,-0.25521102486550806,0.11670134791219607
1772698677372909000,0.412908935546875,0.33423253913223744,-0.16201368573009967,-0.04618274114399683
1772698677382866200,0.4228662109375,0.4374181883186102,0.06362754577994346,-0.09438929799948818
1772698677392823000,0.432822998046875,0.34930560510158537,0.23183248736560344,0.07355366818173788
1772698677402780200,0.4427802734375,0.2152069312572479,0.2788806542664766,0.14172531453156842
1772698677412737000,0.452737060546875,0.24510288782715797,0.18237550575733183,0.06755020824954845
1772698677422694000,0.46269384765625,0.46515784363746643,-0.0998462756305933,-0.08634693438452667
1772698677432651000,0.472651123046875,0.4728045589983463,0.11791793889403343,0.17114112290171907
1772698677442607000,0.482607177734375,0.25834815384745596,0.5374363133847713,0.29904326192717995
1772698677452564000,0.49256396484375,0.2013350577712059,0.6305909824222325,0.12259278970411978
1772698677462521000,0.50252099609375,0.1786193498278968,0.4007955538421869,-0.0901858092945069
1772698677472478200,0.512478271484375,0.07007252066824585,0.08677578165531158,0.0193318559249863
1772698677482435000,0.52243505859375,-0.1205552651276812,-0.28517887762784955,0.165842724232655
1772698677492392000,0.532391845703125,-0.16449260653164235,-0.27995032932460306,0.20276530977003276
1772698677502349000,0.54234912109375,-0.14225976846814153,-0.10909458096921443,0.32572591900639236
1772698677512306000,0.552305908203125,-0.198406566571258,-0.37544834661781784,0.3264198560873046
1772698677522263000,0.562262939453125,-0.20598083775043485,-0.5028273568183184,0.22504121979027986
1772698677532220200,0.57222021484375,-0.21649868810083717,-0.3614326807469129,0.18188761264253406
1772698677542177300,0.58217724609375,-0.13697687789546326,-0.0923082813411951,0.04394046494280919
1772698677552134100,0.592134033203125,0.008006762578617781,0.31976445331871506,0.030266004591854287
1772698677562091000,0.602091064453125,0.09911270065903663,0.7941051358431577,0.09112986694527789
1772698677572048100,0.612048095703125,0.263887065007817,1.262920332944393,0.12047710359124467
1772698677582005000,0.6220048828125,0.4517851518452167,1.4857465070337057,0.22272072268715126
1772698677591962000,0.631962158203125,0.622865356606245,1.4256488889455794,0.31734124475978315
1772698677601919200,0.641919189453125,0.6603484073042869,1.1681933000236748,0.2684463905462995
1772698677611876000,0.6518759765625,0.11763736838698387,0.7882125706732273,0.22988957313690334
1772698677621833000,0.6618330078125,0.10428219398511573,0.2175035177618265,0.5642404779518023
1772698677631790000,0.6717900390625,-0.05713116949796676,0.5623726017206907,-0.7604243269722908
1772698677641747000,0.681746826171875,-1.444343068021536,0.6908715558618307,-0.5953054417684673
1772698677651704000,0.6917041015625,-2.0685516559302806,-0.06612286972701549,-0.5900242864951492
1772698677661661200,0.7016611328125,-0.20886253066658972,-0.2529857500314712,-0.6109426444265991
1772698677671618000,0.7116181640625,1.0344938546299933,-0.4902379243582487,-0.24106128428615628
1772698677681574100,0.72157421875,1.5228373435437679,-0.4832178164631128,0.018584371159086004
1772698677691531300,0.73153125,1.3974632434248924,-0.17926468026041983,0.10207631797129288
1772698677701488000,0.741488037109375,0.9054150547742843,0.21700141345858573,0.1406060464443639
1772698677711445000,0.751445068359375,0.3644272229203954,0.3125719114661217,0.08423148573366925
1772698677721402000,0.761402099609375,0.07784425064828246,0.23159458695650098,0.05439647013733629
1772698677731359000,0.77135888671875,0.12768877026941627,0.03642389703392982,0.08750543850357644
1772698677741316000,0.781316162109375,0.22275080729816107,-0.20287351938486098,0.18173618494048713
1772698677751271400,0.791271484375,0.20811788631174713,-0.33555881929993625,0.4377660519082099
1772698677761228500,0.801228515625,0.13281502724196761,-0.3080231621205807,0.5143734907705336
1772698677771185700,0.811185546875,0.06285948401689528,-0.12879121508598326,0.4089768875364214
1772698677781142500,0.821142578125,0.0739864427089691,0.04609481169879436,0.2752653133135289
1772698677791099600,0.831099609375,0.2516623924732208,0.3021528087824583,0.10573927919194101
1772698677801056500,0.841056396484375,0.40652211479544637,0.5983855798661708,-0.08172171313613652
1772698677811013600,0.851013671875,0.5506313105225563,0.6948106488764285,-0.3105301399728283
1772698677820970500,0.860970458984375,0.6944739642679691,0.6316875454872847,-0.566628980523534
1772698677830927600,0.870927734375,0.8033972803235053,0.6803554225444793,-0.7025454809121787
1772698677840884700,0.880884765625,0.7237468205034733,0.7381506089091301,-0.7596028545215725
1772698677850841600,0.890841552734375,0.14225390498293564,0.8841255985081196,-0.7391822169791906
1772698677860798700,0.900798828125,-0.10910568688511847,1.029960887375474,-0.4447453894015401
1772698677870755600,0.910755615234375,-0.046596934268344194,1.0698498301714658,-0.0867242523974739
1772698677880712400,0.92071240234375,-0.0927706381559372,1.1778823348671197,0.21728350006928665
1772698677890669600,0.930669677734375,-0.20779168656468391,1.4663929872661827,0.5129938729804009
1772698677900626700,0.940626708984375,-0.29161797076463697,1.6016694727182388,0.7070315402850508
1772698677910583600,0.95058349609375,-0.5980301905572414,1.7303274168133735,0.8695313290316611
1772698677920540700,0.960540771484375,-0.9588100334186106,1.9520564433157443,0.8708382469117641
1772698677930497500,0.97049755859375,-1.3626654862880705,2.0281910039693116,0.6970370196890086
1772698677940453600,0.98045361328125,-1.50343706202507,2.227095035201311,0.4201275193650275
1772698677950410500,0.990410400390625,-1.4860089573621749,2.502067576113343,-0.026112985698785632
1772698677960367600,1.00036767578125,-1.6080933682858942,2.655762346309423,-0.3078195658398792
1772698677970324500,1.010324462890625,-1.7482570412576197,2.855516272369027,-0.4323695266269147
1772698677980281600,1.020281494140625,-1.4745511592805385,3.1504882297366854,-0.6014934827536345
1772698677990238700,1.03023876953125,-1.0942975312728433,3.2896202215731143,-0.6022425110226497
1772698678000195600,1.040195556640625,-0.6984042894542217,3.2537492822468277,-0.40445473393686115
1772698678010152700,1.050152587890625,-0.3058510787785053,2.8099311637580393,-0.3005456110478379
1772698678020109600,1.060109619140625,-0.2439993104994297,1.7152075890928506,-0.18568400925081222
1772698678030066400,1.07006640625,-0.640277094656229,0.3203606656461954,-0.05434139264896512
1772698678040023600,1.0800234375,-0.7170656622391194,-0.6743488756060599,0.15269388605784623
1772698678049980700,1.089980712890625,-0.1843828635243699,-1.3925748868614434,0.5580571496743708
1772698678059937500,1.0999375,0.6431927629072218,-2.100302884978056,0.969812415882945
1772698678069894700,1.109894775390625,1.2905740635454654,-2.7679420338124037,1.1372558715768157
1772698678079851500,1.1198515625,1.852967123532295,-3.4115538258492943,1.1606364549033343
1772698678089808400,1.129808349609375,2.4004443539381026,-4.142290943631529,1.0187564064677803
1772698678099765500,1.139765625,2.7419828321695325,-5.385296031272411,0.6320676308460533
1772698678109722600,1.14972265625,2.796585359972715,-6.935505950388312,0.08186225411798805
1772698678119679700,1.1596796875,2.2876935885488985,-8.727899070492386,-0.322908523498103
1772698678129636600,1.16963671875,1.4389245501041412,-10.583881742453574,-0.6018138372818008
1772698678139593700,1.17959375,0.564192218363285,-12.088273913246393,-0.7846854925256223
1772698678149550600,1.189550537109375,0.06957089128904044,-12.707234663629531,-0.9255023687090724
1772698678159507500,1.199507568359375,0.39060324565172194,-12.261382408964634,-0.9264848769403994
1772698678169464600,1.209464599609375,1.4829776268422603,-11.251883879381417,-0.9358133348431438
1772698678179421700,1.219421630859375,3.0145161632359025,-9.995429527580738,-1.1886049505420029
1772698678189377500,1.22937744140625,4.546546867060661,-9.407773431521653,-1.4357240004971623
1772698678199334700,1.239334716796875,5.638590408861637,-9.982560693657398,-1.6888405373014508
1772698678209291800,1.249291748046875,4.646449841314554,-11.854971353328228,-1.7003808991000056
1772698678219248600,1.25924853515625,1.2182149297773837,-13.824695555281638,-1.3975496065340935
1772698678229205500,1.26920556640625,-2.2885247786760328,-14.78718566545248,-0.5618425864972174
1772698678239162600,1.27916259765625,-4.027752125781774,-14.204246661043166,0.5615996080541983
1772698678249119500,1.289119384765625,-3.9530116498351093,-12.085581605422496,1.7408507105238735
1772698678259076600,1.29907666015625,-2.7295208254814147,-8.877181869465112,2.9134938295632598
1772698678269033700,1.30903369140625,-0.9955950919151305,-5.3250137042671435,3.7324890765130516
1772698678278990600,1.318990478515625,0.28261278999950734,-2.262912783035636,3.927392639932036
1772698678288947500,1.328947509765625,0.614883125680685,0.28808512046337126,3.639965106594562
1772698678298904600,1.338904541015625,0.23750410326123236,2.371319966262579,2.701364113794267
1772698678308861400,1.348861328125,-0.28357261147499085,3.9614726041883226,1.3786365240104497
1772698678318818600,1.358818603515625,-0.6220914496243,5.138652928265929,-0.018476883063465357
1772698678328775700,1.368775634765625,-0.9842659617144613,5.967909456989169,-1.2549803337253629
1772698678338732500,1.378732666015625,-1.4922680177569387,6.648524991774559,-2.30136628620103
1772698678348689700,1.388689697265625,-1.7772586793363094,7.507873876422643,-2.90759103526026
1772698678358646500,1.398646484375,-1.7256383822143078,8.782153807771206,-2.5276214118257165
1772698678368603400,1.408603271484375,-1.590814901226759,9.735690796157717,-2.1466515253074467
1772698678378560500,1.418560546875,-1.0705424886107444,10.378588302445412,-2.1967228394217786
1772698678388517600,1.428517578125,-0.5974223243245854,11.095476343095301,-2.0361793723747135
1772698678398474800,1.438474853515625,-0.058199675512313837,11.63899752935171,-1.9948959064804017
1772698678408431600,1.448431640625,0.3444411774029955,12.006603345775604,-1.9400727216638622
1772698678418388500,1.458388427734375,0.6657189944267272,12.348497213315962,-1.7549056854918599
1772698678428345600,1.468345703125,1.0606231521427631,12.414947999823093,-1.666444434967637
1772698678438302500,1.478302490234375,1.2202946586608887,12.327550286877155,-1.4605802093341946
1772698678448258600,1.488258544921875,1.1117442675709723,12.104476860028505,-1.1788754375576973
1772698678458215400,1.49821533203125,0.7561971377313137,11.741187153238057,-1.0749064559739083
1772698678468172500,1.508172607421875,0.22339140675663946,11.19736552273035,-1.0129634292148053
1772698678478129700,1.518129638671875,-0.40989250454399734,10.528050549638271,-0.9231173002034425
1772698678488086800,1.528086669921875,-0.6805038911044597,10.08701709343195,-0.7796910452391952
1772698678498043600,1.538043701171875,-0.5814274308025836,9.999899950993061,-0.6242237124126404
1772698678508000500,1.54800048828125,-0.10609072297811507,10.04414124377966,-0.25412403334639966
1772698678517957600,1.55795751953125,0.4769371287584305,10.235468117755651,0.004138853370398283
1772698678527914500,1.56791455078125,0.8340975390136242,10.387523304051161,0.12828333862908184
1772698678537871600,1.57787158203125,0.8108066797971725,10.246371789085865,0.10088774750754237
1772698678547828700,1.587828857421875,0.473664975219965,9.846537773752212,-0.008226122684031724
1772698678557785600,1.59778564453125,0.035229125158255915,9.369351054146886,-0.2996320581331849
1772698678567742500,1.607742431640625,-0.22571429674625396,8.935844486314057,-0.6114193220276385
1772698678577699600,1.617699462890625,-0.5372340688109397,8.259266828742623,-0.9021675972856581
1772698678587656400,1.627656494140625,-1.3440250832259655,7.183687515008449,-1.349223820912838
1772698678597613600,1.637613525390625,-2.322255198842287,6.017873803597689,-1.7972475743979215
1772698678607570700,1.64757080078125,-2.820647788083553,4.977718269944191,-2.013856627538055
1772698678617527600,1.657527587890625,-2.504527828747034,4.013246630567312,-1.919510849019885
1772698678627484700,1.667484619140625,-1.6161819821953773,3.192994661554694,-1.5585133448198436
1772698678637441500,1.677441650390625,-0.3873100493252277,2.6786475473344327,-0.947139030977711
1772698678647398400,1.6873984375,0.7242962710797787,1.7294675851136445,-0.43156179044060405
1772698678657355500,1.69735546875,1.3621966997325419,-0.046232758864760394,-0.21744236215911805
1772698678667312600,1.707312744140625,1.4580886847794055,-2.1617700378537177,0.09503273786902428
1772698678677268500,1.7172685546875,1.27486211515069,-4.707295647421479,0.44722829225845634
1772698678687225600,1.7272255859375,1.6939117030858992,-6.625199061244726,0.8553772776033729
1772698678697182700,1.7371826171875,2.3245067771613597,-7.8267323208123445,1.499395969940722
1772698678707139600,1.7471396484375,2.909364182412624,-8.88214972100556,1.9970599526464938
1772698678717096400,1.757096435546875,3.548261805409193,-9.77511212144196,1.9840856125220656
1772698678727053600,1.767053466796875,5.26892123016715,-10.242060355627537,1.2742634186051784
1772698678737010400,1.777010498046875,7.447158418697119,-11.715793184262514,0.13994422153476624
1772698678746967300,1.78696728515625,6.886398512870073,-14.816685316181182,-0.6312379020236433
1772698678756924400,1.79692431640625,2.5314088214099404,-18.593483490020034,-0.7335218531299382
1772698678766881500,1.806881591796875,-3.16120310049653,-21.96866836389303,-0.0896197181106545
1772698678776838400,1.81683837890625,-7.553789239901304,-23.006166661036012,0.16730543546266852
1772698678786795300,1.826795166015625,-8.48443459752202,-20.442495738446713,0.0819969133483246
1772698678796752400,1.83675244140625,-5.290310055154562,-15.288917043727636,0.44756468460597093
1772698678806709200,1.846709228515625,-0.5140823988694697,-9.54312298220992,1.315225543590635
1772698678816666400,1.856666259765625,3.683653441673517,-4.510977541029453,2.038455500613153
1772698678826623500,1.86662353515625,5.664992093575,-1.4023311417222022,2.4246765856578945
1772698678836580400,1.876580322265625,5.287265865153074,-0.32881402121484277,2.1319744729183614
1772698678846537500,1.886537353515625,3.4401427914738654,-0.5120201325774193,1.2034246993374078
1772698678856494300,1.896494384765625,1.2869243088662623,-1.0106482841402291,0.08403967122230678
1772698678866451200,1.906451171875,-0.5091548062741756,-1.2252069806218147,-0.9285888634823262
1772698678876408300,1.916408203125,-1.1986088234882801,-0.9814730430603027,-1.6581145596481859
1772698678886365400,1.926365478515625,-0.8578582807641476,-0.2123363442569971,-1.7701283890649675
1772698678896322600,1.936322509765625,-0.1695896739423275,0.9291717779368162,-1.5035767627567052
1772698678906279400,1.946279541015625,0.21549798662569372,2.0623931333005427,-1.0922446173310278
1772698678916236300,1.956236328125,0.18935118998885153,2.869723076897859,-0.6672342943605035
1772698678926192400,1.9661923828125,-0.017303016978502273,3.2665608330249785,-0.45280623852126295
1772698678936149200,1.976149169921875,-0.45482236411664634,3.200456667998433,-0.4211560952277854
1772698678946106400,1.9861064453125,-0.8656769186258315,3.0669319946497677,-0.46501485497020184
1772698678956063200,1.996063232421875,-1.2445102315068244,3.057026102185249,-0.47044488066229967
1772698678966020400,2.006020263671875,-1.6510288391709327,3.0589784052968025,-0.22859482061862943
1772698678975977500,2.0159775390625,-1.7982453532636165,3.285304696461558,0.2056285902466625
1772698678985934300,2.025934326171875,-1.8276631709277629,3.7643420123696325,0.2508817634895444
1772698678995891500,2.035891357421875,-1.7938918342292307,4.171203734382987,0.11077990370765328
1772698679005848300,2.045848388671875,-1.3439350668549537,4.742102756908536,-0.14278978369161485
1772698679015805400,2.055805419921875,-0.7070376777648926,5.580898098349571,-0.4428079185329377
1772698679025762300,2.06576220703125,-0.14202826126720755,6.471177543312311,-0.6574452332086861
1772698679035719400,2.075719482421875,0.2550339512655511,7.167144961008429,-0.9155481801234185
1772698679045676500,2.085676513671875,0.42393860208578404,7.327896663978695,-1.050522686954215
1772698679055633400,2.09563330078125,0.2243442505020648,7.025099712073803,-1.2044493662100284
1772698679065590300,2.10559033203125,-0.22727851385567335,6.455748503512144,-1.4820843312643468
1772698679075547400,2.11554736328125,-0.7038356668531894,5.52666498838067,-1.6648635955169795
1772698679085504300,2.125504150390625,-1.0931892047047613,4.801375614610314,-1.7116767846181988
1772698679095461400,2.13546142578125,-1.3033867833673953,4.53890190526545,-1.7468252548888326
1772698679105418500,2.14541845703125,-1.078984153741598,4.654595738369226,-1.6110811519250272
1772698679115375400,2.155375244140625,-0.5794518198806792,4.724591650137305,-1.3821078533828257
1772698679125332500,2.16533251953125,-0.545069073285535,4.442568606191873,-1.0976774560347198
1772698679135289300,2.175289306640625,-0.7880898941416293,3.8134681545883415,-0.9456534685950726
1772698679145245400,2.185245361328125,-0.42952319728508587,2.9105355642795563,-0.8937113191075623
1772698679155202300,2.195202392578125,0.2607726775806397,1.7890356263697147,-0.9419507416196167
1772698679165159400,2.205159423828125,0.858780656306073,0.2601806299716234,-0.9064124683137983
1772698679175116300,2.2151162109375,0.9747264914095402,-1.8280197292804716,-0.4863141750432551
1772698679185073400,2.225073486328125,0.6195043557405472,-4.24682333125174,0.1626472343932837
1772698679195030500,2.235030517578125,0.26803368155956264,-6.488384698700904,0.5820348951764405
1772698679204987400,2.2449873046875,0.3771439715545624,-8.28347772541344,0.9024307782664894
1772698679214944300,2.2549443359375,1.069203933483362,-9.773859491032361,1.1773666404299437
1772698679224901400,2.2649013671875,2.0546448572613296,-11.241302864134312,1.289771222729981
1772698679234858200,2.274858154296875,2.7537901743412014,-13.076792783164978,1.3383201495826245
1772698679244815400,2.2848154296875,2.800188352900743,-14.858978982031344,1.4816561689801513
1772698679254772500,2.2947724609375,2.3655390447735787,-16.132870790845153,1.3682532232925295
1772698679264729300,2.304729248046875,2.2350584152959287,-16.668083582961557,1.1930606147766112
1772698679274686500,2.3146865234375,2.647648013436794,-16.783414427971838,0.8216488301984965
1772698679284643300,2.324643310546875,2.6840917842149734,-16.85127741936445,0.4809746406462043
1772698679294600400,2.334600341796875,2.0142320367217064,-16.74451098908186,0.4732791907727718
1772698679304557300,2.344557373046875,1.1811621602553874,-16.20002066553235,0.9411278078641742
1772698679314514400,2.354514404296875,0.5483481680214405,-15.194980868923663,1.5070838940948248
1772698679324471600,2.364471435546875,-0.2566448570609093,-13.846727354347705,1.9132738543264567
1772698679334428400,2.374428466796875,-1.3603285677731036,-12.002221769690513,2.226523957315087
1772698679344385300,2.38438525390625,-1.8766203863203526,-9.32072117101252,2.4525635404929518
1772698679354342400,2.39434228515625,-1.4304080661714076,-5.999841303300857,2.3747949488967657
1772698679364299300,2.40429931640625,-0.5189700978457927,-2.5791081456959244,1.9674187014900146
1772698679374256400,2.41425634765625,0.06473338812999427,0.7924398329794407,1.3401947112828492
1772698679384213500,2.424213623046875,0.23070026846528052,3.952922802507877,0.8847792401112615
1772698679394170400,2.43417041015625,0.3980138141691684,6.741357589250803,0.6767131205193698
1772698679404126500,2.44412646484375,0.43092254268899555,9.141060184910893,0.41114235847461966
1772698679414083600,2.45408349609375,-0.17367891601733862,10.816287645792961,0.025946122965589163
1772698679424040200,2.464040283203125,-1.3396633808851242,11.5903021797657,-0.3860007568249479
1772698679433997300,2.473997314453125,-2.602927412700653,11.737531553339958,-0.7588825774230062
1772698679443954400,2.483954345703125,-3.3923709864735603,11.54856497875452,-1.4217569960735736
1772698679453911300,2.493911376953125,-3.1955694804787633,11.681945859718322,-2.395409866902232
1772698679463868400,2.503868408203125,-2.0798013642191884,12.032172671318053,-3.01578983643353
1772698679473825500,2.513825439453125,-0.7237620911378413,12.43192485358715,-3.069324442744255
1772698679483782400,2.523782470703125,0.13736271714158355,12.889998291921614,-2.5927543937325477
1772698679493739300,2.5337392578125,0.7583049236655235,13.123181609374283,-1.7941243278108536
1772698679503696400,2.5436962890625,1.4675252061665058,13.060292899262905,-0.9264636880218983
1772698679513653200,2.5536533203125,1.9044892209768294,12.495414452201127,-0.23621472103781996
1772698679523610400,2.5636103515625,1.8076596628189086,11.464940939128399,0.2805493181310594
1772698679533567500,2.5735673828125,1.2182897485792636,10.261286449623107,0.5419358898263424
1772698679543524400,2.5835244140625,0.4470013881674036,9.09763020850718,0.5863248474553228
1772698679553481200,2.593481201171875,-0.21182718915846196,8.040010329833626,0.29557569541446865
1772698679563438300,2.603438232421875,-0.33825697234272956,7.318686352562904,-0.252012155758962
1772698679573395500,2.6133955078125,0.07484448431041091,7.08461631540358,-0.6789878605183214
1772698679583352300,2.623352294921875,0.6238087749361991,7.156576220721006,-0.9662845340177416
1772698679593309400,2.633309326171875,0.9269967719852924,7.2966919628977776,-1.1047188989788292
1772698679603266600,2.6432666015625,0.9434685988366603,7.446075884157419,-1.1488085083350539
1772698679613223400,2.653223388671875,0.7502571532230824,7.505111425971984,-1.1359377747155726
1772698679623179500,2.663179443359375,0.6509620086692274,7.687071921187639,-1.0807905455764382
1772698679633136400,2.673136474609375,0.6038449412506073,7.862688015812635,-0.9521901038222015
1772698679643093200,2.68309326171875,0.46883207517080006,7.924498867559432,-0.8122489875599741
1772698679653050400,2.69305029296875,0.05361227465681732,7.90216019450128,-0.5891255110245198
1772698679663007200,2.70300732421875,-0.38266777647733685,7.581506098866463,-0.25608766156956553
1772698679672964400,2.71296435546875,-0.7267394995134323,7.17342798680067,-0.24285072498619556
1772698679682921500,2.72292138671875,-1.103328394468501,6.500643876293301,-0.4136307777568698
1772698679692878600,2.732878662109375,-1.5085726713478564,5.693960998427867,-0.6186462045412511
1772698679702835200,2.742835205078125,-1.9126023848056792,4.765801027882099,-0.862687892877683
1772698679712792300,2.752792236328125,-1.965681502433866,3.4694711772888898,-0.844154968778044
1772698679722749400,2.76274951171875,-1.6210170011363922,1.9694605825811624,-0.4474193578511476
1772698679732706300,2.772706298828125,-0.9511341650284826,0.5395166267901659,0.3072907561928034
1772698679742663400,2.782663330078125,0.3818656663142144,-1.0611655884563922,1.445097685781121
1772698679752620800,2.792620849609375,1.8176034030757844,-2.9556209066748615,2.8395681771308183
1772698679762577700,2.80257763671875,2.737867798066139,-4.7984892455190415,3.8408199796333906
1772698679772534500,2.812534423828125,2.8719162030279635,-6.402725353854894,4.0605496490120885
1772698679782491600,2.82249169921875,2.8587083464086054,-8.043197727698088,3.2698072676002976
1772698679792448800,2.83244873046875,3.0914941889762875,-9.56115898963809,1.762955867087096
1772698679802405600,2.842405517578125,3.584548924320936,-10.961558871036768,-0.1398163573713973
1772698679812362800,2.85236279296875,5.035791688728332,-12.59276423484087,-1.8829612797796724
1772698679822319900,2.86231982421875,5.115014278525114,-15.574574060261249,-2.427435528977215
1772698679832276700,2.87227685546875,1.734273962482065,-19.345044200122356,-1.73461400809139
1772698679842232800,2.88223291015625,-3.0933260805785654,-21.79587901712656,-0.23538137548621743
1772698679852189700,2.892189697265625,-6.635366234993934,-22.02795525012016,1.3559626276485621
1772698679862146600,2.902146484375,-7.111123798578977,-19.73734022116661,2.907065257820487
1772698679872103700,2.912103759765625,-4.726071075040101,-15.561976444494723,4.167045153398812
1772698679882060800,2.922060791015625,-1.4262627830602228,-10.485967311668395,4.895713648213446
1772698679892017700,2.932017578125,1.4890426259696483,-5.969242166897654,4.993976161783934
1772698679901974800,2.941974853515625,3.036906858742237,-2.8387112680405377,4.455347131483257
1772698679911931600,2.951931640625,3.0340660823583603,-1.0711766948610544,3.255529735922813
1772698679921888500,2.961888427734375,2.1424095038235187,-0.2789198172330856,1.688421581237018
1772698679931845600,2.971845703125,0.7994061648607254,-0.0223123695731163,0.08363317278064787
1772698679941802800,2.981802734375,-0.45344753209948535,0.09766191732883453,-1.3799533056974411
1772698679951760000,2.991759765625,-1.4009610224127769,0.3549281211584806,-2.5641844250693917
1772698679961716700,3.001716796875,-1.5870282222948968,1.051156820139289,-3.2802219863697886
1772698679971673600,3.011673583984375,-1.2190438548821956,2.0096283423185346,-3.569401624071598
1772698679981630700,3.021630615234375,-0.5789397056400776,2.988043751373887,-3.4949548703745004
1772698679991587600,3.031587646484375,-0.005247764460369945,3.773791393238306,-3.169489282804727
1772698680001544700,3.041544677734375,0.20459208680577576,4.242756227943301,-2.662850258743763
1772698680011501800,3.051501708984375,0.15681326754279434,4.394910782960057,-2.072398394486308
1772698680021458700,3.061458740234375,-0.1852841597456485,4.353492730900645,-1.42713035967499
1772698680031415800,3.071415771484375,-0.7658406529325992,4.112646331474185,-0.6893897928714752
1772698680041372700,3.08137255859375,-1.1815070281703024,3.8685295320749282,0.13312982881218194
1772698680051329500,3.09132958984375,-1.4363327800452708,3.9735289526849984,0.6055372782517224
1772698680061286700,3.10128662109375,-1.6236264529824256,4.282151834264397,0.6630414457805455
1772698680071242800,3.11124267578125,-1.4954045622169971,4.58183503806293,0.46373292540088296
1772698680081199600,3.12119970703125,-0.8521089965224266,5.217115639606118,0.2712356924712658
1772698680091156700,3.13115673828125,-0.23263854305148124,6.166925716423988,0.112811409535259
1772698680101113900,3.14111376953125,0.1579283891778439,7.073207032638788,-0.05129698345176875
1772698680111070700,3.15107080078125,0.5840495229344814,7.774608165821433,-0.2738192792236805
1772698680121027600,3.161027587890625,0.871686972695589,8.088413418474794,-0.6003695932902395
1772698680130984700,3.170984619140625,0.9083389063317329,8.029194336786865,-0.998905677767843
1772698680140941600,3.180941650390625,0.5652618934214115,7.620966587117314,-1.271667118501663
1772698680150898700,3.190898681640625,0.06225742647051811,7.095616432845592,-1.4866785271868108
1772698680160855800,3.200855712890625,-0.3844177619498223,6.634465486761927,-1.6817974869221448
1772698680170812700,3.210812744140625,-0.6827998200219124,6.128032798928022,-1.9181483284950256
1772698680180769800,3.220769775390625,-0.7547441624440252,5.40294157807827,-2.220627300491929
1772698680190726700,3.2307265625,-0.6053134063679725,4.679271914464235,-2.419467034316063
1772698680200683500,3.24068359375,-0.5086182151794433,4.103825311636925,-2.303772324429452
1772698680210640600,3.250640625,-0.29464813224077224,3.456560842311382,-1.9040978835716842
1772698680220597800,3.26059765625,0.005860489531233907,2.6494915954768654,-1.4333321369245648
1772698680230555000,3.270554931640625,0.2904385517217219,1.2166361361533402,-0.7121984215289354
1772698680240511700,3.28051171875,0.724836369305849,-0.951969885200262,0.4315452776972204
1772698680250468600,3.290468505859375,1.3343898243963717,-3.381328198933601,1.8759744896322488
1772698680260425700,3.30042578125,1.772109187618643,-5.716776641348004,2.9799823177322744
1772698680270382600,3.310382568359375,1.793149491429329,-8.138525064599513,3.3296745840638873
1772698680280339700,3.320339599609375,1.5393864734150469,-10.667702181434631,3.1714196663454173
1772698680290295600,3.330295654296875,1.241457858198881,-13.08225338665843,2.7906489556610583
1772698680300252700,3.340252685546875,1.2424363478422165,-14.949834726476668,2.3263939060822127
1772698680310209800,3.350209716796875,1.759536998554319,-15.923136153519152,1.693270774833858
1772698680320167000,3.3601669921875,2.618995919448137,-16.522119114756585,0.829248637677729
1772698680330123800,3.370123779296875,3.527705339592695,-17.79290243616104,0.04969174021221697
1772698680340080600,3.38008056640625,3.981910412061214,-19.63780549570322,-0.4937410371083766
1772698680350037800,3.390037841796875,3.303150734275579,-21.271703167331218,-0.5990649769650772
1772698680359994600,3.39999462890625,1.8234511061906813,-22.179152358281613,-0.08008092365916818
1772698680369951700,3.40995166015625,-0.10129654750414192,-21.82563819557428,1.2506613014824688
1772698680379908900,3.419908935546875,-1.558777256453037,-19.4276581859231,3.1645825138017534
1772698680389865700,3.42986572265625,-1.8661632897138594,-15.316837316310405,4.457818197771907
1772698680399822600,3.439822509765625,-1.6015046375453472,-10.597414593243599,4.721082180711627
1772698680409779700,3.44977978515625,-1.2651216423809528,-5.987971417286992,4.220551702658832
1772698680419736600,3.459736572265625,-1.0378958450932054,-1.9836247170120476,3.1748136926978825
1772698680429693700,3.469693603515625,-1.150720187175274,1.1835451829344033,1.9661203322425485
1772698680439650800,3.47965087890625,-1.6425801597774028,3.73320102417469,0.6330166751991957
1772698680449607700,3.489607666015625,-2.265493447178602,5.620471983847022,-0.701531846890226
1772698680459564800,3.499564697265625,-2.6319232055604456,6.7564388385266065,-1.960413937294483
1772698680469521700,3.509521728515625,-2.683814720839262,7.807913054051995,-2.8078070112109184
1772698680479478500,3.519478515625,-2.5933143657028674,8.969157557851075,-3.4095670359462495
1772698680489435600,3.529435546875,-2.216826154643297,10.176301643037796,-3.5428520553201435
1772698680499392800,3.539392822265625,-1.69387312464118,11.233856055259704,-3.1960780145227905
1772698680509350000,3.549349853515625,-1.155494561970234,12.050346625912189,-2.568478907392919
1772698680519305700,3.5593056640625,-0.6373907986301929,12.646768212229013,-1.7848659394696353
1772698680529262800,3.569262939453125,0.016816767831519246,12.949469887065886,-0.9057626991681754
1772698680539219700,3.5792197265625,0.5938005901634693,12.92896485917568,-0.2259872684687376
1772698680549176600,3.589176513671875,0.7183867547750472,12.48214931243658,0.1679278051447123
1772698680559133700,3.5991337890625,0.35084881595559414,11.615829419732092,0.3526118801053613
1772698680569090600,3.609090576171875,-0.3786941966712475,10.546766940546036,0.22536482572145758
1772698680579047700,3.619047607421875,-1.0149825139522552,9.40337724238932,-0.21163323748894033
1772698680589004800,3.6290048828125,-1.23496966522336,8.614304840016365,-0.6601673516489565
1772698680598961700,3.638961669921875,-0.8509259242177009,8.134995136907696,-1.0488991043403744
1772698680608918800,3.648918701171875,-0.5063128608465194,7.877048549598455,-1.2469782290555536
1772698680618875600,3.658875732421875,-0.2868365086417645,7.857665803736448,-1.3136021801725029
1772698680628832800,3.668832763671875,-0.005784355555102229,7.9849898688793175,-1.2709034406527877
1772698680638789600,3.67878955078125,0.25132928806133564,8.191076505091786,-1.1750704192515462
1772698680648746800,3.688746826171875,0.4777367547035217,8.456007544460892,-1.1596328308187425
1772698680658704000,3.698703857421875,0.7034767704129219,8.677214008393884,-1.2224975755326448
1772698680668660700,3.70866064453125,0.8952221620619296,8.829573146072029,-1.2686173755422234
1772698680678617600,3.71861767578125,1.1399544630110263,8.952445492503047,-1.3262930271804332
1772698680688574700,3.72857470703125,1.2483259904026984,8.866421990519761,-1.5171006995879113
1772698680698531600,3.738531494140625,0.9815630594313144,8.458188980153203,-1.516472923078388
1772698680708488700,3.74848876953125,0.48012156748082485,7.993305861803889,-1.311291272881627
1772698680718445800,3.75844580078125,-0.14544778738711028,7.738909075930714,-1.202287000544369
1772698680728402700,3.768402587890625,-0.4866858213672414,7.400520001640915,-1.1694845088779926
1772698680738358800,3.77835888671875,-0.4964637035379186,6.901172888153791,-1.153067554019019
1772698680748316200,3.788316162109375,-0.6901460911314934,6.093505090904236,-1.194344517107308
1772698680758273000,3.79827294921875,-1.1282196015536785,5.085495338574051,-0.9245196412820369
1772698680768230100,3.808230224609375,-1.4094307445943355,4.12953258434534,-0.3087071623293683
1772698680778187300,3.818187255859375,-0.9314251098215579,3.1006086388021705,0.4918749144429341
1772698680788144000,3.82814404296875,-0.17438742961287498,1.8780057031989097,1.1461062636390327
1772698680798101200,3.838101318359375,0.47065702557563777,0.252001415169239,1.7748315983198582
1772698680808058400,3.848058349609375,1.0505284591078758,-1.6833575758457182,2.361743598013371
1772698680818015000,3.858014892578125,2.0314345159351825,-3.749419168525934,2.794536610749364
1772698680827972000,3.86797216796875,2.698749255120754,-5.850958317300677,2.605085175256431
1772698680837929200,3.87792919921875,2.3107481547914444,-7.541773807936907,1.80145583974272
1772698680847886300,3.88788623046875,1.850266632401943,-8.902088931706547,0.6177192989546805
1772698680857843200,3.89784326171875,2.152860755211115,-9.936872124671936,-0.6843070827797055
1772698680867800300,3.90780029296875,3.640508711951971,-10.416306330943106,-1.921482879745215
1772698680877757200,3.917757080078125,5.752238999873399,-11.3530003210783,-2.7392130751952526
1772698680887714000,3.927714111328125,5.368688595342636,-13.973498461782931,-2.8242031424775718
1772698680897671200,3.937671142578125,1.2828876006960868,-16.965825005042554,-2.0487159056037663
1772698680907628300,3.947628173828125,-3.8242987606823444,-19.05086368539333,-0.9765613786865025
1772698680917585200,3.957585205078125,-6.904039383500814,-19.197576341617108,-0.362618675661087
1772698680927542300,3.967542236328125,-6.990036581999063,-17.136397844803334,-0.0646053047709167
1772698680937499400,3.97749951171875,-4.589132793855667,-13.92702429537773,0.35711890920102596
1772698680947456000,3.9874560546875,-1.2900316272318362,-10.185234306555985,1.0031769253462552
1772698680957412400,3.997412353515625,1.559963835889101,-6.470015513795614,1.7865655829943716
1772698680967369200,4.007369140625,3.2256513150095936,-3.521539218178391,2.446173839455843
1772698680977326000,4.017326171875,3.724954589354992,-1.6542156525135039,2.6702301398620008
1772698680987283200,4.027283203125,3.0963141564786434,-0.7485790639430284,2.3668868061207236
1772698680997240300,4.037240234375,1.7842016303420065,-0.4405617470413446,1.7078693551592528
1772698681007197200,4.047197265625,0.555586850570701,-0.22059037786126134,0.9390627650931477
1772698681017154300,4.057154296875,-0.34707506957054135,0.17245792285501957,0.22971023451462386
1772698681027111200,4.067111083984375,-0.7686041993618011,0.7437129192113876,-0.34676830517631024
1772698681037068000,4.077068115234375,-0.8526315590918063,1.3772592443078755,-0.7640569113209843
1772698681047025200,4.087025146484375,-0.9493804532289505,1.8865958368897437,-1.006799207496643
1772698681056982300,4.096982177734375,-1.0677274311900138,2.413368717440963,-1.2777215962350368
1772698681066939100,4.106939208984375,-1.0954209092795848,3.0711434748649595,-1.549793008878082
1772698681076896300,4.116896240234375,-0.7652163104891777,3.6861025883913037,-1.6173596476726233
1772698681086853400,4.126853271484375,-0.23732874669432638,4.212758564564585,-1.522516148765385
1772698681096810000,4.13681005859375,0.133996967035532,4.861032503193616,-1.244140229150653
1772698681106767000,4.14676708984375,0.2974327945232391,5.445865943047404,-0.8269163953378796
1772698681116724200,4.15672412109375,-0.059492642498877826,5.711401962572336,-0.2869895803116262
1772698681126681000,4.16668115234375,-0.5022235457062721,5.783170144709945,0.27305362861342725
1772698681136638200,4.17663818359375,-0.7247872694671154,5.999954700547456,0.5356947304144501
1772698681146595300,4.18659521484375,-0.8272481115102768,6.213553027564287,0.6317736894007772
1772698681156552200,4.19655224609375,-0.6703881552815437,6.30868104250133,0.6600917291294783
1772698681166509000,4.206509033203125,-0.21835399711132047,6.6452931702464815,0.5590182863241061
1772698681176465200,4.216465087890625,0.5033107564210891,7.271241879820823,0.4157843755941838
1772698681186422000,4.226422119140625,1.1309235998153686,7.841758040508627,0.13798711438393219
1772698681196379100,4.236379150390625,1.6318623664081096,8.08414991581142,-0.17600123975137247
1772698681206336300,4.246336181640625,2.0856056665837763,8.150767875579,-0.6136250884436071
1772698681216293000,4.256293212890625,2.3648621684253213,7.934200177362561,-1.2150663295533508
1772698681226250200,4.266250244140625,2.2253297790944573,7.212510289388895,-1.7911833059228957
1772698681236207400,4.276207275390625,1.3780337358117103,5.982051964110136,-2.1356221817709504
1772698681246164200,4.286164306640625,0.15839491071105002,4.576775416585803,-2.3419714144423605
1772698681256121000,4.29612109375,-0.9097545452833176,3.130080232480168,-2.3900093230329453
1772698681266078200,4.306078125,-1.6379799725055693,1.8380887033522129,-2.1880422509685156
1772698681276035300,4.316035400390625,-2.174048504668474,0.8220248239040374,-1.8434826713502406
1772698681285992200,4.3259921875,-2.4550106413841246,0.1300713180243969,-1.2409998852983117
1772698681295949300,4.33594921875,-2.272207265603542,-0.21560966683924196,-0.5210586676228791
1772698681305906200,4.34590625,-1.64752755305171,-0.45012861680984495,0.16842631098506972
1772698681315863000,4.355863037109375,-0.6163514446675777,-0.824879044291377,0.8168690485760569
1772698681325820200,4.365820068359375,0.772172120976448,-1.5452309616595505,1.4098004546895622
1772698681335777300,4.37577734375,2.2548563178300856,-2.920420413956046,1.9668838639609514
1772698681345734100,4.385734130859375,3.536698793387413,-5.031572609728575,2.42094105239138
1772698681355691300,4.395691162109375,3.4458348656356335,-7.7734052197724575,2.528357032623887
1772698681365648400,4.4056484375,1.8744658386349677,-10.729760870462655,1.9483894452407955
1772698681375605000,4.41560498046875,-0.11675475859986617,-13.715953441011905,0.7700009874824434
1772698681385562000,4.42556201171875,-1.7294997338175773,-16.2255163413167,-0.7570729707177728
1772698681395518200,4.435518310546875,-2.035611509358883,-17.518779205554722,-2.3532865891829133
1772698681405475000,4.44547509765625,-0.556450846988894,-17.803858714461324,-3.4932995043829083
1772698681415432200,4.45543212890625,2.2967057470440864,-17.556356948798893,-3.603350070902705
1772698681425389300,4.465389404296875,4.552093979793787,-17.79670650461912,-2.9885604687243696
1772698681435346200,4.47534619140625,4.662995902445912,-18.398871603024006,-2.1497619124129415
1772698681445303300,4.48530322265625,2.6131968777805565,-18.449522762852904,-1.4303782555550335
1772698681455260200,4.49526025390625,0.5798404904047026,-17.450194914150238,-1.225050474885851
1772698681465217000,4.505217041015625,-0.614908771578595,-15.097459236848353,-1.3436430981710552
1772698681475174100,4.515174072265625,-1.8262112185537813,-12.248700622045993,-0.9627638125456869
1772698681485131300,4.52513134765625,-2.6533091079384086,-9.499467380356789,0.46749352004341777
1772698681495088000,4.535088134765625,-2.905658898153901,-6.465227110475301,1.9417951615422964
1772698681505045200,4.545045166015625,-2.901009611043334,-3.0218647724330423,3.154637166109681
1772698681515002400,4.55500244140625,-3.6951749526411293,-0.3977905268073082,3.9531379065632817
1772698681524959200,4.564959228515625,-4.43280299898088,1.7337988923162222,4.06876247382313
1772698681534916000,4.574916015625,-4.342480923020839,3.9038095197707414,3.5002702201783653
1772698681544873200,4.584873291015625,-3.420590534263849,5.932587383717298,2.251888407935202
1772698681554830300,4.594830322265625,-1.9892782127290962,7.896285164988041,0.5977187499878928
1772698681564787200,4.604787109375,-0.4136189411886036,9.855745162558556,-0.8028596663154661
1772698681574744300,4.614744384765625,1.453240660226345,11.343753184783457,-1.8135156953707336
1772698681584701200,4.624701171875,3.1667583965361117,12.183510064733028,-2.372841476741433
1772698681594658000,4.634657958984375,3.7754479282736777,12.602673049914836,-2.392742693519592
1772698681604614100,4.6446142578125,3.4632378358572717,12.746675862658023,-2.0979569063737986
1772698681614571000,4.654571044921875,2.861154570516944,12.713645699715613,-1.7302889844991265
1772698681624528100,4.664528076171875,2.192241748484969,12.520849337708949,-1.2374031759805977
1772698681634485200,4.6744853515625,1.9264444476753473,12.073490185612439,-0.6877844765666872
1772698681644442400,4.6844423828125,1.9239929628700017,11.36424652223587,-0.10953808695301413
1772698681654399200,4.694399169921875,1.4798855060458183,10.5554856690526,0.45829844272937625
1772698681664356400,4.7043564453125,0.7416747644472866,9.914155265951155,0.9953716584227978
1772698681674313200,4.714313232421875,0.19165413316898047,9.375143081551789,1.4537849962361156
1772698681684270000,4.72427001953125,-0.12601356706619263,8.781889019355177,1.863279697101563
1772698681694227200,4.734227294921875,-0.22184476183652876,8.406894846245645,2.0676701969206333
1772698681704184300,4.744184326171875,-0.3785316995859146,8.070193871173261,2.0311894551329313
1772698681714141200,4.75414111328125,-0.5453887336939574,7.744954201313853,1.6936569976724682
1772698681724098300,4.764098388671875,-0.48601007753014563,7.7846151805728665,1.22000751228258
1772698681734055200,4.77405517578125,0.0032054815104231235,8.089641498965024,0.7337069273732603
1772698681744012000,4.784011962890625,0.5518903706729412,8.383044015058875,0.24136969264820216
1772698681753968600,4.79396875,0.9437579371720551,8.575600138568877,-0.20657266616374254
1772698681763925800,4.80392578125,1.1912497659623622,8.738853595227003,-0.5509412167219445
1772698681773882600,4.813882568359375,1.132427574637532,8.598778769582509,-0.8115389395944773
1772698681783839700,4.82383984375,0.7565887673974037,8.092827727785705,-1.0096933945681899
1772698681793796900,4.833796875,0.4901508305966854,7.578966935777664,-1.252059039451182
1772698681803753700,4.843753662109375,0.39438977845311163,7.093394080621004,-1.552761064903438
1772698681813709800,4.853709716796875,0.3621311844050884,6.467520189848542,-1.6828822134189307
1772698681823666700,4.863666748046875,-0.03307811200367287,5.2862657481998205,-1.6231021368473768
1772698681833623600,4.87362353515625,-0.5050970553159714,3.80250486202538,-1.3787845541790127
1772698681843580700,4.88358056640625,-0.7487959215641021,2.284323819854855,-1.1388361265055835
1772698681853537800,4.893537841796875,-0.5805495154568925,0.5349737226635217,-0.8021614549182355
1772698681863494700,4.90349462890625,-0.30024204325769094,-1.6970459094583987,-0.2868541904289275
1772698681873451800,4.91345166015625,-0.05196739352662116,-3.951697644627094,0.052640287819504736
1772698681883409000,4.923408935546875,0.5486101068932563,-5.747152490389347,0.2316865030236542
1772698681893365500,4.933365478515625,1.5723428404688835,-7.087493332144618,0.5578929720886051
1772698681903322600,4.943322509765625,2.509825935155153,-7.84757227974534,1.0577795992799102
1772698681913279700,4.95327978515625,2.7721079213202,-8.18746825146675,1.3438064720392227
1772698681923236600,4.963236572265625,3.1753298255264757,-8.405498423451185,1.5037598642386496
1772698681933193700,4.97319384765625,4.144693913120031,-8.698516324141622,1.5520423952400684
1772698681943150800,4.98315087890625,4.68890366616249,-10.594601873910426,1.3159130874633789
1772698681953107700,4.993107666015625,3.2668285440504548,-13.482563202810287,0.9458381775122136
1772698681963064600,5.003064697265625,-1.0644622919142246,-15.689823072206973,0.3712754448473453
1772698681973021700,5.013021728515625,-5.313313914123177,-16.654323937678335,-0.5414272827170789
1772698681982978800,5.022978759765625,-6.965784768795967,-15.430038163554668,-1.3550585184156894
1772698681992935700,5.032935791015625,-5.651017344236373,-12.627113079166412,-1.4625916952870786
1772698682002892800,5.042892822265625,-2.439513797044754,-9.402694520822166,-0.7076689614057541
1772698682012850000,5.052849853515625,1.1896382391124962,-6.23096710370183,0.5077039864113554
1772698682022806500,5.062806640625,3.98630075597465,-3.375759458890557,1.6876177175082265
1772698682032763000,5.072762939453125,4.577074107271432,-1.5718933431357145,2.8025293630689383
1772698682042719500,5.082719482421875,3.3175849178194996,-0.8212456562250852,3.484575515179336
1772698682052676600,5.092676513671875,1.3229630059748887,-0.9433481873273849,3.6630309248834845
1772698682062633700,5.1026337890625,-1.0289445499397813,-1.5440578262269495,3.181631263758242
1772698682072590600,5.112590576171875,-2.442282677236199,-1.4787316598355769,1.956095927964896
1772698682082547700,5.122547607421875,-2.9046193259730932,-1.2232213597625494,0.4898477559968829
1772698682092504800,5.1325048828125,-2.2254617349110544,-0.8142500982493162,-0.8379120558004826
1772698682102461700,5.142461669921875,-1.0859861414581538,-0.06879471928477286,-1.8889571591936052
1772698682112418600,5.15241845703125,-0.2369109596736729,0.723484370175004,-2.6106013083294033
1772698682122375700,5.162375732421875,0.10039031937941909,1.6546300785332917,-2.8180849518582223
1772698682132332800,5.172332763671875,0.647300709682703,2.600622642889619,-2.6465175481021403
1772698682142289700,5.18228955078125,1.5405302366226912,3.2906226766139266,-2.375368657131493
1772698682152246800,5.192246826171875,2.1458166819185016,3.6581396457105875,-1.8139634391382335
1772698682162204000,5.202203857421875,1.739708262490481,3.487962527269125,-1.1807859473541378
1772698682172160500,5.212160400390625,0.838305219836533,3.0914976961076257,-0.54446639468465
1772698682182117600,5.22211767578125,-0.24509938069581985,2.5188591364383695,-0.10746389276115223
1772698682192074800,5.23207470703125,-0.8418136663489043,2.188324867302179,0.17695835781311614
1772698682202031600,5.242031494140625,-0.7935504245698451,2.0190748005777595,0.35999965226911007
1772698682211988700,5.25198876953125,-0.24356428008303044,1.901440354800224,0.41018710357639937
1772698682221945900,5.26194580078125,0.5873895540773868,1.9729653758317232,0.32853768849149345
1772698682231902700,5.27190283203125,1.3095388762563467,2.0240397295087575,0.25049972363570705
1772698682241859600,5.281859619140625,1.7893699728906154,2.091900382813811,0.17673141718944535
1772698682251815700,5.291815673828125,1.9068604801528155,2.0619044730007645,0.05053331473604775
1772698682261772500,5.3017724609375,1.6107612723208964,1.6972493230760097,-0.12648997067259624
1772698682271729700,5.311729736328125,1.1521487586736678,1.1906558917224406,-0.3698562256991863
1772698682281686800,5.321686767578125,1.040836647785455,0.9886883812665939,-0.6501760459233075
1772698682291643600,5.3316435546875,1.309660018417984,0.9095604840159416,-0.9995122653588652
1772698682301600800,5.341600830078125,1.650907258617878,0.7412421451836824,-1.2361289182610808
1772698682311558000,5.351557861328125,1.7299726120263337,0.5033434896469116,-1.3569136447630823
1772698682321514500,5.361514404296875,1.4115233329594135,0.1774625992745161,-1.4554025144353508
1772698682331471600,5.3714716796875,0.6314269948549568,-0.4362748635023832,-1.4012484610520302
1772698682341428700,5.3814287109375,-0.45142201762124895,-1.2313655032515525,-1.3301722067013382
1772698682351385600,5.391385498046875,-1.6008236695438622,-1.5965619204461574,-1.1565447286102921
1772698682361342700,5.4013427734375,-2.3903303716808555,-1.5323013374596832,-0.9323849678296595
1772698682371299800,5.4112998046875,-2.441359278780967,-1.1728186217367649,-0.6839049317196011
1772698682381256700,5.421256591796875,-1.8681581167928873,-0.576402296116948,-0.23707999609764663
1772698682391213600,5.431213623046875,-2.428393121962994,0.5766255834788083,0.8608349584873766
1772698682401170700,5.441170654296875,-2.679187645560503,1.0981132171034813,1.5216794056802987
1772698682411127800,5.4511279296875,2.2581208725839854,0.3886982888132334,1.6464993790477513
1772698682421084700,5.461084716796875,1.1069839213013648,1.0130325489282608,1.7824805056378243
1772698682431041800,5.471041748046875,0.16762494974061845,1.2138666714400053,1.3157291091985999
1772698682440999000,5.4809990234375,0.6999937506027519,1.118218432021141,0.9767045865494758
1772698682450954800,5.490954833984375,0.4204243834197521,1.4603788415431975,0.5706021219382063
1772698682460911900,5.500911865234375,0.6453735410124063,1.861934273841977,0.33242885071113704
1772698682470868700,5.51086865234375,1.0919483377981931,2.117249928125739,0.2708544746013358
1772698682480825600,5.52082568359375,1.3698505754865704,2.2164187428861855,0.2873214426144957
1772698682490782700,5.53078271484375,1.1997095512717961,2.108741627499461,0.39764666135720905
1772698682500739800,5.54073974609375,0.5077958659458905,1.7162281643122435,0.4807750629534945
1772698682510696700,5.55069677734375,-0.24578794748187063,1.0832494099706411,0.526010773604922
1772698682520653800,5.56065380859375,-0.6637333005022257,0.3758896606445312,0.5435429962294176
1772698682530610700,5.570610595703125,-0.9608633857518434,-0.47433600634932516,-0.6904952698953449
1772698682540567600,5.580567626953125,-4.070104243820905,-1.820402240014076,-5.095256269609928
1772698682550524700,5.590524658203125,-1.8879098420977591,-2.341442129871249,-3.6561221684083343
1772698682560481800,5.600481689453125,0.9344412427723408,-1.1903022559791803,-1.5964979152992367
1772698682570438700,5.610438720703125,0.29011165785491466,0.27869126917421816,-0.0030680458011105656
1772698682580395800,5.620395751953125,-0.05258936134986579,0.6302741715580225,0.4090065154897049
1772698682590353000,5.630352783203125,-0.6638309887230396,0.36209435952603813,1.1298710220225154
1772698682600309500,5.6403095703125,-0.8603161953102797,0.43759296036362644,1.5035785163223743
1772698682610266600,5.6502666015625,-0.8260081944517791,0.22149989392161368,1.3270201724112034
1772698682620223700,5.6602236328125,-0.5941355942714959,-0.5973018762826919,1.08513237417303
1772698682630180600,5.6701806640625,-0.3459053682040423,-0.846761205753684,0.8137835036508738
1772698682640137700,5.6801376953125,-0.06527933157496153,-0.483105588260293,0.5758787106342613
1772698682650094800,5.6900947265625,0.2288572709470987,0.2205921314269304,0.4125678247004747
1772698682660051700,5.7000517578125,0.38659868618547916,0.8928121783107519,-0.11541146336528472
1772698682670007800,5.7100078125,0.598032455579564,1.0553110172092914,-0.5283175161773339
1772698682679964700,5.719964599609375,0.24101364575214682,0.03332183936536312,-0.37513767323344943
1772698682689921500,5.729921630859375,0.2717799554158002,-0.8477917178452015,0.06447859595159534
1772698682699878700,5.739878662109375,0.2440729602575302,-0.7409452080637217,-0.28530412970902397
1772698682709835800,5.749835693359375,0.2456155865896493,-0.40056934387087817,-0.6141027889579534
1772698682719792600,5.759792724609375,0.3045329819172621,-0.8694681276023387,-0.15950415059458464
1772698682729749800,5.769749755859375,0.4743219047587365,-2.24686648811996,-0.3154550291543826
1772698682739707000,5.779706787109375,0.7059136421710253,-1.7937772679388522,-1.2924476023323834
1772698682749663500,5.78966357421875,0.5609498754411936,-1.2678081049859522,-0.3105781438330188
1772698682759620600,5.79962060546875,0.48253911348395045,-0.8737064958244561,-0.19457528131268917
1772698682769577700,5.80957763671875,0.2797469157069921,-0.6330278541803359,-0.2857724048078991
1772698682779534600,5.81953466796875,0.26647885333299637,-0.27652970722615716,-0.35563265269864347
1772698682789491700,5.82949169921875,0.1791390080541372,0.10334697722792625,-0.35082645799331363
1772698682799448800,5.83944873046875,0.0691810151886195,0.3338993616551161,-0.2229632992713712
1772698682809405400,5.849405517578125,-0.0025538492012768983,0.36425475243031974,-0.17185981083139776
1772698682819362600,5.859362548828125,-0.05723397228531539,0.2742366278529167,-0.04539470517199952
1772698682829319700,5.869319580078125,-0.04011325307115912,0.1834054333269596,-0.06597831015717238
1772698682839276500,5.879276611328125,0.019662074260041115,0.0382066887974739,-0.11515997282224706
1772698682849233700,5.889233642578125,0.070305123847723,-0.05336334139704704,-0.2677958176830783
1772698682859190800,5.899190673828125,0.40516434351094066,0.3137766110807657,-0.7152891540858894
1772698682869147600,5.909147705078125,-0.8768336879342794,0.8453881638348102,0.0012248656198382377
1772698682879103700,5.919103759765625,-0.6552484538167714,0.6086193891108036,0.7691848487939685
1772698682889060600,5.929060546875,-0.62985674986355,0.21922785733640193,0.12523925822544843
1772698682899017500,5.939017578125,-0.3440448350291699,0.0999766240119934,0.05270687308257911
1772698682908974600,5.948974609375,-0.10117840101718902,0.2879267150312662,-0.23747485890043898
1772698682918931700,5.958931640625,-0.099680855935812,0.2929319759726524,-0.16533795304829255
1772698682928888600,5.968888671875,-0.1069860643826425,0.2675181332528591,0.06437379756998271
1772698682938845700,5.978845703125,-0.1498562149465084,0.30649463737905025,0.3225171495603397
1772698682948802800,5.988802734375,-0.07298106505870819,0.37799920014441013,0.23889796877242622
1772698682958759400,5.998759521484375,-0.009983633875846862,0.46704292673170567,0.1525224932800047
1772698682968716500,6.008716552734375,-0.004933364748954772,0.49873044289350504,0.2504519207049161
1772698682978673700,6.018673583984375,0.01259688511416316,0.4390110104680061,0.3684789094639942
1772698682988630500,6.028630615234375,-0.030030981126427648,0.1904939302831888,0.4249723290476948
1772698682998587600,6.038587646484375,-0.028913959795236584,-0.09797697462737559,0.2959340073328465
1772698683008544800,6.048544677734375,0.0689205376215279,-0.30061493169069287,0.09676583613879047
1772698683018501600,6.058501708984375,0.11963745616301893,-0.47915831193923947,0.1434396807014011
1772698683028458500,6.06845849609375,0.157054017496109,-0.1637380253046751,0.28075901535898445
1772698683038415600,6.07841552734375,0.057752589331939816,0.1889782650232315,0.3612622560834512
1772698683048372500,6.08837255859375,-0.07620645684599876,0.3915402342408895,0.5764833985291421
1772698683058329600,6.09832958984375,-0.13408406079709528,0.4267085782557726,0.6608275691233575
1772698683068286700,6.10828662109375,-0.05480199589803814,0.4248421998620033,0.49910241801105437
1772698683078243800,6.118243896484375,0.0780422939710319,0.37415363063216206,0.2571420477270149
1772698683088199700,6.12819970703125,0.1559961059410125,0.39742461610436436,0.1663665654436685
1772698683098156800,6.13815673828125,0.13655030478015542,0.4334866940885782,0.1783629273814149
1772698683108113400,6.148113525390625,0.0533441983051598,0.3918038536131382,0.2869400968804024
1772698683118070500,6.158070556640625,-0.03312602453231811,0.2706780585885048,0.3551388412997126
1772698683128027600,6.168027587890625,-0.01981244251616299,0.18379063325226305,0.2510183224160224
1772698683137984500,6.177984619140625,-0.02558276954591274,0.11048749663233756,0.24661292706392704
1772698683147941600,6.187941650390625,0.019828224607184527,0.011200023928284645,0.305571275456436
1772698683157898800,6.197898681640625,0.025959713099524377,0.080361238437891,0.2938501319971867
1772698683167855600,6.207855712890625,-0.000976151555776596,0.0660837067604065,0.26363204906713217
1772698683177812500,6.2178125,-0.0017920710485428571,-0.07037526647448539,0.20070521716875955
1772698683187769600,6.22776953125,0.04351473207771778,-0.1082592991888523,0.1080927378497552
1772698683197726700,6.237726806640625,0.046959904095530504,0.02419160744845867,0.17052551175402475
1772698683207683600,6.24768359375,0.026436171504855156,0.15863924086093903,0.2939423951242119
1772698683217640700,6.257640625,-0.003598974340036511,0.2146153951048851,0.2833197144261561
1772698683227597800,6.267597900390625,0.022912089031934736,0.17800620463192462,0.15643402243424206
1772698683237554400,6.277554443359375,0.03984678415469825,0.024184593185782432,-0.04395188138596713
1772698683247511600,6.287511474609375,0.1568745692759752,-0.11049801802635192,-0.10804229543730616
1772698683257468700,6.29746875,0.23598441941328346,-0.10313479578197002,-0.11237243359610438
1772698683267425500,6.307425537109375,0.21314064637720584,0.0030938743621110915,-0.10478978731422685
1772698683277382700,6.317382568359375,0.16806290276646613,0.15370529159009455,0.02922863578457618
1772698683287339800,6.32733984375,0.06119308517463505,0.2782797657638788,0.10547656400199047
1772698683297295600,6.337295654296875,0.013185060265660286,0.4628220941662788,0.17589692086037248
1772698683307252700,6.347252685546875,0.013708207356929777,0.41148938181400296,0.1147232345059514
1772698683317209600,6.357209716796875,0.056557826589420435,0.36118776607513425,0.07731800741762854
