time,seconds_elapsed,z,y,x
1772698677034372000,0.0743720703125,0.08152081817388535,0.003457025159150362,0.30124881863594055
1772698677044329200,0.0843291015625,0.09428907930850983,0.0011382107622921467,0.273049920797348
1772698677054286000,0.0942861328125,0.10065212845802307,-0.009683269076049328,0.26136431097984314
1772698677064243200,0.1042431640625,0.09888271987438202,-0.009199905209243298,0.252738356590271
1772698677074200000,0.114199951171875,0.09435565024614334,0.005265579558908939,0.24904122948646545
1772698677084157000,0.124156982421875,0.08520156890153885,0.005966789089143276,0.24308505654335022
1772698677094114000,0.134114013671875,0.08551100641489029,-0.0014154883101582527,0.23791179060935974
1772698677104071200,0.1440712890625,0.09155824035406113,0.006795303896069527,0.23676130175590515
1772698677114028000,0.154028076171875,0.11122652143239975,0.021985702216625214,0.2365923523902893
1772698677123985200,0.163985107421875,0.1289202868938446,0.013823111541569233,0.23140984773635864
1772698677133942000,0.17394189453125,0.15724778175354004,0.004171290434896946,0.22946344316005707
1772698677143899000,0.18389892578125,0.17410585284233093,-0.009933609515428543,0.21724246442317963
1772698677153856000,0.19385595703125,0.16561385989189148,-0.03779028356075287,0.1947021633386612
1772698677163813000,0.203813232421875,0.1515747457742691,-0.04440584033727646,0.17120349407196045
1772698677173770200,0.213770263671875,0.1324036866426468,-0.035775065422058105,0.142642080783844
1772698677183727000,0.22372705078125,0.10683735460042953,-0.02376127801835537,0.11108522862195969
1772698677193684200,0.233684326171875,0.08085815608501434,-0.014190664514899254,0.0885343849658966
1772698677203640000,0.24364013671875,0.05935925617814064,0.0006202389486134052,0.06976096332073212
1772698677213597200,0.25359716796875,0.05190644413232803,0.0017997454851865768,0.06628625839948654
1772698677223554000,0.263553955078125,0.050579387694597244,-0.0014343978837132454,0.06565988063812256
1772698677233511000,0.273510986328125,0.06684858351945877,-0.017368080094456673,0.07153721898794174
1772698677243468000,0.283468017578125,0.08036252856254578,-0.027924850583076477,0.07674902677536011
1772698677253425200,0.293425048828125,0.08507319539785385,-0.012342974543571472,0.08871438354253769
1772698677263382300,0.30338232421875,0.0909302830696106,-0.0018655662424862385,0.10685157775878906
1772698677273339100,0.313339111328125,0.10731222480535507,-0.001100180670619011,0.14599381387233734
1772698677283296000,0.3232958984375,0.12192258983850479,-0.012127265334129333,0.18588583171367645
1772698677293253000,0.333253173828125,0.13453686237335205,-0.029869232326745987,0.22605454921722412
1772698677303210000,0.3432099609375,0.15471935272216797,-0.06719210743904114,0.27296876907348633
1772698677313167000,0.3531669921875,0.16716937720775604,-0.07737070322036743,0.3152928352355957
1772698677323124200,0.363124267578125,0.16107288002967834,-0.08202218264341354,0.349640429019928
1772698677333081000,0.3730810546875,0.13701224327087402,-0.07729027420282364,0.36861348152160645
1772698677343038200,0.3830380859375,0.09789121150970459,-0.04677710682153702,0.3674249053001404
1772698677352995000,0.3929951171875,0.05695582553744316,-0.014819185249507427,0.38172051310539246
1772698677362952000,0.402951904296875,0.017821205779910088,0.007162812165915966,0.3798816204071045
1772698677372909000,0.412908935546875,-0.010754525661468506,0.029044143855571747,0.36227884888648987
1772698677382866200,0.4228662109375,-0.003530435496941209,0.04532724618911743,0.31296271085739136
1772698677392823000,0.432822998046875,0.038681693375110626,0.06045480817556381,0.26668983697891235
1772698677402780200,0.4427802734375,0.08031702786684036,0.07821542769670486,0.21233710646629333
1772698677412737000,0.452737060546875,0.0804978683590889,0.046072933822870255,0.1616809368133545
1772698677422694000,0.46269384765625,0.07164844870567322,-0.010968247428536415,0.17743593454360962
1772698677432651000,0.472651123046875,0.12087161093950272,-0.017136652022600174,0.2853475511074066
1772698677442607000,0.482607177734375,0.1802515834569931,0.036714326590299606,0.397426962852478
1772698677452564000,0.49256396484375,0.1948084980249405,0.05790242180228233,0.429688036441803
1772698677462521000,0.50252099609375,0.1941826492547989,0.04830625280737877,0.37344181537628174
1772698677472478200,0.512478271484375,0.1718302220106125,0.03620351478457451,0.25807374715805054
1772698677482435000,0.52243505859375,0.131910502910614,0.030449489131569862,0.10536916553974152
1772698677492392000,0.532391845703125,0.08378558605909348,0.05445149540901184,-0.008786464110016823
1772698677502349000,0.54234912109375,-0.0236604455858469,0.129606693983078,-0.013066696003079414
1772698677512306000,0.552305908203125,-0.16283226013183594,0.20044121146202087,0.03498276323080063
1772698677522263000,0.562262939453125,-0.2719654142856598,0.2665794789791107,0.06854765117168427
1772698677532220200,0.57222021484375,-0.3511595129966736,0.30877432227134705,0.08296164125204086
1772698677542177300,0.58217724609375,-0.35735535621643066,0.3155054748058319,0.07806888222694397
1772698677552134100,0.592134033203125,-0.2695690393447876,0.23293815553188324,0.05319953337311745
1772698677562091000,0.602091064453125,-0.12437909841537476,0.08082451671361923,0.05136434733867645
1772698677572048100,0.612048095703125,0.03626140579581261,-0.11967901140451431,0.06961267441511154
1772698677582005000,0.6220048828125,0.19158653914928436,-0.2843385338783264,0.07791241258382797
1772698677591962000,0.631962158203125,0.30543991923332214,-0.36483097076416016,0.04901285097002983
1772698677601919200,0.641919189453125,0.32824376225471497,-0.4004102647304535,-0.008380670100450516
1772698677611876000,0.6518759765625,0.3367147147655487,-0.2652335464954376,-0.05076535791158676
1772698677621833000,0.6618330078125,0.27406251430511475,-0.017259962856769562,-0.1081402376294136
1772698677631790000,0.6717900390625,0.05751880258321762,0.08053743094205856,-0.06983581930398941
1772698677641747000,0.681746826171875,-0.10289163887500763,-0.2895386219024658,0.36413002014160156
1772698677651704000,0.6917041015625,-0.2692430913448334,-0.26471424102783203,0.6207214593887329
1772698677661661200,0.7016611328125,-0.39227476716041565,-0.20011846721172333,0.5576490163803101
1772698677671618000,0.7116181640625,-0.44747087359428406,-0.12700670957565308,0.332116961479187
1772698677681574100,0.72157421875,-0.4230172038078308,-0.09901688247919083,0.08439449220895767
1772698677691531300,0.73153125,-0.33743998408317566,-0.10837949067354202,-0.09076589345932007
1772698677701488000,0.741488037109375,-0.24318110942840576,-0.18025660514831543,-0.16451947391033173
1772698677711445000,0.751445068359375,-0.172987163066864,-0.2080371081829071,-0.1606554239988327
1772698677721402000,0.761402099609375,-0.1522051841020584,-0.21490566432476044,-0.13541744649410248
1772698677731359000,0.77135888671875,-0.17432698607444763,-0.1704212874174118,-0.10422274470329285
1772698677741316000,0.781316162109375,-0.17574724555015564,-0.11499930173158646,-0.09359167516231537
1772698677751271400,0.791271484375,-0.13156992197036743,-0.0666126012802124,-0.07659509778022766
1772698677761228500,0.801228515625,-0.058371882885694504,-0.058255065232515335,-0.04737302288413048
1772698677771185700,0.811185546875,0.021615074947476387,-0.08576258271932602,-0.01963682845234871
1772698677781142500,0.821142578125,0.10460290312767029,-0.09248732775449753,-0.0053471047431230545
1772698677791099600,0.831099609375,0.17183080315589905,-0.12858225405216217,-0.011737538501620293
1772698677801056500,0.841056396484375,0.20081664621829987,-0.17362163960933685,-0.04126054048538208
1772698677811013600,0.851013671875,0.17494025826454163,-0.19531013071537018,-0.08275844901800156
1772698677820970500,0.860970458984375,0.1066373661160469,-0.20992796123027802,-0.13458862900733948
1772698677830927600,0.870927734375,0.00804686825722456,-0.17579875886440277,-0.21095535159111023
1772698677840884700,0.880884765625,-0.12464060634374619,-0.2245314121246338,-0.2570485472679138
1772698677850841600,0.890841552734375,-0.25245529413223267,-0.2337946742773056,-0.23557545244693756
1772698677860798700,0.900798828125,-0.33766549825668335,-0.22076010704040527,-0.19239442050457
1772698677870755600,0.910755615234375,-0.36830976605415344,-0.19680255651474,-0.16350491344928741
1772698677880712400,0.92071240234375,-0.36069151759147644,-0.17869652807712555,-0.13869942724704742
1772698677890669600,0.930669677734375,-0.3205496668815613,-0.1515171229839325,-0.13460680842399597
1772698677900626700,0.940626708984375,-0.2468770295381546,-0.09825308620929718,-0.13786065578460693
1772698677910583600,0.95058349609375,-0.15206585824489594,-0.03515614569187164,-0.1299838423728943
1772698677920540700,0.960540771484375,-0.056845057755708694,0.015335790812969208,-0.09605437517166138
1772698677930497500,0.97049755859375,0.04979803413152695,0.07441961765289307,-0.03215928375720978
1772698677940453600,0.98045361328125,0.10790075361728668,0.08842571079730988,0.05550478771328926
1772698677950410500,0.990410400390625,0.10484415292739868,0.07773180305957794,0.12660174071788788
1772698677960367600,1.00036767578125,0.07607216387987137,0.04886713624000549,0.20559827983379364
1772698677970324500,1.010324462890625,0.02650335803627968,0.043050773441791534,0.29395702481269836
1772698677980281600,1.020281494140625,-0.04341074451804161,0.006601953878998756,0.355588436126709
1772698677990238700,1.03023876953125,-0.09742898494005203,-0.02338789775967598,0.3698684871196747
1772698678000195600,1.040195556640625,-0.12193220108747482,-0.03514522314071655,0.3611873984336853
1772698678010152700,1.050152587890625,-0.15443339943885803,-0.06422747671604156,0.3558928072452545
1772698678020109600,1.060109619140625,-0.2072335034608841,-0.061524637043476105,0.38066980242729187
1772698678030066400,1.07006640625,-0.26921704411506653,0.00259550753980875,0.4446580708026886
1772698678040023600,1.0800234375,-0.3017520606517792,0.06894790381193161,0.5258418321609497
1772698678049980700,1.089980712890625,-0.24654528498649597,0.10716665536165237,0.5720182061195374
1772698678059937500,1.0999375,-0.12331388890743256,0.11323387175798416,0.5486803650856018
1772698678069894700,1.109894775390625,0.04707197844982147,0.1323481649160385,0.46743568778038025
1772698678079851500,1.1198515625,0.22021180391311646,0.1628083437681198,0.33684518933296204
1772698678089808400,1.129808349609375,0.3690090477466583,0.18316420912742615,0.21529145538806915
1772698678099765500,1.139765625,0.4636865556240082,0.1597190797328949,0.08447697758674622
1772698678109722600,1.14972265625,0.507468044757843,0.10900183767080307,-0.02422935515642166
1772698678119679700,1.1596796875,0.5074201226234436,0.044284358620643616,-0.06703674048185349
1772698678129636600,1.16963671875,0.48068898916244507,0.0051396070048213005,-0.01983432099223137
1772698678139593700,1.17959375,0.44056421518325806,-0.008475005626678467,0.11934380978345871
1772698678149550600,1.189550537109375,0.38956645131111145,-0.02416020818054676,0.29250696301460266
1772698678159507500,1.199507568359375,0.3720737397670746,-0.05791018158197403,0.39352333545684814
1772698678169464600,1.209464599609375,0.3817533254623413,-0.14069880545139313,0.3490698039531708
1772698678179421700,1.219421630859375,0.379904568195343,-0.3172842264175415,0.14018023014068604
1772698678189377500,1.22937744140625,0.3436431884765625,-0.587347149848938,-0.2254369556903839
1772698678199334700,1.239334716796875,0.2099517285823822,-0.8889464139938354,-0.6991046667098999
1772698678209291800,1.249291748046875,-0.063665471971035,-1.1295701265335083,-1.0400781631469727
1772698678219248600,1.25924853515625,-0.467448353767395,-1.2278653383255005,-1.0065555572509766
1772698678229205500,1.26920556640625,-0.9004924297332764,-1.155594825744629,-0.6720266342163086
1772698678239162600,1.27916259765625,-1.2784091234207153,-0.9584711790084839,-0.238393172621727
1772698678249119500,1.289119384765625,-1.4989193677902222,-0.6658869385719299,0.1178818866610527
1772698678259076600,1.29907666015625,-1.47493577003479,-0.34997427463531494,0.2779000699520111
1772698678269033700,1.30903369140625,-1.2089427709579468,-0.08731788396835327,0.23686306178569794
1772698678278990600,1.318990478515625,-0.7854015231132507,0.08832371234893799,0.060770854353904724
1772698678288947500,1.328947509765625,-0.3107739984989166,0.17711403965950012,-0.15649321675300598
1772698678298904600,1.338904541015625,0.083089679479599,0.18269681930541992,-0.3290780186653137
1772698678308861400,1.348861328125,0.3186299800872803,0.13208025693893433,-0.4356512129306793
1772698678318818600,1.358818603515625,0.36087679862976074,0.035487134009599686,-0.4971931278705597
1772698678328775700,1.368775634765625,0.2495686113834381,-0.06905204802751541,-0.4835613965988159
1772698678338732500,1.378732666015625,0.04393661394715309,-0.20835934579372406,-0.34833940863609314
1772698678348689700,1.388689697265625,-0.10520756989717484,-0.41245388984680176,-0.12683404982089996
1772698678358646500,1.398646484375,-0.13334119319915771,-0.5110331773757935,0.03812640532851219
1772698678368603400,1.408603271484375,-0.16707921028137207,-0.4621064066886902,0.11236193031072617
1772698678378560500,1.418560546875,-0.24481156468391418,-0.37673211097717285,0.14454783499240875
1772698678388517600,1.428517578125,-0.3336087465286255,-0.23590947687625885,0.1385333389043808
1772698678398474800,1.438474853515625,-0.43116167187690735,-0.09686265140771866,0.10549230128526688
1772698678408431600,1.448431640625,-0.5048035979270935,0.016741398721933365,0.07032358646392822
1772698678418388500,1.458388427734375,-0.5307113528251648,0.06263884902000427,0.0006805891171097755
1772698678428345600,1.468345703125,-0.5090516805648804,0.03263168781995773,-0.10589046776294708
1772698678438302500,1.478302490234375,-0.4242057502269745,-0.06255128979682922,-0.20483170449733734
1772698678448258600,1.488258544921875,-0.29619964957237244,-0.17755775153636932,-0.28022074699401855
1772698678458215400,1.49821533203125,-0.21249115467071533,-0.25432735681533813,-0.30847421288490295
1772698678468172500,1.508172607421875,-0.19016104936599731,-0.2635094225406647,-0.2881368398666382
1772698678478129700,1.518129638671875,-0.21261310577392578,-0.20274832844734192,-0.21902436017990112
1772698678488086800,1.528086669921875,-0.2563718259334564,-0.11363601684570312,-0.12523537874221802
1772698678498043600,1.538043701171875,-0.26721224188804626,-0.00744007620960474,-0.06191099435091019
1772698678508000500,1.54800048828125,-0.20499064028263092,0.07819679379463196,-0.0657297819852829
1772698678517957600,1.55795751953125,-0.08264715224504471,0.15365105867385864,-0.1354880928993225
1772698678527914500,1.56791455078125,0.0803370550274849,0.20441888272762299,-0.2410583645105362
1772698678537871600,1.57787158203125,0.2676827311515808,0.24512051045894623,-0.3410129249095917
1772698678547828700,1.587828857421875,0.45471057295799255,0.2572610676288605,-0.39687368273735046
1772698678557785600,1.59778564453125,0.6080029010772705,0.2545153498649597,-0.4058445394039154
1772698678567742500,1.607742431640625,0.7063146233558655,0.21804577112197876,-0.3891076445579529
1772698678577699600,1.617699462890625,0.7211239337921143,0.2080618441104889,-0.33333998918533325
1772698678587656400,1.627656494140625,0.6153636574745178,0.2586357891559601,-0.17602533102035522
1772698678597613600,1.637613525390625,0.4026348888874054,0.2945946156978607,0.09485890716314316
1772698678607570700,1.64757080078125,0.1736363172531128,0.298048198223114,0.40978148579597473
1772698678617527600,1.657527587890625,0.012769405730068684,0.2239675670862198,0.6371264457702637
1772698678627484700,1.667484619140625,-0.030238572508096695,0.08547654002904892,0.7460271716117859
1772698678637441500,1.677441650390625,0.010422836989164352,-0.06438352167606354,0.7243386507034302
1772698678647398400,1.6873984375,0.059271372854709625,-0.18760986626148224,0.6241666674613953
1772698678657355500,1.69735546875,0.06640065461397171,-0.216265469789505,0.5500168204307556
1772698678667312600,1.707312744140625,0.01344185322523117,-0.11331085860729218,0.5300458073616028
1772698678677268500,1.7172685546875,-0.07260195165872574,0.125941663980484,0.566638171672821
1772698678687225600,1.7272255859375,-0.10006076097488403,0.3648168444633484,0.5664341449737549
1772698678697182700,1.7371826171875,0.011488670483231544,0.5678392052650452,0.46555039286613464
1772698678707139600,1.7471396484375,0.2801720201969147,0.6733714938163757,0.29890313744544983
1772698678717096400,1.757096435546875,0.6827530264854431,0.6866186261177063,0.12592124938964844
1772698678727053600,1.767053466796875,1.0541200637817383,0.4870585799217224,-0.18737471103668213
1772698678737010400,1.777010498046875,1.2109591960906982,0.13513275980949402,-0.7624611854553223
1772698678746967300,1.78696728515625,1.0643075704574585,-0.18896301090717316,-1.2619297504425049
1772698678756924400,1.79692431640625,0.6994982957839966,-0.4054976999759674,-1.2882044315338135
1772698678766881500,1.806881591796875,0.29057547450065613,-0.4577036499977112,-0.7188804745674133
1772698678776838400,1.81683837890625,-0.21592393517494202,-0.34439921379089355,0.20251040160655975
1772698678786795300,1.826795166015625,-0.7192292213439941,-0.17307645082473755,1.0806224346160889
1772698678796752400,1.83675244140625,-1.0044242143630981,-0.026966381818056107,1.503236174583435
1772698678806709200,1.846709228515625,-0.9688962697982788,0.07859812676906586,1.3888832330703735
1772698678816666400,1.856666259765625,-0.6401141285896301,0.044587165117263794,0.9037096500396729
1772698678826623500,1.86662353515625,-0.15080729126930237,-0.07314106822013855,0.2973898649215698
1772698678836580400,1.876580322265625,0.30471548438072205,-0.19315269589424133,-0.19193001091480255
1772698678846537500,1.886537353515625,0.5740782618522644,-0.25993651151657104,-0.46888917684555054
1772698678856494300,1.896494384765625,0.6153577566146851,-0.28798040747642517,-0.5015190243721008
1772698678866451200,1.906451171875,0.4676504135131836,-0.27983325719833374,-0.3750390112400055
1772698678876408300,1.916408203125,0.21700036525726318,-0.27914562821388245,-0.22488784790039062
1772698678886365400,1.926365478515625,-0.019232910126447678,-0.275658518075943,-0.1563483476638794
1772698678896322600,1.936322509765625,-0.18348203599452972,-0.29414698481559753,-0.18650437891483307
1772698678906279400,1.946279541015625,-0.26607975363731384,-0.3060470223426819,-0.2583361566066742
1772698678916236300,1.956236328125,-0.2957819700241089,-0.2908153533935547,-0.3229028880596161
1772698678926192400,1.9661923828125,-0.31841540336608887,-0.25740277767181396,-0.3663468360900879
1772698678936149200,1.976149169921875,-0.3561633229255676,-0.20392358303070068,-0.3679482042789459
1772698678946106400,1.9861064453125,-0.40168899297714233,-0.15772894024848938,-0.3272356688976288
1772698678956063200,1.996063232421875,-0.4446364641189575,-0.14368873834609985,-0.24953606724739075
1772698678966020400,2.006020263671875,-0.3974606692790985,-0.10981787741184235,-0.1396177113056183
1772698678975977500,2.0159775390625,-0.29151827096939087,-0.09811674058437347,-0.004681999795138836
1772698678985934300,2.025934326171875,-0.18796339631080627,-0.06283917278051376,0.1362779438495636
1772698678995891500,2.035891357421875,-0.10935992747545242,0.0140787772834301,0.26735979318618774
1772698679005848300,2.045848388671875,-0.05337979272007942,0.10044562816619873,0.32302260398864746
1772698679015805400,2.055805419921875,0.0005332406144589186,0.17828130722045898,0.3075999617576599
1772698679025762300,2.06576220703125,0.06340967863798141,0.20366975665092468,0.2542443573474884
1772698679035719400,2.075719482421875,0.12515853345394135,0.19128072261810303,0.16623751819133759
1772698679045676500,2.085676513671875,0.18158826231956482,0.17094457149505615,0.0632433071732521
1772698679055633400,2.09563330078125,0.21293048560619354,0.14857535064220428,0.009275678545236588
1772698679065590300,2.10559033203125,0.19218619167804718,0.10357774794101715,0.022681057453155518
1772698679075547400,2.11554736328125,0.14937400817871094,0.07653334736824036,0.09068780392408371
1772698679085504300,2.125504150390625,0.076113261282444,0.06359892338514328,0.1885475218296051
1772698679095461400,2.13546142578125,-0.009173408150672913,0.05983801186084747,0.30579426884651184
1772698679105418500,2.14541845703125,-0.06261694431304932,0.04464388266205788,0.3810708522796631
1772698679115375400,2.155375244140625,-0.06979575753211975,0.019646918401122093,0.391615629196167
1772698679125332500,2.16533251953125,-0.04295537993311882,0.0065734656527638435,0.43153467774391174
1772698679135289300,2.175289306640625,-0.015661176294088364,-0.01977398619055748,0.48935458064079285
1772698679145245400,2.185245361328125,-0.005786670837551355,-0.035712745040655136,0.48491790890693665
1772698679155202300,2.195202392578125,-0.01669684238731861,-0.04957583174109459,0.41453349590301514
1772698679165159400,2.205159423828125,-0.05770447477698326,-0.05972034111618996,0.2990145981311798
1772698679175116300,2.2151162109375,-0.07732265442609787,-0.03981800377368927,0.20413173735141754
1772698679185073400,2.225073486328125,-0.0802960991859436,0.024662189185619354,0.21209578216075897
1772698679195030500,2.235030517578125,-0.0656266137957573,0.08768642693758011,0.27806946635246277
1772698679204987400,2.2449873046875,-0.0025411590468138456,0.11843795329332352,0.3204633295536041
1772698679214944300,2.2549443359375,0.12970316410064697,0.10425902158021927,0.27905598282814026
1772698679224901400,2.2649013671875,0.28029781579971313,0.0753842145204544,0.16297130286693573
1772698679234858200,2.274858154296875,0.441771924495697,0.07161024957895279,0.025915980339050293
1772698679244815400,2.2848154296875,0.560121476650238,0.10471227765083313,-0.08488740026950836
1772698679254772500,2.2947724609375,0.6232352256774902,0.15328966081142426,-0.12809959053993225
1772698679264729300,2.304729248046875,0.6123774647712708,0.17775321006774902,-0.17088735103607178
1772698679274686500,2.3146865234375,0.5242199301719666,0.1702963411808014,-0.28329724073410034
1772698679284643300,2.324643310546875,0.3669666647911072,0.13559243083000183,-0.4024934470653534
1772698679294600400,2.334600341796875,0.20320674777030945,0.10362890362739563,-0.48349642753601074
1772698679304557300,2.344557373046875,0.08983253687620163,0.040294669568538666,-0.5259556770324707
1772698679314514400,2.354514404296875,0.01797565445303917,-0.05560842528939247,-0.5242300033569336
1772698679324471600,2.364471435546875,-0.045485902577638626,-0.17110306024551392,-0.4533007740974426
1772698679334428400,2.374428466796875,-0.08946001529693604,-0.23661628365516663,-0.2808421850204468
1772698679344385300,2.38438525390625,-0.12271005660295486,-0.24028746783733368,-0.08776035159826279
1772698679354342400,2.39434228515625,-0.15038323402404785,-0.1872815042734146,0.015340733341872692
1772698679364299300,2.40429931640625,-0.18209140002727509,-0.12666821479797363,0.012545337900519371
1772698679374256400,2.41425634765625,-0.2159487009048462,-0.07516960799694061,-0.04163561016321182
1772698679384213500,2.424213623046875,-0.20932383835315704,-0.026741880923509598,-0.1397484689950943
1772698679394170400,2.43417041015625,-0.1468532830476761,0.018684986978769302,-0.29926490783691406
1772698679404126500,2.44412646484375,-0.054805900901556015,0.03011074848473072,-0.4860161244869232
1772698679414083600,2.45408349609375,0.02712172269821167,-0.027272650972008705,-0.6022886633872986
1772698679424040200,2.464040283203125,0.10507641732692719,-0.14999324083328247,-0.5781431794166565
1772698679433997300,2.473997314453125,0.1679491251707077,-0.28966617584228516,-0.37581461668014526
1772698679443954400,2.483954345703125,0.1321839541196823,-0.41979914903640747,-0.04913361370563507
1772698679453911300,2.493911376953125,-0.0520162433385849,-0.5809321403503418,0.24518802762031555
1772698679463868400,2.503868408203125,-0.3082629442214966,-0.7038415670394897,0.37601685523986816
1772698679473825500,2.513825439453125,-0.5640774369239807,-0.763831377029419,0.36372771859169006
1772698679483782400,2.523782470703125,-0.7502246499061584,-0.7821677923202515,0.2768316864967346
1772698679493739300,2.5337392578125,-0.8197537064552307,-0.7523171901702881,0.169083371758461
1772698679503696400,2.5436962890625,-0.7774935364723206,-0.685370147228241,0.010289834812283516
1772698679513653200,2.5536533203125,-0.6471954584121704,-0.59586101770401,-0.16704979538917542
1772698679523610400,2.5636103515625,-0.4704902172088623,-0.5055731534957886,-0.3119666874408722
1772698679533567500,2.5735673828125,-0.25809913873672485,-0.40510064363479614,-0.35136789083480835
1772698679543524400,2.5835244140625,-0.05241037905216217,-0.316762775182724,-0.267461359500885
1772698679553481200,2.593481201171875,0.09013798087835312,-0.22012093663215637,-0.09822840988636017
1772698679563438300,2.603438232421875,0.14278817176818848,-0.14663554728031158,0.08735200762748718
1772698679573395500,2.6133955078125,0.1498788446187973,-0.09374222904443741,0.21351899206638336
1772698679583352300,2.623352294921875,0.14385446906089783,-0.07759281247854233,0.28546756505966187
1772698679593309400,2.633309326171875,0.1325349658727646,-0.07914356887340546,0.3206407129764557
1772698679603266600,2.6432666015625,0.12359976023435593,-0.07618053257465363,0.34943336248397827
1772698679613223400,2.653223388671875,0.10140977054834366,-0.0667840987443924,0.3979249894618988
1772698679623179500,2.663179443359375,0.08388803154230118,-0.0536443330347538,0.42816463112831116
1772698679633136400,2.673136474609375,0.08058784157037735,-0.05552585422992706,0.4367344081401825
1772698679643093200,2.68309326171875,0.08224703371524811,-0.06757266819477081,0.4432593882083893
1772698679653050400,2.69305029296875,0.10952286422252655,-0.09387458860874176,0.4684952199459076
1772698679663007200,2.70300732421875,0.1809379607439041,-0.13841862976551056,0.5158553719520569
1772698679672964400,2.71296435546875,0.20715491473674774,-0.17913170158863068,0.5731905698776245
1772698679682921500,2.72292138671875,0.16915026307106018,-0.18885409832000732,0.6568958759307861
1772698679692878600,2.732878662109375,0.05232112482190132,-0.21228672564029694,0.7760907411575317
1772698679702835200,2.742835205078125,-0.1492626667022705,-0.23972445726394653,0.9228768944740295
1772698679712792300,2.752792236328125,-0.37935659289360046,-0.24309389293193817,1.054868459701538
1772698679722749400,2.76274951171875,-0.5840527415275574,-0.185968279838562,1.130104899406433
1772698679732706300,2.772706298828125,-0.7081366181373596,-0.04848792031407356,1.1083276271820068
1772698679742663400,2.782663330078125,-0.6585804224014282,0.16098114848136902,0.9463163614273071
1772698679752620800,2.792620849609375,-0.3877849280834198,0.3826752007007599,0.6894294619560242
1772698679762577700,2.80257763671875,0.048481330275535583,0.5770659446716309,0.4131799340248108
1772698679772534500,2.812534423828125,0.5352101922035217,0.6880098581314087,0.16037483513355255
1772698679782491600,2.82249169921875,0.951819658279419,0.6609838008880615,-0.06801719218492508
1772698679792448800,2.83244873046875,1.1899209022521973,0.535495936870575,-0.2608811855316162
1772698679802405600,2.842405517578125,1.1837050914764404,0.29331547021865845,-0.43316197395324707
1772698679812362800,2.85236279296875,0.8942394852638245,-0.08359583467245102,-0.7422953248023987
1772698679822319900,2.86231982421875,0.3840066194534302,-0.4128171503543854,-1.04961359500885
1772698679832276700,2.87227685546875,-0.236960768699646,-0.5605992078781128,-1.0211646556854248
1772698679842232800,2.88223291015625,-0.8280113935470581,-0.5089825391769409,-0.5815552473068237
1772698679852189700,2.892189697265625,-1.3011139631271362,-0.30219876766204834,0.06744351238012314
1772698679862146600,2.902146484375,-1.5152778625488281,-0.03132332116365433,0.5988777279853821
1772698679872103700,2.912103759765625,-1.4300823211669922,0.2510247528553009,0.797934889793396
1772698679882060800,2.922060791015625,-1.0491186380386353,0.4139886498451233,0.6775043606758118
1772698679892017700,2.932017578125,-0.48026350140571594,0.46886998414993286,0.31956833600997925
1772698679901974800,2.941974853515625,0.13135947287082672,0.4820678234100342,-0.1387254297733307
1772698679911931600,2.951931640625,0.6294467449188232,0.4652760624885559,-0.5343081951141357
1772698679921888500,2.961888427734375,0.9282594323158264,0.4180966019630432,-0.7934324145317078
1772698679931845600,2.971845703125,1.0155128240585327,0.3672901391983032,-0.9057416915893555
1772698679941802800,2.981802734375,0.9060894846916199,0.2772752642631531,-0.8647817969322205
1772698679951760000,2.991759765625,0.6555920243263245,0.18243026733398438,-0.7351908087730408
1772698679961716700,3.001716796875,0.33640575408935547,0.06773962080478668,-0.5993449091911316
1772698679971673600,3.011673583984375,0.022557834163308144,-0.06426475197076797,-0.5103024244308472
1772698679981630700,3.021630615234375,-0.2508086860179901,-0.20900782942771912,-0.4924376904964447
1772698679991587600,3.031587646484375,-0.465711385011673,-0.34225723147392273,-0.5372378826141357
1772698680001544700,3.041544677734375,-0.6234363317489624,-0.4492505192756653,-0.593017041683197
1772698680011501800,3.051501708984375,-0.7134538292884827,-0.5160932540893555,-0.6252852082252502
1772698680021458700,3.061458740234375,-0.7451590299606323,-0.5678067803382874,-0.6064149141311646
1772698680031415800,3.071415771484375,-0.6736353039741516,-0.5762037038803101,-0.5056430101394653
1772698680041372700,3.08137255859375,-0.5021138787269592,-0.5527330040931702,-0.348239541053772
1772698680051329500,3.09132958984375,-0.31851261854171753,-0.46468380093574524,-0.14345738291740417
1772698680061286700,3.10128662109375,-0.1856715828180313,-0.3360595107078552,0.07715022563934326
1772698680071242800,3.11124267578125,-0.11658598482608795,-0.17236991226673126,0.24700289964675903
1772698680081199600,3.12119970703125,-0.0534636564552784,-0.01064147800207138,0.3000420331954956
1772698680091156700,3.13115673828125,0.03870169073343277,0.11106790602207184,0.2963266670703888
1772698680101113900,3.14111376953125,0.17001865804195404,0.1866215318441391,0.26471608877182007
1772698680111070700,3.15107080078125,0.31256407499313354,0.20812734961509705,0.19962280988693237
1772698680121027600,3.161027587890625,0.4383334815502167,0.2115420550107956,0.11005863547325134
1772698680130984700,3.170984619140625,0.5138319730758667,0.192961186170578,0.026345625519752502
1772698680140941600,3.180941650390625,0.5495457649230957,0.16870272159576416,-0.01682317443192005
1772698680150898700,3.190898681640625,0.5662669539451599,0.12417466938495636,-0.0017470200546085835
1772698680160855800,3.200855712890625,0.5431621670722961,0.07333412021398544,0.059456970542669296
1772698680170812700,3.210812744140625,0.4584515392780304,0.01742345094680786,0.16578340530395508
1772698680180769800,3.220769775390625,0.30568304657936096,-0.03411830589175224,0.2767941951751709
1772698680190726700,3.2307265625,0.09987742453813553,-0.08920632302761078,0.37522411346435547
1772698680200683500,3.24068359375,-0.09870758652687073,-0.15553954243659973,0.4532560110092163
1772698680210640600,3.250640625,-0.26744574308395386,-0.20622216165065765,0.5066105723381042
1772698680220597800,3.26059765625,-0.4106231927871704,-0.2381928563117981,0.5183649659156799
1772698680230555000,3.270554931640625,-0.484477698802948,-0.25525227189064026,0.49750471115112305
1772698680240511700,3.28051171875,-0.4062198996543884,-0.2280864417552948,0.42515072226524353
1772698680250468600,3.290468505859375,-0.15866895020008087,-0.18754567205905914,0.32502812147140503
1772698680260425700,3.30042578125,0.16093707084655762,-0.13573361933231354,0.24630454182624817
1772698680270382600,3.310382568359375,0.4306553602218628,-0.04086143523454666,0.20518267154693604
1772698680280339700,3.320339599609375,0.5853109955787659,0.06550654023885727,0.15879854559898376
1772698680290295600,3.330295654296875,0.6332497596740723,0.15569129586219788,0.11285421997308731
1772698680300252700,3.340252685546875,0.6260879039764404,0.22869840264320374,0.06176745891571045
1772698680310209800,3.350209716796875,0.583984375,0.24270211160182953,-0.049645084887742996
1772698680320167000,3.3601669921875,0.48260319232940674,0.10415036231279373,-0.24387188255786896
1772698680330123800,3.370123779296875,0.31974583864212036,-0.1430453062057495,-0.44929322600364685
1772698680340080600,3.38008056640625,0.04521545395255089,-0.3787989914417267,-0.5810678005218506
1772698680350037800,3.390037841796875,-0.3549681603908539,-0.5367017984390259,-0.5931316614151001
1772698680359994600,3.39999462890625,-0.7871190905570984,-0.5895420908927917,-0.48332059383392334
1772698680369951700,3.40995166015625,-1.073347568511963,-0.4983517527580261,-0.295622855424881
1772698680379908900,3.419908935546875,-1.1054993867874146,-0.3259650766849518,-0.08485628664493561
1772698680389865700,3.42986572265625,-0.920688807964325,-0.09857745468616486,0.053015824407339096
1772698680399822600,3.439822509765625,-0.6165057420730591,0.1109243705868721,0.08699408173561096
1772698680409779700,3.44977978515625,-0.27263250946998596,0.282402902841568,0.043023426085710526
1772698680419736600,3.459736572265625,0.038909681141376495,0.41471460461616516,-0.0727454200387001
1772698680429693700,3.469693603515625,0.2961028516292572,0.4769822657108307,-0.1921844631433487
1772698680439650800,3.47965087890625,0.48752471804618835,0.42798328399658203,-0.23804214596748352
1772698680449607700,3.489607666015625,0.6115888953208923,0.2530063986778259,-0.17435717582702637
1772698680459564800,3.499564697265625,0.6502335071563721,0.014663614332675934,-0.05903974920511246
1772698680469521700,3.509521728515625,0.5858073830604553,-0.23395098745822906,0.06737837195396423
1772698680479478500,3.519478515625,0.42582085728645325,-0.45167773962020874,0.18577787280082703
1772698680489435600,3.529435546875,0.20016539096832275,-0.5834080576896667,0.2544573247432709
1772698680499392800,3.539392822265625,-0.031050773337483406,-0.606840193271637,0.25338149070739746
1772698680509350000,3.549349853515625,-0.2280929982662201,-0.5587301850318909,0.18761368095874786
1772698680519305700,3.5593056640625,-0.3173632323741913,-0.46006909012794495,0.05756854638457298
1772698680529262800,3.569262939453125,-0.2825844883918762,-0.35889026522636414,-0.1246928721666336
1772698680539219700,3.5792197265625,-0.15225839614868164,-0.29046115279197693,-0.3410705626010895
1772698680549176600,3.589176513671875,0.02704344317317009,-0.22591570019721985,-0.5499984622001648
1772698680559133700,3.5991337890625,0.2131344974040985,-0.1680433452129364,-0.6752424240112305
1772698680569090600,3.609090576171875,0.3344217836856842,-0.0945582166314125,-0.6778267025947571
1772698680579047700,3.619047607421875,0.3533768057823181,-0.010759193450212479,-0.5634503364562988
1772698680589004800,3.6290048828125,0.2949119210243225,0.07232264429330826,-0.4173245429992676
1772698680598961700,3.638961669921875,0.1968023031949997,0.14685282111167908,-0.3112539052963257
1772698680608918800,3.648918701171875,0.10235142707824707,0.19748005270957947,-0.2133318930864334
1772698680618875600,3.658875732421875,0.03878562152385712,0.21145229041576385,-0.1385231465101242
1772698680628832800,3.668832763671875,0.03555973619222641,0.18963168561458588,-0.08309850841760635
1772698680638789600,3.67878955078125,0.08017639815807343,0.1509045511484146,-0.047358982264995575
1772698680648746800,3.688746826171875,0.1379408985376358,0.0948367491364479,-0.026468876749277115
1772698680658704000,3.698703857421875,0.18960680067539215,0.0412379615008831,-0.02603243850171566
1772698680668660700,3.70866064453125,0.24074427783489227,-0.021876025944948196,-0.033770520240068436
1772698680678617600,3.71861767578125,0.28261682391166687,-0.10635654628276825,-0.055960193276405334
1772698680688574700,3.72857470703125,0.26975083351135254,-0.19627098739147186,-0.10022405534982681
1772698680698531600,3.738531494140625,0.23801499605178833,-0.2976125180721283,-0.12367860972881317
1772698680708488700,3.74848876953125,0.22089380025863647,-0.3758663237094879,-0.07332383096218109
1772698680718445800,3.75844580078125,0.19175085425376892,-0.41652318835258484,0.042009007185697556
1772698680728402700,3.768402587890625,0.12537449598312378,-0.42893779277801514,0.18337199091911316
1772698680738358800,3.77835888671875,0.0030730871949344873,-0.3947390615940094,0.2958329916000366
1772698680748316200,3.788316162109375,-0.17992521822452545,-0.31625065207481384,0.41831231117248535
1772698680758273000,3.79827294921875,-0.3280979096889496,-0.24130956828594208,0.5714774131774902
1772698680768230100,3.808230224609375,-0.35295185446739197,-0.21370643377304077,0.7339547276496887
1772698680778187300,3.818187255859375,-0.24871571362018585,-0.18681570887565613,0.8108333349227905
1772698680788144000,3.82814404296875,-0.04281501844525337,-0.10536026209592819,0.8077890872955322
1772698680798101200,3.838101318359375,0.22954513132572174,0.045481450855731964,0.7526256442070007
1772698680808058400,3.848058349609375,0.5775548219680786,0.2129165232181549,0.6750565767288208
1772698680818015000,3.858014892578125,0.9956582188606262,0.352969765663147,0.5416232943534851
1772698680827972000,3.86797216796875,1.3809598684310913,0.48606255650520325,0.3553847372531891
1772698680837929200,3.87792919921875,1.635939121246338,0.5778407454490662,0.17436254024505615
1772698680847886300,3.88788623046875,1.7496159076690674,0.5632678866386414,0.0460815355181694
1772698680857843200,3.89784326171875,1.7105544805526733,0.5130297541618347,-0.0809037908911705
1772698680867800300,3.90780029296875,1.5244113206863403,0.41177821159362793,-0.35471031069755554
1772698680877757200,3.917757080078125,1.2112771272659302,0.19874876737594604,-0.8636516332626343
1772698680887714000,3.927714111328125,0.8180858492851257,-0.030347267165780067,-1.3452404737472534
1772698680897671200,3.937671142578125,0.40708044171333313,-0.17964033782482147,-1.4366258382797241
1772698680907628300,3.947628173828125,0.020882146432995796,-0.21485638618469238,-1.0150234699249268
1772698680917585200,3.957585205078125,-0.37730568647384644,-0.1707688271999359,-0.336924284696579
1772698680927542300,3.967542236328125,-0.772672712802887,-0.11719054728746414,0.2800600826740265
1772698680937499400,3.97749951171875,-1.0451874732971191,0.04400445148348808,0.5637189745903015
1772698680947456000,3.9874560546875,-1.1213186979293823,0.1620091199874878,0.4988606870174408
1772698680957412400,3.997412353515625,-0.9737983345985413,0.2111750692129135,0.2204294353723526
1772698680967369200,4.007369140625,-0.6364352107048035,0.18812887370586395,-0.13517500460147858
1772698680977326000,4.017326171875,-0.23778560757637024,0.14074352383613586,-0.48688632249832153
1772698680987283200,4.027283203125,0.10117247700691223,0.12781813740730286,-0.7450907230377197
1772698680997240300,4.037240234375,0.32042232155799866,0.1603582352399826,-0.8639968633651733
1772698681007197200,4.047197265625,0.4066285789012909,0.17554837465286255,-0.8604308366775513
1772698681017154300,4.057154296875,0.3955422341823578,0.21275195479393005,-0.7820102572441101
1772698681027111200,4.067111083984375,0.32638952136039734,0.2121543288230896,-0.6844596862792969
1772698681037068000,4.077068115234375,0.23907169699668884,0.1519991159439087,-0.5799803137779236
1772698681047025200,4.087025146484375,0.15765726566314697,0.09118450433015823,-0.4661395251750946
1772698681056982300,4.096982177734375,0.04591567441821098,0.010650758631527424,-0.31605201959609985
1772698681066939100,4.106939208984375,-0.1018064096570015,-0.0923488587141037,-0.15113548934459686
1772698681076896300,4.116896240234375,-0.2646436095237732,-0.17827387154102325,-0.04368158429861069
1772698681086853400,4.126853271484375,-0.41702568531036377,-0.23596592247486115,-0.007380835246294737
1772698681096810000,4.13681005859375,-0.5435295701026917,-0.25931787490844727,-0.024420469999313354
1772698681106767000,4.14676708984375,-0.6263970136642456,-0.2632446885108948,-0.04984007403254509
1772698681116724200,4.15672412109375,-0.6353273987770081,-0.23240876197814941,-0.03777208551764488
1772698681126681000,4.16668115234375,-0.5771530270576477,-0.15862880647182465,0.03342752531170845
1772698681136638200,4.17663818359375,-0.47832125425338745,-0.09222926944494247,0.14072801172733307
1772698681146595300,4.18659521484375,-0.37090370059013367,0.003034397028386593,0.2507043182849884
1772698681156552200,4.19655224609375,-0.25464552640914917,0.12147954106330872,0.3304049074649811
1772698681166509000,4.206509033203125,-0.12402386218309402,0.23908527195453644,0.3665706217288971
1772698681176465200,4.216465087890625,0.02225583791732788,0.3113299012184143,0.33545204997062683
1772698681186422000,4.226422119140625,0.17900896072387695,0.3652975261211395,0.25534042716026306
1772698681196379100,4.236379150390625,0.3278660476207733,0.3746231198310852,0.1425735354423523
1772698681206336300,4.246336181640625,0.43432751297950745,0.3424271047115326,-0.014771083369851112
1772698681216293000,4.256293212890625,0.4753495156764984,0.28577926754951477,-0.22672174870967865
1772698681226250200,4.266250244140625,0.4479708671569824,0.19699695706367493,-0.4472123086452484
1772698681236207400,4.276207275390625,0.36787739396095276,0.050418954342603683,-0.561646580696106
1772698681246164200,4.286164306640625,0.23248176276683807,-0.1312350034713745,-0.537279486656189
1772698681256121000,4.29612109375,0.0628696009516716,-0.2776223123073578,-0.398239403963089
1772698681266078200,4.306078125,-0.14316771924495697,-0.3789238929748535,-0.20137585699558258
1772698681276035300,4.316035400390625,-0.3485048711299896,-0.4041594862937927,0.04670676961541176
1772698681285992200,4.3259921875,-0.4891839623451233,-0.36836978793144226,0.33372417092323303
1772698681295949300,4.33594921875,-0.5303314328193665,-0.32391709089279175,0.6101601719856262
1772698681305906200,4.34590625,-0.4656220078468323,-0.2136659473180771,0.7936559319496155
1772698681315863000,4.355863037109375,-0.32551467418670654,-0.04763410985469818,0.8051584959030151
1772698681325820200,4.365820068359375,-0.10756661742925644,0.08842998743057251,0.6827601194381714
1772698681335777300,4.37577734375,0.22971735894680023,0.185561865568161,0.37796223163604736
1772698681345734100,4.385734130859375,0.6671457886695862,0.2288358360528946,-0.04861145466566086
1772698681355691300,4.395691162109375,1.1260939836502075,0.22558757662773132,-0.44494113326072693
1772698681365648400,4.4056484375,1.4961706399917603,0.11722993850708008,-0.6361907720565796
1772698681375605000,4.41560498046875,1.6924927234649658,-0.014883093535900116,-0.5774147510528564
1772698681385562000,4.42556201171875,1.6403733491897583,-0.12296162545681,-0.34568536281585693
1772698681395518200,4.435518310546875,1.301424264907837,-0.19099660217761993,-0.12250842154026031
1772698681405475000,4.44547509765625,0.8109760284423828,-0.23447909951210022,-0.1345171481370926
1772698681415432200,4.45543212890625,0.35896673798561096,-0.27089542150497437,-0.48698490858078003
1772698681425389300,4.465389404296875,0.05335275083780289,-0.3268178105354309,-1.0475335121154785
1772698681435346200,4.47534619140625,-0.09700103104114532,-0.4671568274497986,-1.556831955909729
1772698681445303300,4.48530322265625,-0.1937028020620346,-0.5824909210205078,-1.8597394227981567
1772698681455260200,4.49526025390625,-0.36890631914138794,-0.611478328704834,-1.9668024778366089
1772698681465217000,4.505217041015625,-0.6982434988021851,-0.5477496385574341,-1.8939950466156006
1772698681475174100,4.515174072265625,-1.0321439504623413,-0.4769500494003296,-1.7299426794052124
1772698681485131300,4.52513134765625,-1.1866792440414429,-0.3662131726741791,-1.599682092666626
1772698681495088000,4.535088134765625,-1.106516718864441,-0.206867977976799,-1.4778814315795898
1772698681505045200,4.545045166015625,-0.8339185118675232,-0.08245494216680527,-1.2617499828338623
1772698681515002400,4.55500244140625,-0.4112012982368469,0.04921227693557739,-0.8760662078857422
1772698681524959200,4.564959228515625,0.061234403401613235,0.18137243390083313,-0.36837267875671387
1772698681534916000,4.574916015625,0.4749135971069336,0.284567266702652,0.16298285126686096
1772698681544873200,4.584873291015625,0.7181313037872314,0.35690271854400635,0.6453981995582581
1772698681554830300,4.594830322265625,0.7265753746032715,0.4132906198501587,1.0327061414718628
1772698681564787200,4.604787109375,0.5573756694793701,0.42936041951179504,1.2374621629714966
1772698681574744300,4.614744384765625,0.2931181788444519,0.40429073572158813,1.2259533405303955
1772698681584701200,4.624701171875,0.027444442734122276,0.3262332081794739,1.0404630899429321
1772698681594658000,4.634657958984375,-0.16611944139003754,0.1922016590833664,0.7793188095092773
1772698681604614100,4.6446142578125,-0.280534952878952,-0.020852822810411453,0.5895651578903198
1772698681614571000,4.654571044921875,-0.3489859402179718,-0.24193806946277618,0.4964711368083954
1772698681624528100,4.664528076171875,-0.3799872398376465,-0.3583589494228363,0.41997581720352173
1772698681634485200,4.6744853515625,-0.4065228998661041,-0.42285725474357605,0.3153233230113983
1772698681644442400,4.6844423828125,-0.4293256998062134,-0.4535083770751953,0.1993919312953949
1772698681654399200,4.694399169921875,-0.43004104495048523,-0.41922658681869507,0.12786278128623962
1772698681664356400,4.7043564453125,-0.410929411649704,-0.3103634715080261,0.11873266100883484
1772698681674313200,4.714313232421875,-0.34782925248146057,-0.1564125269651413,0.15785597264766693
1772698681684270000,4.72427001953125,-0.22538352012634277,0.006152687594294548,0.22485658526420593
1772698681694227200,4.734227294921875,-0.06527167558670044,0.17484557628631592,0.3014320135116577
1772698681704184300,4.744184326171875,0.123710498213768,0.30954957008361816,0.41290634870529175
1772698681714141200,4.75414111328125,0.2882603406906128,0.4140051603317261,0.575093150138855
1772698681724098300,4.764098388671875,0.4158923327922821,0.4845147430896759,0.7081470489501953
1772698681734055200,4.77405517578125,0.5112782716751099,0.5351249575614929,0.7663777470588684
1772698681744012000,4.784011962890625,0.5852108001708984,0.569489598274231,0.7476591467857361
1772698681753968600,4.79396875,0.6398987770080566,0.5337518453598022,0.678016185760498
1772698681763925800,4.80392578125,0.6819825768470764,0.4308781325817108,0.6070812940597534
1772698681773882600,4.813882568359375,0.7115668654441833,0.2952449321746826,0.5357204675674438
1772698681783839700,4.82383984375,0.7150060534477234,0.19745127856731415,0.49338868260383606
1772698681793796900,4.833796875,0.6623023152351379,0.10622736811637878,0.48212671279907227
1772698681803753700,4.843753662109375,0.5338210463523865,0.030701449140906334,0.47691649198532104
1772698681813709800,4.853709716796875,0.3671884536743164,-0.055114395916461945,0.4693579077720642
1772698681823666700,4.863666748046875,0.20795564353466034,-0.11914584040641785,0.5154324769973755
1772698681833623600,4.87362353515625,0.065440833568573,-0.15000203251838684,0.6065196394920349
1772698681843580700,4.88358056640625,-0.06352061033248901,-0.17131370306015015,0.6855902075767517
1772698681853537800,4.893537841796875,-0.15575815737247467,-0.17250226438045502,0.7134310007095337
1772698681863494700,4.90349462890625,-0.21509791910648346,-0.1034877747297287,0.715641975402832
1772698681873451800,4.91345166015625,-0.3107019066810608,0.04151814058423042,0.7499827742576599
1772698681883409000,4.923408935546875,-0.4360302686691284,0.26407796144485474,0.7127944231033325
1772698681893365500,4.933365478515625,-0.5144704580307007,0.5308281779289246,0.5272617340087891
1772698681903322600,4.943322509765625,-0.4982840120792389,0.6937412023544312,0.2237498015165329
1772698681913279700,4.95327978515625,-0.37771692872047424,0.7333285808563232,-0.09164685755968094
1772698681923236600,4.963236572265625,-0.15976276993751526,0.6406604051589966,-0.4124765396118164
1772698681933193700,4.97319384765625,0.12313666939735413,0.39943739771842957,-0.8717392683029175
1772698681943150800,4.98315087890625,0.4008327126502991,0.04152851551771164,-1.5101733207702637
1772698681953107700,4.993107666015625,0.5902637839317322,-0.31099438667297363,-1.9790873527526855
1772698681963064600,5.003064697265625,0.576676070690155,-0.5500186681747437,-1.9198567867279053
1772698681973021700,5.013021728515625,0.24919332563877106,-0.6313228011131287,-1.4031298160552979
1772698681982978800,5.022978759765625,-0.37753692269325256,-0.5091503262519836,-0.7655200958251953
1772698681992935700,5.032935791015625,-1.11664879322052,-0.19316226243972778,-0.306025892496109
1772698682002892800,5.042892822265625,-1.7201855182647705,0.29485052824020386,-0.23514613509178162
1772698682012850000,5.052849853515625,-2.036997079849243,0.7891489863395691,-0.5211814045906067
1772698682022806500,5.062806640625,-1.989053726196289,1.0621919631958008,-1.0280823707580566
1772698682032763000,5.072762939453125,-1.5757923126220703,1.0501794815063477,-1.5191541910171509
1772698682042719500,5.082719482421875,-0.8824487328529358,0.8609278202056885,-1.8554291725158691
1772698682052676600,5.092676513671875,-0.05257662013173103,0.5831827521324158,-1.9147617816925049
1772698682062633700,5.1026337890625,0.7080411314964294,0.3304482102394104,-1.6665979623794556
1772698682072590600,5.112590576171875,1.1968868970870972,0.135055273771286,-1.2463299036026
1772698682082547700,5.122547607421875,1.377773642539978,0.05677804723381996,-0.8089104294776917
1772698682092504800,5.1325048828125,1.2603892087936401,0.13584011793136597,-0.47558143734931946
1772698682102461700,5.142461669921875,0.9124037623405457,0.3314535617828369,-0.2652076780796051
1772698682112418600,5.15241845703125,0.4438171982765198,0.5838245749473572,-0.12376105040311813
1772698682122375700,5.162375732421875,-0.030132798478007317,0.7771490216255188,-0.024498116225004196
1772698682132332800,5.172332763671875,-0.402631551027298,0.8467110395431519,-0.020705092698335648
1772698682142289700,5.18228955078125,-0.6322165131568909,0.8182815313339233,-0.13395361602306366
1772698682152246800,5.192246826171875,-0.7049988508224487,0.7069457173347473,-0.31023019552230835
1772698682162204000,5.202203857421875,-0.624047577381134,0.51734459400177,-0.4018924832344055
1772698682172160500,5.212160400390625,-0.46472659707069397,0.3415226936340332,-0.36162635684013367
1772698682182117600,5.22211767578125,-0.3057047128677368,0.2325698435306549,-0.20836035907268524
1772698682192074800,5.23207470703125,-0.18447048962116241,0.18756750226020813,0.00793234072625637
1772698682202031600,5.242031494140625,-0.0992882028222084,0.2243279069662094,0.20624729990959167
1772698682211988700,5.25198876953125,-0.05427149683237076,0.3297416567802429,0.3182498514652252
1772698682221945900,5.26194580078125,-0.01937609724700451,0.44423842430114746,0.3185449242591858
1772698682231902700,5.27190283203125,0.016596248373389244,0.5594332218170166,0.2406158745288849
1772698682241859600,5.281859619140625,0.0621139295399189,0.6052025556564331,0.14324697852134705
1772698682251815700,5.291815673828125,0.11880259960889816,0.615664005279541,0.0609855055809021
1772698682261772500,5.3017724609375,0.1889486461877823,0.5957523584365845,0.045020125806331635
1772698682271729700,5.311729736328125,0.27572929859161377,0.5456249713897705,0.08757132291793823
1772698682281686800,5.321686767578125,0.35988786816596985,0.45303434133529663,0.12057480216026306
1772698682291643600,5.3316435546875,0.4175421893596649,0.3334839344024658,0.09570073336362839
1772698682301600800,5.341600830078125,0.43318241834640503,0.2217419594526291,-0.009286671876907349
1772698682311558000,5.351557861328125,0.40456345677375793,0.11349034309387207,-0.1597108542919159
1772698682321514500,5.361514404296875,0.33208125829696655,-0.0022136205807328224,-0.3066047132015228
1772698682331471600,5.3714716796875,0.22742995619773865,-0.13977760076522827,-0.3796432614326477
1772698682341428700,5.3814287109375,0.08882919698953629,-0.2267809510231018,-0.34365782141685486
1772698682351385600,5.391385498046875,-0.08327620476484299,-0.2824082672595978,-0.1823003739118576
1772698682361342700,5.4013427734375,-0.2656766176223755,-0.2564794719219208,0.052898019552230835
1772698682371299800,5.4112998046875,-0.45001164078712463,-0.18101638555526733,0.30238670110702515
1772698682381256700,5.421256591796875,-0.587502121925354,-0.09972339868545532,0.5094261765480042
1772698682391213600,5.431213623046875,-0.5554519891738892,-0.26428598165512085,0.9857938885688782
1772698682401170700,5.441170654296875,-0.41335529088974,0.08666590601205826,1.1120423078536987
1772698682411127800,5.4511279296875,-0.2158515751361847,0.1272708624601364,0.7624799013137817
1772698682421084700,5.461084716796875,-0.023013677448034286,0.15253867208957672,0.594632625579834
1772698682431041800,5.471041748046875,0.18330565094947815,0.17659874260425568,0.48793771862983704
1772698682440999000,5.4809990234375,0.3654874265193939,0.1339399516582489,0.42692551016807556
1772698682450954800,5.490954833984375,0.511070191860199,0.12002520263195038,0.3748260736465454
1772698682460911900,5.500911865234375,0.6035261154174805,0.08490024507045746,0.29483217000961304
1772698682470868700,5.51086865234375,0.6686283946037292,0.04373575747013092,0.17375504970550537
1772698682480825600,5.52082568359375,0.721846342086792,-0.011052122339606285,0.0441797599196434
1772698682490782700,5.53078271484375,0.7629488110542297,-0.08408825099468231,-0.06146324425935745
1772698682500739800,5.54073974609375,0.8082278966903687,-0.1731717884540558,-0.08489800244569778
1772698682510696700,5.55069677734375,0.8479515314102173,-0.2344132959842682,-0.055932532995939255
1772698682520653800,5.56065380859375,0.8805345296859741,-0.25997379422187805,-0.02696186862885952
1772698682530610700,5.570610595703125,0.5424802899360657,-0.11878977715969086,0.05089334025979042
1772698682540567600,5.580567626953125,-0.1560273915529251,0.10582976043224335,0.4041385054588318
1772698682550524700,5.590524658203125,-0.6334049105644226,-0.07585322111845016,0.3684432804584503
1772698682560481800,5.600481689453125,-0.7912954688072205,-0.01341940462589264,0.17340107262134552
1772698682570438700,5.610438720703125,-0.795669436454773,0.1857815831899643,-0.051178883761167526
1772698682580395800,5.620395751953125,-0.730130672454834,0.2251758575439453,-0.11395304650068283
1772698682590353000,5.630352783203125,-0.5334428548812866,0.20296135544776917,-0.04580444470047951
1772698682600309500,5.6403095703125,-0.29348239302635193,0.19088046252727509,0.05411229655146599
1772698682610266600,5.6502666015625,-0.11903983354568481,0.16282354295253754,0.15235356986522675
1772698682620223700,5.6602236328125,-0.05966998264193535,0.17666158080101013,0.24284325540065765
1772698682630180600,5.6701806640625,-0.08039920777082443,0.1934773176908493,0.3204161822795868
1772698682640137700,5.6801376953125,-0.15707294642925262,0.2807461619377136,0.3616890609264374
1772698682650094800,5.6900947265625,-0.22742007672786713,0.3976948857307434,0.33470457792282104
1772698682660051700,5.7000517578125,-0.279449462890625,0.4326970875263214,0.23031504452228546
1772698682670007800,5.7100078125,-0.34028270840644836,0.1713576316833496,0.10836406797170639
1772698682679964700,5.719964599609375,-0.29214608669281006,0.044244956225156784,0.20727093517780304
1772698682689921500,5.729921630859375,-0.2461828589439392,-0.08790216594934464,0.21794334053993225
1772698682699878700,5.739878662109375,-0.23027978837490082,-0.14604508876800537,0.11280892789363861
1772698682709835800,5.749835693359375,-0.206847682595253,-0.12388413399457932,-0.10787279903888702
1772698682719792600,5.759792724609375,-0.03606369346380234,0.2803341746330261,-0.2436293065547943
1772698682729749800,5.769749755859375,0.007605055347084999,0.017896149307489395,-0.21310023963451385
1772698682739707000,5.779706787109375,0.03497595712542534,-0.04513315111398697,-0.19465863704681396
1772698682749663500,5.78966357421875,0.10334184765815735,0.053814493119716644,-0.1968192756175995
1772698682759620600,5.79962060546875,0.14619769155979156,0.07286594808101654,-0.18524011969566345
1772698682769577700,5.80957763671875,0.14548854529857635,0.04367183521389961,-0.15771695971488953
1772698682779534600,5.81953466796875,0.1069701761007309,0.03798412159085274,-0.13629715144634247
1772698682789491700,5.82949169921875,0.07348749786615372,0.0309978649020195,-0.10108736902475357
1772698682799448800,5.83944873046875,0.058134641498327255,0.012241756543517113,-0.05108092352747917
1772698682809405400,5.849405517578125,0.05826070159673691,-0.03088335692882538,0.015377592295408249
1772698682819362600,5.859362548828125,0.06875967979431152,-0.06362452358007431,0.09023798257112503
1772698682829319700,5.869319580078125,0.07439463585615158,-0.10281400382518768,0.15648533403873444
1772698682839276500,5.879276611328125,0.06133316457271576,-0.12285055965185165,0.20059767365455627
1772698682849233700,5.889233642578125,0.018035216256976128,-0.11705552786588669,0.21892550587654114
1772698682859190800,5.899190673828125,-0.2976953089237213,-0.28937482833862305,-0.2773396372795105
1772698682869147600,5.909147705078125,-0.3290756344795227,0.0328303799033165,-0.7247228026390076
1772698682879103700,5.919103759765625,-0.3070182800292969,0.03291533514857292,-1.0240572690963745
1772698682889060600,5.929060546875,-0.2052745372056961,-0.016550224274396896,-1.1145448684692383
1772698682899017500,5.939017578125,-0.12601247429847717,-0.05994377285242081,-1.0632880926132202
1772698682908974600,5.948974609375,-0.07204297930002213,-0.04606763273477554,-0.9431295394897461
1772698682918931700,5.958931640625,-0.03891778737306595,-0.024258743971586227,-0.7585490345954895
1772698682928888600,5.968888671875,-0.0007461832137778401,-0.02566435933113098,-0.5253602862358093
1772698682938845700,5.978845703125,0.06899214535951614,-0.048240773379802704,-0.25696107745170593
1772698682948802800,5.988802734375,0.13663776218891144,-0.0896257609128952,0.004237423650920391
1772698682958759400,5.998759521484375,0.18905410170555115,-0.12226971983909607,0.2357633262872696
1772698682968716500,6.008716552734375,0.19949430227279663,-0.13024750351905823,0.4054209291934967
1772698682978673700,6.018673583984375,0.16934624314308167,-0.13528487086296082,0.49416837096214294
1772698682988630500,6.028630615234375,0.11563555896282196,-0.11387304961681366,0.49713268876075745
1772698682998587600,6.038587646484375,0.05324301868677139,-0.07155381888151169,0.43666139245033264
1772698683008544800,6.048544677734375,-0.03732150420546532,-0.03399286046624184,0.33646124601364136
1772698683018501600,6.058501708984375,-0.1248691976070404,0.0006524673663079739,0.2727174162864685
1772698683028458500,6.06845849609375,-0.15518128871917725,-0.005046164616942406,0.23606114089488983
1772698683038415600,6.07841552734375,-0.15298737585544586,-0.03171905502676964,0.20529523491859436
1772698683048372500,6.08837255859375,-0.11212961375713348,-0.05557939410209656,0.1829836368560791
1772698683058329600,6.09832958984375,-0.053777892142534256,-0.07487239688634872,0.1699935495853424
1772698683068286700,6.10828662109375,-0.016867060214281082,-0.0765877366065979,0.17281627655029297
1772698683078243800,6.118243896484375,-0.021202687174081802,-0.060542456805706024,0.19516286253929138
1772698683088199700,6.12819970703125,-0.038158781826496124,-0.044111546128988266,0.21814055740833282
1772698683098156800,6.13815673828125,-0.05083915591239929,-0.032980598509311676,0.21306617558002472
1772698683108113400,6.148113525390625,-0.04312426969408989,-0.020146019756793976,0.1805959939956665
1772698683118070500,6.158070556640625,-0.021920450031757355,-0.020222187042236328,0.13153311610221863
1772698683128027600,6.168027587890625,-0.01208510808646679,-0.029588527977466583,0.08023912459611893
1772698683137984500,6.177984619140625,0.0025521572679281235,-0.03160640597343445,0.06745381653308868
1772698683147941600,6.187941650390625,0.012379706837236881,-0.055216915905475616,0.11858736723661423
1772698683157898800,6.197898681640625,0.03949708119034767,-0.06946057081222534,0.15943092107772827
1772698683167855600,6.207855712890625,0.06715010851621628,-0.06897056102752686,0.16634413599967957
1772698683177812500,6.2178125,0.07604293525218964,-0.0640687495470047,0.1534152776002884
1772698683187769600,6.22776953125,0.06374088674783707,-0.04995131492614746,0.12640929222106934
1772698683197726700,6.237726806640625,0.04774700850248337,-0.041730668395757675,0.097062848508358
1772698683207683600,6.24768359375,0.0379735603928566,-0.04257916659116745,0.07153498381376266
1772698683217640700,6.257640625,0.031081033870577812,-0.05219131335616112,0.04032939672470093
1772698683227597800,6.267597900390625,0.0219362061470747,-0.04783304035663605,0.00853547640144825
1772698683237554400,6.277554443359375,0.004594232887029648,-0.028806619346141815,-0.046555474400520325
1772698683247511600,6.287511474609375,-0.0302596315741539,0.010968759655952454,-0.10553574562072754
1772698683257468700,6.29746875,-0.062427420169115067,0.043043073266744614,-0.14629703760147095
1772698683267425500,6.307425537109375,-0.08072376996278763,0.054988130927085876,-0.18067103624343872
1772698683277382700,6.317382568359375,-0.0692620575428009,0.0486210472881794,-0.1890416145324707
1772698683287339800,6.32733984375,-0.021979577839374542,0.03445384278893471,-0.16864325106143951
1772698683297295600,6.337295654296875,0.050209663808345795,0.014027397148311138,-0.12191249430179596
1772698683307252700,6.347252685546875,0.1321604698896408,-0.008588170632719994,-0.042291611433029175
1772698683317209600,6.357209716796875,0.19942019879817963,-0.013946717604994774,0.043402254581451416
