time,seconds_elapsed,z,y,x
1772699632644211500,0.10721142578125,0.06812836433053017,-0.001575309325591661,-0.004065548388881143
1772699632654168600,0.11716845703125,0.07171966682076454,-0.0010013910283101723,-0.003280834601842798
1772699632664125700,0.127125732421875,0.0853366887629032,0.005816924384143204,-0.009930186655558644
1772699632674082600,0.13708251953125,0.06423837115466595,-0.0030124020571587608,0.016423690560436806
1772699632684039200,0.1470390625,0.09132394647896289,0.006289679295313544,0.010209473954397252
1772699632693996300,0.156996337890625,0.06498714369535445,-0.0021744305627886206,-0.005132040542655159
1772699632703953200,0.166953125,0.06977496249377727,-0.013182352285343221,0.007290698718398925
1772699632713910000,0.176909912109375,0.05915186167061329,-0.007662730347341857,0.002273614337656181
1772699632723867100,0.1868671875,0.09326923532783984,0.0011525447357213124,-0.004173926967068109
1772699632733824300,0.19682421875,0.07785656214058399,-0.0006154832835309207,-0.0006966359280748293
1772699632743781000,0.206781005859375,0.08399287293851375,0.004756985268741846,0.003310151457050233
1772699632753738200,0.21673828125,0.07082476380765437,0.0049868211023975165,0.0032099784473830365
1772699632763696000,0.226696044921875,0.06453881540596484,-0.00744969038486015,0.006965053810473182
1772699632773653200,0.2366533203125,0.07486439458727837,0.0035841786297038194,0.000774726682563778
1772699632783610000,0.246610107421875,0.0694774408519268,0.00060609440067783,0.0072125891267787665
1772699632793567200,0.256567138671875,0.06842939310371875,0.01801425682066474,-0.009308450015287963
1772699632803524400,0.2665244140625,0.08577508018016815,-0.0044603997752303256,-0.004877052001433913
1772699632813481200,0.276481201171875,0.0748579648464918,-0.003911223193560727,0.004419808611582266
1772699632823438000,0.28643798828125,0.0775467655390501,-0.0027503535874886438,0.008259942184420652
1772699632833395200,0.296395263671875,0.06961304993033408,-0.00981575736249797,0.013695580770797095
1772699632843352000,0.30635205078125,0.046130467534065245,0.00045512335635721683,0.018853089114848988
1772699632853309200,0.31630908203125,0.05809913774728775,0.005842483517085202,0.000623022702592425
1772699632863266300,0.326266357421875,0.07695464486479758,0.00026098902374505995,-0.0014642124922887886
1772699632873223200,0.33622314453125,0.08547346688508987,0.0016472466172184794,0.01783380167024443
1772699632883181000,0.34618115234375,0.07679565491080284,0.003466616664640605,0.010311826933885458
1772699632893138200,0.35613818359375,0.07515256387889385,-0.003398825825168751,0.00795734707523079
1772699632903095300,0.36609521484375,0.06707330231964588,-0.003794063087296672,0.006311169037091895
1772699632913052200,0.37605224609375,0.07740180411040783,-0.0152388646900421,-0.00210659519918845
1772699632923009300,0.38600927734375,0.055256023275852204,-0.012285901202540844,-0.008529409058854798
1772699632932966100,0.395966064453125,0.059443538093566894,-0.0018953076607314868,-0.0009197663138416828
1772699632942923000,0.405923095703125,0.08832418014109134,-0.0031971475069178267,-0.004034644648074754
1772699632952880000,0.415880126953125,0.08099135303497314,0.014343340622424147,-0.0022818784154471357
1772699632962837200,0.425837158203125,0.09281097016632556,-0.0008727185807656496,0.012179214541229885
1772699632972794000,0.435794189453125,0.07575345238149166,0.008749393072887324,0.009020788184570847
1772699632982751200,0.445751220703125,0.080243749538064,-0.009704246112308464,-0.0034938811287793213
1772699632992708000,0.4557080078125,0.07635667897164822,-0.005691507906187325,-0.006443405127368168
1772699633002665200,0.465665283203125,0.0705231505125761,0.0056368414097698405,-0.001601491796330083
1772699633012623000,0.475623046875,0.0757604666441679,-0.008898149327235295,0.009388228690897813
1772699633022580200,0.485580322265625,0.06723112322986126,0.0007584673842182383,-0.00024837042912258765
1772699633032537300,0.495537353515625,0.08144377297759056,0.0003924379502655938,-0.013823721212090459
1772699633042494000,0.505493896484375,0.08009761906564235,0.004163535720505752,0.007798901114752516
1772699633052451000,0.515451171875,0.08727730143666267,0.0015133500052848829,0.0055230126216192724
1772699633062408200,0.525408203125,0.06827566384673119,-0.0027111586548388003,-0.01192651385521749
1772699633072365300,0.535365234375,0.08279051141142844,-0.000961346712289378,-0.0025097651768446667
1772699633082322200,0.545322265625,0.07261398531198501,-0.0014536237412597984,-0.0025878453711236944
1772699633092279300,0.555279296875,0.08054536283314227,0.004132935086265206,-0.0036240959377944817
1772699633102236200,0.565236083984375,0.06842471692860126,0.006256439179414883,-0.006956037674489198
1772699633112193000,0.575193115234375,0.08817629610300064,0.00006905578137375413,-0.003861767161800526
1772699633122150100,0.585150146484375,0.06438274806141853,-0.008535517426766455,-0.001521317826375889
1772699633132107300,0.595107177734375,0.08218962290883064,-0.0018134380635572596,-0.011732983452448388
1772699633142065400,0.6050654296875,0.06019347967803478,0.0046035665390081705,0.009098958854161902
1772699633152022000,0.61502197265625,0.06543079580962657,-0.011626414380501954,0.005597300558892311
1772699633161979100,0.624979248046875,0.061540802633762354,-0.0004790111220208928,0.006148995037100394
1772699633171936300,0.634936279296875,0.06962006419301033,-0.008221921432949602,-0.0012988515921897488
1772699633181893000,0.64489306640625,0.08039280261993408,0.009346893175155855,-0.005673883772062254
1772699633191850200,0.654850341796875,0.07889525753855704,0.011518716222327202,-0.008826027089229319
1772699633201807400,0.664807373046875,0.0715641839981079,-0.0030387786074308675,-0.007082896049215924
1772699633211764200,0.67476416015625,0.06767419082224368,-0.013329930362757295,-0.003517472066920891
1772699633221721000,0.68472119140625,0.08218903838694096,-0.015686969217145814,0.008868527082173385
1772699633231678200,0.69467822265625,0.07336100428700447,-0.004009322406328283,-0.006097791147892712
1772699633241635000,0.704635009765625,0.07500701792836188,0.010448945266078225,-0.0014986970004916655
1772699633251592200,0.71459228515625,0.07261340079009533,0.005571096396911889,0.012391622032760641
1772699633261550000,0.724550048828125,0.07021861460804939,-0.00748984429873526,-0.002465404589076934
1772699633271507200,0.734507080078125,0.06931903541982173,0.006323850992973894,0.014020143399911466
1772699633281464000,0.744464111328125,0.07321019763946533,0.0012821898642228916,0.015477769746142438
1772699633291421200,0.754421142578125,0.06602817718088627,-0.0013894633307121693,0.0026106899592938135
1772699633301378300,0.76437841796875,0.08892389959990978,-0.00023117840737104414,0.006229740685445722
1772699633311335200,0.774335205078125,0.0666278966397047,0.00779662239269819,0.002146221387978585
1772699633321292300,0.784292236328125,0.06752455321848393,0.0014030762975336983,0.005041670261905528
1772699633331249200,0.794249267578125,0.09281213921010494,-0.009654141626576893,0.000904666640709911
1772699633341206000,0.8042060546875,0.06767243725657462,-0.008845341427763923,0.009474940001615322
1772699633351163100,0.8141630859375,0.07784779431223869,-0.0038725534172961485,0.020256964563403743
1772699633361120300,0.824120361328125,0.07650047135651111,-0.008505387149984016,0.014409600516868522
1772699633371077000,0.8340771484375,0.06812135006785393,-0.0012808883897028863,-0.006290187327034073
1772699633381035000,0.844034912109375,0.06318330914378166,-0.003047199375904165,0.0010413868244475452
1772699633390992100,0.8539921875,0.071263739746809,-0.00003016680940054357,-0.0081191060875135
1772699633400949200,0.86394921875,0.0765010558784008,-0.0026104838924948122,0.004821914005914005
1772699633410906000,0.873906005859375,0.07844634472727775,-0.0022721142170252276,0.006145539850578643
1772699633420863200,0.88386328125,0.06782265938222408,0.004832233328884467,0.00035621871352486777
1772699633430820400,0.8938203125,0.07261106270253657,0.0019153366686077786,-0.008426905953139066
1772699633440777000,0.90377685546875,0.08458148648142814,-0.006295232253265567,-0.004104755308796302
1772699633450734000,0.913734130859375,0.07994272076487541,-0.002466495144809596,-0.00025867005872860316
1772699633460691200,0.923691162109375,0.07829729164540768,0.006305045827804133,-0.004856365406431723
1772699633470648300,0.9336484375,0.0685714319229126,-0.009739221527567133,-0.000405656193564937
1772699633480605200,0.943605224609375,0.07365852592885494,-0.013312216609553434,0.0073730700682499446
1772699633490562300,0.953562255859375,0.08787351376414299,-0.011744994692294859,-0.0017903106330079026
1772699633500519200,0.963519287109375,0.07575228333771228,-0.00023251184793189166,0.008241797460487577
1772699633510477000,0.97347705078125,0.07859422876536845,0.001074629794456996,0.006713512464263476
1772699633520434200,0.98343408203125,0.08338321660757064,0.003385317889624275,-0.005015904491342371
1772699633530391300,0.993391357421875,0.06886836904287338,0.005252216873201541,-0.01958891997557366
1772699633540348400,1.003348388671875,0.07739712793529033,-0.004342650580499321,-0.010863577923487173
1772699633550305000,1.013304931640625,0.07380582544505596,-0.01707573386153672,-0.012114549523894675
1772699633560262100,1.02326220703125,0.07919336370229721,-0.019600927790487183,-0.0036818454446867687
1772699633570219300,1.03321923828125,0.06931845089793205,-0.004303519579931162,-0.0006775168107182253
1772699633580176100,1.043176025390625,0.08892039246857165,-0.009508805738599038,0.004758920926679275
1772699633590133200,1.05313330078125,0.08188742509186267,-0.006090471495361998,0.011222734658658737
1772699633600090400,1.06309033203125,0.07410510065257549,0.006110842996533029,-0.008305077092445571
1772699633610047000,1.073046875,0.08203530912995338,-0.0012724813209613784,0.004164561487923492
1772699633620004000,1.083004150390625,0.07904314157664775,-0.003908323416998609,0.0095935762539797
1772699633629962200,1.092962158203125,0.06752221513092517,-0.01506682345822919,-0.008414539661910385
1772699633639919400,1.10291943359375,0.07246084057688712,-0.015803120109834708,0.0007062862474762369
1772699633649876200,1.112876220703125,0.06857026287913322,-0.006250863388576545,-0.0177167591533449
1772699633659833000,1.1228330078125,0.06797171246409416,-0.0014734381200047209,-0.026593882817216218
1772699633669790200,1.132790283203125,0.05824585274159908,0.007585970750125124,0.003226754054370394
1772699633679747000,1.1427470703125,0.07710019081532955,0.00179033574918285,0.005857957364141475
1772699633689704400,1.152704345703125,0.07096446453928947,-0.0035286353504518043,-0.006963671850028913
1772699633699661600,1.16266162109375,0.07365852592885494,0.004579738138848916,0.014167679236485854
1772699633709618700,1.17261865234375,0.06123860481679439,-0.0076566294001182535,0.007750493112474214
1772699633719575300,1.1825751953125,0.07051613624989986,-0.006010583792719989,0.0029140605303851768
1772699633729532400,1.192532470703125,0.08114099063873291,-0.003808256009430624,0.005542032986742561
1772699633739489500,1.202489501953125,0.08353519229888916,-0.000153400463424623,-0.00808818921779748
1772699633749446400,1.2124462890625,0.08757482307851314,-0.010737635147501715,-0.0022566386575024805
1772699633759404500,1.222404541015625,0.08069090878367424,-0.007911581408721394,0.004000035986052535
1772699633769361400,1.232361328125,0.0664753364264965,0.0030928377490723503,-0.008699458692158804
1772699633779318500,1.242318603515625,0.06662614307403564,-0.0037946932749589905,-0.005229057476611342
1772699633789275400,1.252275390625,0.0815904879719019,0.0009479894737945869,0.001089634140288399
1772699633799232500,1.262232421875,0.08009352741241454,-0.011600193093856796,-0.0028110819298119167
1772699633809189600,1.272189697265625,0.06812251911163329,0.0022007979799062013,0.0034835375458671476
1772699633819146500,1.282146484375,0.08099135303497314,0.0002815523211611435,-0.001681526771088829
1772699633829103400,1.292103271484375,0.07186404372751712,0.01180594023244921,-0.005736188439774559
1772699633839060500,1.302060546875,0.0636345600426197,-0.0005475737130502239,0.019026840529846958
1772699633849017300,1.312017333984375,0.08877367747426032,0.01186094465558417,0.011789669517660513
1772699633858974500,1.321974365234375,0.07740121958851814,-0.0024504618920385838,0.0058540386700275115
1772699633868931600,1.331931640625,0.05375847819447517,-0.008154340656031853,-0.0007994835249628522
1772699633878889500,1.341889404296875,0.07979542124867439,0.00311040537180379,0.014351687184016918
1772699633888846300,1.351846435546875,0.0745581051170826,0.00028594080191105605,-0.008780624465612345
1772699633898803500,1.361803466796875,0.08039455618560314,-0.004715447681955993,-0.0021764943703004975
1772699633908760600,1.371760498046875,0.07530629313588141,-0.004044343487359583,0.00463769999158394
1772699633918717400,1.381717529296875,0.08458440909087657,-0.005986842157528736,0.0001620167384870001
1772699633928674600,1.391674560546875,0.0750064334064722,0.001353145341738127,-0.009559602060785983
1772699633938631400,1.40163134765625,0.08503273738026619,-0.0006903249182971194,0.0011527722083512343
1772699633948588300,1.41158837890625,0.06483224539458751,0.0003846702023409307,0.0015796475739916786
1772699633958545400,1.42154541015625,0.06558043341338635,-0.005882167073502205,0.0020910559929950977
1772699633968502500,1.43150244140625,0.07755144171416758,-0.0055552366740768775,-0.00005317579435213702
1772699633978459400,1.44145947265625,0.07201543489694595,-0.0052378823871724305,0.01197282123195473
1772699633988416500,1.45141650390625,0.07036883673369884,-0.01659042086289264,0.012595334761182311
1772699633998373600,1.46137353515625,0.07425882990956306,-0.00201949572940357,-0.0008496536552425822
1772699634008331500,1.47133154296875,0.06168868667185306,-0.0067418480761814855,-0.010518067262822296
1772699634018288400,1.481288330078125,0.0658785395771265,-0.003620035394374281,0.0026420343748060986
1772699634028245500,1.49124560546875,0.07246142509877682,0.0071187322642887,-0.004534809583034075
1772699634038202600,1.50120263671875,0.07201309680938721,0.0025211981738451866,-0.0027389753894152815
1772699634048159500,1.511159423828125,0.08144026584625244,0.005942240397399291,0.0014990837325036409
1772699634058116400,1.521116455078125,0.07605331211090087,-0.0010121361846104264,0.01743315073077101
1772699634068073500,1.531073486328125,0.07680266917347908,0.002893538617575541,0.002285388400896045
1772699634078030300,1.5410302734375,0.07216331893503665,-0.00965686787320301,-0.0008758412633804255
1772699634087987500,1.550987548828125,0.08248831359446049,0.0021595252546016126,-0.0051146829824778245
1772699634097944600,1.560944580078125,0.08114157516062259,-0.0055391440558014435,-0.0065400156359479295
1772699634107901700,1.570901611328125,0.08563011875152587,0.0021380714746192095,-0.002481432704448525
1772699634117858300,1.5808583984375,0.06034019467234611,-0.012714405980031006,0.005630735895968973
1772699634127816400,1.59081640625,0.06722235540151596,0.004237016515247523,-0.006524592021241551
1772699634137773600,1.600773681640625,0.06153612645864486,0.007273078009206802,0.000029403620175435206
1772699634147730400,1.61073046875,0.06856909383535385,0.011305004972987807,0.009737410879682284
1772699634157687600,1.6206875,0.071263739746809,0.0010445771494880319,-0.0015084757548786
1772699634167644400,1.63064453125,0.08293547284007072,-0.011204823400988244,-0.01536439989900682
1772699634177601500,1.6406015625,0.07530337052643299,-0.0005084609787911177,0.00021359365997486747
1772699634187558400,1.650558349609375,0.07904372609853744,0.0016474795126589013,-0.015241705101099796
1772699634197515500,1.660515625,0.06961772610545158,-0.010958360659517347,-0.005662560943738208
1772699634207472600,1.67047265625,0.08054185570180415,0.024874794806493444,-0.006219994467921788
1772699634217429500,1.680429443359375,0.08996902473866938,0.011142466788459569,0.0005996381166609354
1772699634227386400,1.690386474609375,0.07964344555735588,0.009395294327568263,-0.00536294838032336
1772699634237343500,1.700343505859375,0.06916881329417228,0.026592375846719366,-0.0023702713682418105
1772699634247300400,1.71030029296875,0.06886953808665275,0.0005193979313364252,0.01459578672175412
1772699634257258500,1.720258544921875,0.07889584206044674,-0.012794809705903753,0.0004929891296123969
1772699634267215600,1.730215576171875,0.06602759265899658,0.010797397944144903,0.0038650168523454336
1772699634277172500,1.74017236328125,0.07784896335601806,-0.02140620538047515,-0.006263064141379436
1772699634287129300,1.75012939453125,0.0643798254519701,-0.0004666402642149478,-0.002685386319820827
1772699634297086500,1.76008642578125,0.08413140462636948,-0.006148024068609811,0.008160628832923247
1772699634307043600,1.770043701171875,0.07515256387889385,-0.010548145023966208,-0.008074984959641006
1772699634317000400,1.78000048828125,0.06602350100576877,-0.005043423827574588,-0.0008532569701143074
1772699634326957600,1.78995751953125,0.06871756239533423,0.006883521569194272,0.008952093162800883
1772699634336914400,1.79991455078125,0.07739654341340065,-0.001762849520635791,-0.0010427861949676297
1772699634346871300,1.809871337890625,0.06452712496817112,0.018140773843741045,0.013567632125748786
1772699634356828400,1.819828369140625,0.0651250908613205,0.0021761384626850485,-0.003906994543015026
1772699634366785500,1.82978564453125,0.07709609916210174,-0.012063353626197204,0.003414057072807918
1772699634376743700,1.83974365234375,0.0755991386026144,0.001824320217175409,-0.014710905567981535
1772699634386700300,1.8497001953125,0.06796878985464573,0.005745388951315544,0.0016979558890263433
1772699634396657400,1.859657470703125,0.08128536754548549,0.0034257229652488604,0.0028007974269930853
1772699634406614500,1.869614501953125,0.08323007187247276,0.009204740191530435,0.0030512433654817867
1772699634416571400,1.8795712890625,0.0782920309484005,0.00558941293831449,-0.0016794552574778208
1772699634426528500,1.889528564453125,0.07679448586702346,-0.008317646025540307,0.0010762338047206866
1772699634436485600,1.899485595703125,0.07050970650911331,-0.0007779666691320017,-0.004201706883615406
1772699634446442200,1.909442138671875,0.07679448586702346,0.004179240179713815,0.006023939889570465
1772699634456399400,1.9193994140625,0.064523617836833,0.004793307824293151,0.003743155454788939
1772699634466356500,1.9293564453125,0.06153086576163769,0.010112826913199388,-0.0019283810965600421
1772699634476313300,1.939313232421875,0.061530281239748,-0.0036918996207648885,0.007801933322055265
1772699634486270500,1.9492705078125,0.0720043289810419,-0.0017405920230550691,0.00023257863412436562
1772699634496227600,1.9592275390625,0.06646832216382026,-0.0003264143761945888,-0.010622072201635455
1772699634506185500,1.969185546875,0.07589607572257519,0.0010360330834286286,-0.005968596398073714
1772699634516142300,1.979142333984375,0.08232990816235541,0.001226943412492983,0.0012472606855590128
1772699634526099500,1.989099365234375,0.0815811356216669,-0.0023494172369362787,-0.002728016745627974
1772699634536056600,1.999056640625,0.07275251699984073,-0.0015848763049580157,-0.023674828449182676
1772699634546013400,2.009013427734375,0.07978431533277035,-0.008743497621640563,-0.011023734637972665
1772699634555970300,2.01897021484375,0.074697221326828,-0.0023885482375044374,0.0011845769919338635
1772699634565927400,2.028927490234375,0.0742483085155487,-0.008530535290972328,-0.008556720615821542
1772699634575884500,2.038884521484375,0.07499649653434753,-0.007598565370216965,0.00213660018050723
1772699634585841400,2.04884130859375,0.05838613799512386,-0.004385380043950863,-0.013037451363849685
1772699634595798500,2.058798583984375,0.07993453745841979,-0.008993513160222209,-0.007495396115042967
1772699634605755600,2.068755615234375,0.06721475661695003,-0.006753954072506166,-0.009913306302705314
1772699634615712500,2.07871240234375,0.06526946776807308,-0.014241665779659523,-0.002795215642522089
1772699634625669400,2.08866943359375,0.08068214095532894,-0.011456272844830527,-0.006383324953605188
1772699634635626500,2.09862646484375,0.06332300987541675,-0.01503503551390022,-0.01034458070930559
1772699634645584600,2.108584716796875,0.06347323200106621,-0.006456249767565168,0.00004137062130466802
1772699634655541500,2.11854150390625,0.068710548132658,0.009539557069889269,0.006113670849503251
1772699634665498400,2.128498291015625,0.08427227440178393,0.014576258895732462,-0.010080931654304731
1772699634675455500,2.13845556640625,0.06467033283114433,-0.015013650232576765,0.0013239606318602454
1772699634685412400,2.148412353515625,0.06751344730257988,0.0008320897428551688,0.0008061407383793267
1772699634695369700,2.15836962890625,0.06945815162956714,0.011834344343026168,-0.008478213731979486
1772699634705326800,2.168326904296875,0.08412205227613448,-0.01639940093597397,0.0012274463068140903
1772699634715283700,2.17828369140625,0.07694003181755542,-0.014146333912713452,-0.003104702287624241
1772699634725240800,2.18824072265625,0.06526946776807308,-0.013346429406409151,0.004889191105443751
1772699634735197700,2.19819775390625,0.09444821597933768,-0.001631423427001573,-0.012210696524882223
1772699634745154600,2.208154541015625,0.07843699237704277,-0.00652789023166988,0.002101295686274534
1772699634755111700,2.218111572265625,0.07888648971021175,-0.0013292986752698197,-0.016172166909713997
1772699634765069800,2.22806982421875,0.07604395976066589,-0.0058874734362820156,-0.018690209578670326
1772699634775026700,2.238026611328125,0.06541910537183285,0.004644807298271917,0.005499987939058337
1772699634784983600,2.247983642578125,0.07155424712598324,-0.007355509295384399,0.009277829973094048
1772699634794940700,2.257940673828125,0.06497077708244324,-0.005310148472362198,0.019975576639024075
1772699634804897800,2.267897705078125,0.0790367118358612,-0.00854128958042711,-0.0006090635321321315
1772699634814854700,2.277854736328125,0.05853577559888363,-0.015775939841964282,-0.014110433765558992
1772699634824811800,2.287811767578125,0.07379881118237971,-0.015637481219344773,-0.008461374478321522
1772699634834769000,2.297768798828125,0.06856149505078792,-0.0001441942436620593,-0.010497547347890213
1772699634844725500,2.3077255859375,0.07020750869214534,-0.015654162926087154,-0.006029849611371173
1772699634854682600,2.3176826171875,0.07454816824495791,-0.016251315968483684,-0.0065524498550134005
1772699634864639700,2.3276396484375,0.06736614778637885,-0.002430364385503344,0.00014478504459548275
1772699634874596900,2.337596923828125,0.0714075321316719,0.008045834213681519,-0.008139191606783424
1772699634884553700,2.3475537109375,0.062278469258546826,-0.0027430881630629298,-0.00927054970729223
1772699634894510800,2.3575107421875,0.0806833099991083,-0.004654798969323746,-0.002968356277811108
1772699634904468700,2.36746875,0.06946107423901557,-0.014824703531735576,-0.004313461018633097
1772699634914425600,2.377425537109375,0.06931202115714549,-0.010437789117824286,-0.009721281728788745
1772699634924382700,2.3873828125,0.06796528272330761,-0.005784090693620965,0.001740415639008279
1772699634934339800,2.39733984375,0.07918810300529003,-0.00333239125914406,-0.009868094904511236
1772699634944296700,2.407296630859375,0.07230418871045112,-0.006554531643423251,-0.014218864859384483
1772699634954253600,2.417253662109375,0.06586918722689152,-0.011041020274558104,-0.017176837882143445
1772699634964210700,2.427210693359375,0.08217968603670596,-0.0005617940346477553,0.004148481427735533
1772699634974167800,2.437167724609375,0.07709142298698425,-0.0056101314993575215,-0.028307965859258547
1772699634984124700,2.447124755859375,0.0685626640945673,-0.005840940013970248,-0.021374851260986177
1772699634994081800,2.457081787109375,0.0628764351516962,0.013076247862633316,-0.00897318732482381
1772699635004039000,2.467038818359375,0.05913491053581237,-0.010438186410046181,-0.013926428101316559
1772699635013995500,2.47699560546875,0.060032736158370965,-0.005146788303926586,-0.0002455488551961025
1772699635023953700,2.48695361328125,0.06975976492464542,-0.008656983815389685,0.006190145606463192
1772699635033910800,2.496910888671875,0.07110591883659362,-0.00997746442996431,0.007072047003282932
1772699635043868000,2.506867919921875,0.08128127589225768,-0.0001327001686906442,0.02844148116199067
1772699635053824800,2.51682470703125,0.07589373763501643,-0.008732455637818201,0.011922993024147581
1772699635063781600,2.52678173828125,0.08292553596794605,-0.009785307425307109,-0.00007542501501156948
1772699635073738800,2.53673876953125,0.07858487641513347,0.001361369747389108,0.019764018530864267
1772699635083695600,2.546695556640625,0.06047931088209152,0.007572056389204226,0.004757373998631373
1772699635093652700,2.55665283203125,0.07304945411980152,-0.012505306973727419,-0.013262260537582915
1772699635103609900,2.56660986328125,0.07694061633944511,-0.001635665777279064,0.0012003522330895065
1772699635113566700,2.576566650390625,0.07439619255363941,-0.0033875098467105996,-0.003959505614964292
1772699635123523800,2.58652392578125,0.08472060269117355,-0.011392788287717849,-0.0052558261817059245
1772699635133480700,2.596480712890625,0.0748451053649187,-0.028718711217772214,0.014234973460680339
1772699635143437600,2.6064375,0.07065466793775559,-0.005226977400667965,-0.010864823457435705
1772699635153394700,2.616394775390625,0.07349836693108082,-0.008121228404296561,-0.006938466056002653
1772699635163352800,2.626352783203125,0.0779869105219841,-0.008021110764378682,0.003286352739643189
1772699635173309700,2.636309814453125,0.07454583015739917,0.0013885637149913235,0.00690594003862352
1772699635183266600,2.6462666015625,0.06272504398226737,-0.006152156821032985,0.004993313062799279
1772699635193223700,2.6562236328125,0.06377250720858574,0.011757032189960591,0.008686652297046384
1772699635203180800,2.666180908203125,0.07394786426424979,0.002418536950391717,0.00967785243737162
1772699635213137700,2.6761376953125,0.0708060591071844,-0.015473723758687264,0.004543910486108507
1772699635223094800,2.6860947265625,0.059133741492033,-0.021670938997576012,0.00788129529748985
1772699635233052000,2.696052001953125,0.08127952232658862,-0.0043497516081435605,-0.00119301431424974
1772699635243008500,2.706008544921875,0.07649053448438643,0.007958649120572954,-0.00977832056209445
1772699635252965600,2.715965576171875,0.07439619255363941,0.01484428958161734,-0.0021639890838763675
1772699635262922800,2.7259228515625,0.06646539955437183,0.003856291835661977,0.012338823266443796
1772699635272879600,2.735879638671875,0.07544307125806808,0.0026178863142384216,-0.011213555838359751
1772699635282836700,2.745836669921875,0.07499474296867847,-0.013933554245135746,-0.0019015164933429331
1772699635292794600,2.755794677734375,0.08247720767855644,-0.0010864252635277808,0.006470007152392645
1772699635302751700,2.765751708984375,0.07275076343417167,-0.0012541921790223567,0.0050915395689080465
1772699635312708600,2.77570849609375,0.07873509854078292,-0.007699756155791692,0.00035614108171139376
1772699635322665700,2.785665771484375,0.0761912592768669,-0.02130206458598841,0.006706644332059659
1772699635332622800,2.795622802734375,0.07349836693108082,-0.008949756216886453,-0.004135704715375323
1772699635342579700,2.805579833984375,0.06945873615145683,-0.00940378816127777,0.013389910071820485
1772699635352536600,2.81553662109375,0.07379881118237971,-0.019453057452128268,-0.0004901404416334116
1772699635362493700,2.82549365234375,0.07664251017570495,-0.005629041695804335,0.006188654048164608
1772699635372450800,2.835450927734375,0.07978431533277035,0.008817937397607601,-0.011300382455153158
1772699635382407700,2.84540771484375,0.07888590518832206,0.0016112939544254913,0.00882175163126667
1772699635392364800,2.85536474609375,0.07694061633944511,-0.009336773639940656,-0.005254383143290761
1772699635402322000,2.865322021484375,0.07529460269808769,0.0013114159587072208,0.012736563012911938
1772699635412278500,2.875278564453125,0.0757429309874773,-0.007649240678106435,0.003467395836886135
1772699635422235600,2.885235595703125,0.07200199089348316,-0.0054974192393478,0.008240426345664308
1772699635432193800,2.89519384765625,0.07394844878613949,0.005154437320842408,0.0007803567015071167
1772699635442151000,2.90515087890625,0.06796236011385917,-0.0055889836800517515,0.005251118611369747
1772699635452107800,2.915107666015625,0.06347323200106621,-0.014802108107437378,-0.004035212616121862
1772699635462064600,2.925064697265625,0.06616670886874199,-0.00017967198241967706,-0.013431167955748969
1772699635472021800,2.935021728515625,0.07753858223259448,-0.011631656811200082,0.004121593420809949
1772699635481978600,2.944978515625,0.07454583015739917,-0.010608871368411928,0.009885475297574884
1772699635491935700,2.954935791015625,0.07783844196200371,-0.013168136530322953,-0.01254426672764821
1772699635501892900,2.964892822265625,0.05359773467481136,-0.012582249234034679,-0.004794213719057734
1772699635511849700,2.974849609375,0.08322598021924495,-0.005446830696426331,0.00905882149412937
1772699635521806600,2.984806640625,0.07694061633944511,-0.004616398621117696,0.009142398420377867
1772699635531763700,2.994763671875,0.07858662998080253,0.006035604069544933,-0.005525286777096334
1772699635541720600,3.004720458984375,0.06900982334017754,-0.004140611502644605,0.000005449068319285288
1772699635551677700,3.014677734375,0.07454641467928887,-0.003169807408843189,0.008102263979744747
1772699635561635800,3.0246357421875,0.07409691734611988,-0.0013412539745448157,-0.014064968922326806
1772699635571592700,3.0345927734375,0.0757429309874773,0.0002944346356205642,-0.017631127838150133
1772699635581549600,3.044549560546875,0.07439619255363941,0.0016477717736037448,-0.005118590830970788
1772699635591506700,3.054506591796875,0.08517010002434253,0.00796374542079866,0.011647667231084778
1772699635601463800,3.0644638671875,0.07484627440869808,0.0024579373790184034,-0.00874974412851443
1772699635611420700,3.074420654296875,0.06766366942822932,-0.0015204829989699646,-0.012475786335009615
1772699635621377800,3.084377685546875,0.06541910537183285,0.004048462540050968,0.007028353421206702
1772699635631334700,3.094334716796875,0.07544365577995776,-0.0019976309574674814,0.003986885099767823
1772699635641291500,3.10429150390625,0.0775379977107048,0.012069130346435121,-0.001797820940139354
1772699635651248600,3.11424853515625,0.07424538590610028,-0.01198785897088237,-0.005557697488399571
1772699635661205800,3.124205810546875,0.07140227143466472,0.0018851241934346034,0.010255438837839756
1772699635671162600,3.13416259765625,0.08397183015048504,-0.0134896327028051,0.00016359135140955913
1772699635681119700,3.14411962890625,0.06601531769931315,-0.0006091083416715264,0.0027598086857120504
1772699635691077000,3.1540771484375,0.07424597042798996,-0.005773806761624291,-0.013347995742410421
1772699635701033700,3.16403369140625,0.07693944729566574,-0.011481457518436945,-0.0036829782412591155
1772699635710990800,3.173990966796875,0.06137655198276042,-0.012472824909654446,0.0037307212357234674
1772699635720948000,3.183947998046875,0.07574117742180823,0.0055387741630431265,-0.0041975247550755735
1772699635730904800,3.19390478515625,0.07828560120761394,-0.001416497468110174,0.0065166147815849396
1772699635740862000,3.203862060546875,0.06840893483757972,-0.0005561680114595219,0.003712775157901342
1772699635750819000,3.213819091796875,0.06377075364291668,-0.004938515848107635,0.014442597462527918
1772699635760776000,3.22377587890625,0.06347206295728683,-0.00024902915789280083,-0.009704830634198152
1772699635770732800,3.23373291015625,0.07379705761671065,-0.0096843997675227,0.00273344926010468
1772699635780690000,3.24368994140625,0.07125263383090495,-0.0025722753405338153,-0.006576790282648289
1772699635790647000,3.25364697265625,0.05643851105868816,-0.014065532894618808,0.006808033763745333
1772699635800604000,3.26360400390625,0.08217617890536785,-0.008309878277615644,-0.0113436541996547
1772699635810561000,3.27356103515625,0.07708908489942551,-0.01030770559790544,-0.010392274042242206
1772699635820518100,3.28351806640625,0.08486965577304363,-0.00586242119341623,-0.00012979411308479028
1772699635830475800,3.293475830078125,0.08247486959099769,-0.012726553075551055,-0.009125229802334798
1772699635840433000,3.303432861328125,0.0624234306871891,-0.006159819537680596,-0.011232302779669407
1772699635850390000,3.31339013671875,0.07783610387444495,-0.007920591265661641,0.00869207682001288
1772699635860347100,3.32334716796875,0.06481821686923503,-0.00627611656084191,0.001070043809240451
1772699635870303700,3.3333037109375,0.09280161781609057,-0.0009004194384440779,0.004530259845024556
1772699635880260900,3.3432607421875,0.08412205227613448,-0.0005165757865877821,0.0074926847097929565
1772699635890218000,3.353218017578125,0.06616553982496261,0.006413447238877415,0.0055302009850536704
1772699635900174800,3.3631748046875,0.07514379605054855,-0.000924101708130911,0.004525008281171904
1772699635910132000,3.373132080078125,0.07469546776115894,-0.0087801261378685,-0.011032455658901017
1772699635920089000,3.383089111328125,0.07170271568596363,0.0037527812288375567,-0.0022347539067908654
1772699635930046000,3.3930458984375,0.05419453152418136,0.0014088621509261428,0.014176199328014626
1772699635940002800,3.4030029296875,0.07080372101962566,-0.0022561677292222155,0.005914554951919126
1772699635949960000,3.4129599609375,0.06691314332187176,-0.0034777865126263347,-0.002744501518725883
1772699635959918000,3.42291796875,0.08112871567904949,-0.010451260520750657,0.007724526983333635
1772699635969875000,3.432875,0.08292378240227699,-0.011212764678848906,0.025665004469268022
1772699635979831800,3.442831787109375,0.08187690369784832,-0.008503386989142745,0.013044258988904767
1772699635989789000,3.452788818359375,0.06661386811435223,-0.00897820142665878,-0.0006297658247436629
1772699635999745800,3.462745849609375,0.07783668839633465,-0.00806028286414221,0.005065830880560679
1772699636009703000,3.472702880859375,0.07723813798129558,-0.013297886690101585,0.0017642297686135862
1772699636019660000,3.482659912109375,0.08890987107455729,-0.020589664833201096,-0.00464710799697932
1772699636029617000,3.492616943359375,0.0670633654475212,-0.006814187226607464,0.014418106908665504
1772699636039574000,3.502573974609375,0.09309913945794104,-0.009054285170440561,-0.0036971203602210153
1772699636049531000,3.51253076171875,0.08337327973544598,-0.011522529314341954,-0.0020684659915074007
1772699636059487700,3.52248779296875,0.08606675660312176,0.0030992400903953237,0.01099181997112464
1772699636069444900,3.53244482421875,0.08262509171664714,-0.00940670620414894,0.011122102137154434
1772699636079402000,3.542402099609375,0.0736468354910612,-0.0042034247728995975,0.0040702242785875566
1772699636089360000,3.55235986328125,0.07783785744011401,-0.008878663742053322,0.00790630815362674
1772699636099316700,3.562316650390625,0.08247720767855644,-0.024996996414056047,0.012359537260909563
1772699636109273900,3.57227392578125,0.07903495827019213,-0.00750771331556607,-0.007068169979186495
1772699636119231000,3.58223095703125,0.07110474979281425,-0.017132820643903687,0.0029890003465625338
1772699636129187800,3.592187744140625,0.06751344730257988,0.000402899978775531,0.01661126500481041
1772699636139145000,3.60214501953125,0.07858721450269222,-0.006000669753481634,0.005990936094045173
1772699636149102000,3.61210205078125,0.06287585062980651,-0.009632436684845015,0.019238229674648027
1772699636159058700,3.62205859375,0.08966156622469425,-0.01018270011190325,0.006338228290664847
1772699636169015800,3.632015869140625,0.08666939867138862,0.0061518234608927734,-0.008525336242758202
1772699636178973000,3.641972900390625,0.07095686575472354,0.0063927423775661735,0.001470898246813158
1772699636188930000,3.651929931640625,0.07484685893058776,-0.011288693159003741,-0.009844083841261453
1772699636198887000,3.661886962890625,0.0781394707351923,-0.018164588544168508,0.00006540166332997614
1772699636208844000,3.671843994140625,0.07260287939608097,0.0002542807217454538,-0.007237486106017604
1772699636218801000,3.68180078125,0.08397533728182316,-0.01950691566437017,-0.0055519019310304426
1772699636228758800,3.6917587890625,0.05419862317740917,-0.01838929611155763,0.011340226983418687
1772699636238716000,3.7017158203125,0.06392565194368362,-0.010191668869648129,0.004778132517225458
1772699636248673000,3.711673095703125,0.0709592038422823,-0.011905628614104352,-0.010130405952373984
1772699636258630100,3.721630126953125,0.06497311517000198,-0.0008814864091109484,-0.0047914674936560915
1772699636268586800,3.731586669921875,0.0775420893639326,-0.011177391971368342,-0.0143628102245857
1772699636278544000,3.7415439453125,0.0784399149864912,0.004693971069087274,-0.0027104705287274555
1772699636288501000,3.7515009765625,0.07290390816926956,0.0016950267151230945,-0.010418910887418314
1772699636298457900,3.761457763671875,0.064523617836833,-0.011938275074958801,-0.0017530542124062774
1772699636308415000,3.7714150390625,0.06961129636466502,-0.009414044693810865,0.009189783509349217
1772699636318372000,3.7813720703125,0.07814063977897166,-0.00040921098855324086,0.01960829596290132
1772699636328329000,3.791328857421875,0.07769289601147174,-0.007281717973388731,-0.003159279735785094
1772699636338285800,3.801285888671875,0.06497428421378135,-0.005450525057432242,-0.008022733611773582
1772699636348243000,3.811242919921875,0.06976327205598354,-0.0017955005480675026,-0.002313126932836894
1772699636358199800,3.82119970703125,0.06587210983633994,-0.009044266099925152,-0.005744256440154276
1772699636368158000,3.831157958984375,0.0821826086461544,0.008167081406596116,-0.0021449966890388166
1772699636378114800,3.84111474609375,0.0703618224710226,-0.0024363511682953683,-0.003383360825855925
1772699636388072000,3.851072021484375,0.06392740550935268,-0.010008960113348439,-0.014852790265192742
1772699636398028800,3.86102880859375,0.07934007869660854,0.0076213343244511626,-0.00989774797396967
1772699636407986000,3.87098583984375,0.08068740165233612,0.009804459650348872,-0.015130661925079766
1772699636417943000,3.880943115234375,0.08517652976512909,-0.008717993287625722,-0.009516551795281701
1772699636427900000,3.89089990234375,0.08143500514924526,-0.007725365521083586,-0.006652464746942859
1772699636437857000,3.90085693359375,0.08128536754548549,-0.011629026462696491,-0.013972819959733169
1772699636447814000,3.91081396484375,0.07844166855216025,-0.0005989751067245379,-0.008820302884629927
1772699636457770800,3.920770751953125,0.0709586193203926,-0.00045412327593658116,0.01706763617840479
1772699636467728000,3.930727783203125,0.0648240620881319,-0.009432000475609674,-0.00011812194160011131
1772699636477685000,3.94068505859375,0.0714075321316719,-0.009044343731738626,-0.01696010812523309
1772699636487641900,3.950641845703125,0.0775426738858223,-0.00578139641303569,0.0028285031366598557
1772699636497599000,3.960598876953125,0.07140811665356159,-0.01240786534808576,0.008441955108509864
1772699636507556900,3.970556884765625,0.07065992863476275,-0.01486565203005448,-0.005188937812065706
1772699636517514000,3.980513916015625,0.07036006890535354,-0.004543319685175083,0.002544628710960387
1772699636527470800,3.990470947265625,0.07454992181062697,-0.018144774165423587,-0.007459664931247243
1772699636537428000,4.000427978515625,0.07634615757763386,-0.002786899905325845,0.005674520238768309
1772699636547385000,4.010385009765625,0.08278115906119346,-0.0008846830131951719,-0.002671742243191693
1772699636557341700,4.020341796875,0.0582405920445919,-0.0062719061766052615,-0.006190795772901037
1772699636567298800,4.030298828125,0.08098492329418659,0.012213068861770444,0.017724917343625565
1772699636577256000,4.040255859375,0.07110884144604206,-0.0004133757070172578,0.022039598780032248
1772699636587213000,4.050213134765625,0.0622796383023262,-0.018560565591813065,-0.007066311382240382
1772699636597170000,4.060169921875,0.08861585656404494,-0.003451231865840964,-0.021161315824871414
1772699636607127000,4.070126953125,0.06781564511954784,-0.0064425865683937445,-0.003132059795774694
1772699636617084000,4.080083984375,0.07275251699984073,-0.01509778941865079,-0.006430535370996222
1772699636627040800,4.090040771484375,0.07245207274854183,-0.001485525850020349,-0.02242575083669508
1772699636636998000,4.099997802734375,0.06482055495679379,-0.004876446929946541,-0.003968030558481405
1772699636646956000,4.1099560546875,0.0743967770755291,-0.0007129112094407901,0.000730988576359232
1772699636656913200,4.1199130859375,0.06930909854769707,-0.006172172129177488,-0.020214785372512412
1772699636666869800,4.129869873046875,0.08068214095532894,-0.006728230542782694,-0.012033441403479082
1772699636676827000,4.139826904296875,0.07260171035230159,0.009129925956227816,-0.008609045028925174
1772699636686784000,4.149783935546875,0.06661679072380065,0.0028872321743750942,-0.0058122464965592365
1772699636696741400,4.159741455078125,0.07305120768547058,-0.009147420513723045,-0.011426277282077353
1772699636706698500,4.169698486328125,0.07784019552767277,-0.0036853648487012833,-0.019494873600127173
1772699636716655600,4.179655517578125,0.089811203828454,-0.007384854120877571,0.006287783594927168
1772699636726612200,4.1896123046875,0.09026070116162299,0.004055664032394998,-0.00957761264151195
1772699636736569300,4.1995693359375,0.064523617836833,0.002048835988319479,-0.012327764157956698
1772699636746526500,4.2095263671875,0.06736673230826855,-0.00463191585065797,0.00039231037151330383
1772699636756483300,4.2194833984375,0.07559680051505566,-0.000169602679554373,-0.00525907929718378
1772699636766440400,4.2294404296875,0.06781622964143752,-0.016484234241792,0.00184656173173571
1772699636776398300,4.2393984375,0.05943827739655971,-0.010454470824566669,0.0012588466628978493
1772699636786355500,4.24935546875,0.05794190135896206,-0.00902928315992467,-0.02242174366514664
1772699636796312300,4.259312255859375,0.07649696422517299,0.0047471397281624375,-0.008638263131899294
1772699636806269400,4.26926953125,0.0664712447732687,-0.000245279997959733,0.0073618282966723195
1772699636816226600,4.2792265625,0.054499651950597756,-0.004408929882897063,0.005462185812473762
1772699636826183400,4.289183349609375,0.06931260567903519,-0.0020851722436025736,-0.0196567313646432
1772699636836140300,4.299140380859375,0.07200549802482127,-0.0008105948636773973,-0.01907607394096558
1772699636846097400,4.309097412109375,0.08427636605501175,-0.011669687266647815,0.015956440658157225
1772699636856054300,4.31905419921875,0.0652729748994112,-0.011378919592569581,-0.006846347346983384
1772699636866011400,4.329011474609375,0.07589782928824425,-0.004231139330309815,-0.0027747961922897956
1772699636875968500,4.338968505859375,0.07769289601147174,-0.003732697422034107,-0.01593148887999123
1772699636885925600,4.348925537109375,0.07664543278515339,-0.0058929898616159335,0.001984298835147638
1772699636895882500,4.358882568359375,0.05464812051057815,0.004084282772103325,0.0007287829195411177
1772699636905839400,4.36883935546875,0.058389060604572295,0.0009148680889047682,-0.0028384245965862643
1772699636915797500,4.378797607421875,0.07395078687369823,-0.019148658544919452,-0.002438427819305798
1772699636925754400,4.38875439453125,0.08173077322542667,-0.0014653324453625827,-0.01377434852036531
1772699636935711500,4.39871142578125,0.06856324861645698,-0.0007098927018698304,-0.010824514279933646
1772699636945668400,4.40866845703125,0.07514613413810729,-0.006845555045828223,-0.01092127548556309
1772699636955625500,4.41862548828125,0.08008417506217956,-0.0031728944150730964,-0.014169566374539862
1772699636965582300,4.428582275390625,0.0826268452823162,0.004609379791864193,-0.004919928166180034
1772699636975539500,4.43853955078125,0.06661620620191097,0.006124346365500241,-0.013454455216502537
1772699636985496600,4.44849658203125,0.07050678389966487,0.009308885552594438,0.0010025024190515978
1772699636995453400,4.458453369140625,0.06990823348462581,-0.01391842060808558,0.010641125103621743
1772699637005410600,4.46841064453125,0.07888590518832206,-0.01023206937869545,-0.009009018973319325
1772699637015367400,4.478367431640625,0.07424713947176932,-0.013095911544328554,0.002199634644348407
1772699637025324300,4.48832421875,0.07035714629590512,-0.011654329867311753,-0.011330570955795701
1772699637035281400,4.498281494140625,0.07140460952222347,0.006422502761590294,-0.009591193642292637
1772699637045238500,4.508238525390625,0.08098083164095878,-0.0005243983334396034,-0.005861920011561597
1772699637055196400,4.518196533203125,0.06047989540398121,0.0047804711756063625,0.00981574937098776
1772699637065153300,4.5281533203125,0.06766250038444996,0.004752678986382671,-0.002112413589443895
1772699637075110400,4.5381103515625,0.0757429309874773,-0.017229540750337762,-0.010248288719489938
1772699637085067500,4.548067626953125,0.07349836693108082,-0.02267417948967777,-0.000961279926096904
1772699637095024400,4.5580244140625,0.06392156029045581,-0.015151190973166376,-0.005300402254838263
1772699637104981500,4.5679814453125,0.06482055495679379,-0.0055944453064585105,-0.009207647959602763
1772699637114938600,4.577938720703125,0.06422200454175472,-0.011403606509254312,0.0017732778706384122
1772699637124895200,4.587895263671875,0.07200199089348316,-0.006922237011231481,-0.0016616481748511433
1772699637134852400,4.597852294921875,0.09070669136345386,-0.019749149755295365,-0.005918126586161088
1772699637144809500,4.6078095703125,0.062275546649098394,-0.005357389714149758,0.01787612470831955
1772699637154766300,4.617766357421875,0.07574351550936699,-0.011528351700352504,0.009789778104447758
1772699637164723500,4.627723388671875,0.07664134113192558,-0.008305827723583206,0.0002575991963603883
1772699637174680600,4.6376806640625,0.07589315311312675,-0.002500109720043838,0.00038728913440136235
1772699637184637200,4.64763720703125,0.0637736762523651,-0.004521354448539205,-0.004370042052568169
1772699637194594300,4.65759423828125,0.0715554161697626,-0.010554223138303495,-0.00040688831319275775
1772699637204552400,4.667552490234375,0.07305237672924995,-0.007900927583966403,0.003436316568266193
1772699637214509600,4.677509521484375,0.07664426374137401,0.004762967484956607,-0.009096490619151154
1772699637224466400,4.687466552734375,0.07739303628206252,-0.007109370780899189,0.009543833669496234
1772699637234423300,4.69742333984375,0.08083470116853714,-0.024132940630358642,0.0018622071108504313
1772699637244380400,4.70738037109375,0.07649521065950393,-0.015983125452394595,-0.005492342347075464
1772699637254337300,4.717337158203125,0.05943710835278034,-0.003641758602415211,0.0013119291278271702
1772699637264294400,4.72729443359375,0.08083528569042682,-0.012308081068308092,-0.007996412431250792
1772699637274251500,4.73725146484375,0.08008768219351768,0.003931366365868598,-0.001857496115581307
1772699637284208600,4.747208740234375,0.08562368901073932,0.0026835445621283724,-0.008896099504866287
1772699637294165200,4.757165283203125,0.07320376789867877,-0.013058945101383142,0.00398410919161397
1772699637304122400,4.767122314453125,0.08158347370922565,-0.0058914189590374005,0.010412115820450707
1772699637314079500,4.77707958984375,0.09116086487174034,0.0009776402599643915,0.002708929023490054
1772699637324036400,4.787036376953125,0.04327741619050503,-0.007761336450185626,0.0027196290848398347
1772699637333994500,4.796994384765625,0.06692015758454799,-0.005449392546270974,-0.02243666495635407
1772699637343951400,4.806951416015625,0.06542378154695033,-0.013632260610465892,-0.0065475185223913285
1772699637353908500,4.816908447265625,0.06362754577994346,-0.008590476184128783,-0.016831864935951308
1772699637363865300,4.826865234375,0.08248188385367393,-0.009096699540060944,0.000059624657680978996
1772699637373822500,4.836822509765625,0.0682657269746065,-0.006603275289130397,0.009401789712902973
1772699637383779600,4.846779541015625,0.06811608937084675,0.00041901999651454386,0.008751384100574067
1772699637393736400,4.856736328125,0.0717079763829708,0.014323494277638382,-0.010326255034748464
1772699637403693300,4.866693359375,0.08248305289745331,-0.014324284295504912,-0.01109785817846423
1772699637413650400,4.876650390625,0.07560030764639378,-0.014353327726898714,0.010120029547187732
1772699637423607300,4.886607177734375,0.06856792479157447,0.001940964300208725,-0.0011413837354790303
1772699637433564400,4.896564453125,0.0809890149474144,-0.0032604813669808207,0.006331289947335608
1772699637443521500,4.906521484375,0.08592764039337634,-0.009115765000134706,-0.004067440664334572
1772699637453478400,4.916478515625,0.07964344555735588,-0.00035872291033156215,-0.00942519970042049
1772699637463435500,4.926435546875,0.06542728867828845,-0.0037448810501722616,-0.02381494473934872
1772699637473392400,4.936392333984375,0.05959083760976791,0.006911418789695017,0.004518254313399666
1772699637483350500,4.9463505859375,0.0705143826842308,0.010692120071919635,0.003924901519519335
1772699637493307400,4.956307373046875,0.05899228719472885,-0.005588764484343119,-0.003300026784435613
1772699637503264500,4.966264404296875,0.07006546987295151,-0.0002401243322296068,-0.004433706418660585
1772699637513221400,4.976221435546875,0.08457973291575908,0.008877617995860055,0.0049009123676340095
1772699637523178200,4.98617822265625,0.06781973677277564,0.0040280864723026754,0.005108802372607169
1772699637533135400,4.99613525390625,0.07874269732534885,-0.005794479656894691,0.010871300005639205
1772699637543092500,5.006092529296875,0.07919161013662815,0.000477179924538359,-0.0034017795444247893
1772699637553049300,5.01604931640625,0.068867199999094,0.001199795110663399,-0.0034262809439082045
1772699637563006500,5.02600634765625,0.081437343236804,0.00039361612719949335,0.011715633883781265
1772699637572963600,5.035963623046875,0.06048749418854713,-0.008835025529726408,-0.0005183125130031839
1772699637582920200,5.045920166015625,0.07844400663971901,-0.011913209132361225,-0.013516283247712998
1772699637592877300,5.055877197265625,0.0723094494074583,-0.009417538125417195,-0.011377922937081893
1772699637602834400,5.06583447265625,0.0827834971487522,-0.00912718600986991,-0.0038189443689261677
1772699637612791600,5.07579150390625,0.08308277235627173,-0.0008960126913851126,-0.01668179579064017
1772699637622749400,5.08574951171875,0.08787117567658424,-0.009803715298254974,-0.004732487579602457
1772699637632706300,5.095706298828125,0.06991466322541237,-0.0056317222766578195,-0.0011906302755072828
1772699637642663400,5.105663330078125,0.06243336755931377,-0.00982254329631105,-0.0096739765549195
1772699637652620300,5.115620361328125,0.08951718931794166,-0.009569267221563494,-0.003705855651703314
1772699637662577400,5.125577392578125,0.07156126138865947,-0.007221914077550172,0.007066342206636909
1772699637672534500,5.135534423828125,0.07066343576610087,-0.00037779750355985015,0.009263927028616307
1772699637682491600,5.14549169921875,0.06437865640819072,0.0012695632780902087,-0.003159885092683544
1772699637692448300,5.1554482421875,0.07425532277822494,-0.005960661970078945,-0.003774750175817462
1772699637702405400,5.1654052734375,0.07455401346385479,-0.0008137366688344628,-0.01873318335400545
1772699637712362500,5.175362548828125,0.08053951761424541,-0.008189279538672416,-0.02066930365738226
1772699637722319400,5.1853193359375,0.08113806802928447,-0.010115667324257083,0.001950895178700739
1772699637732276500,5.1952763671875,0.09490472757518291,-0.016264613841474054,-0.007402064979760325
1772699637742233600,5.205233642578125,0.06737140848338603,-0.003130827105324715,0.005528784775279928
1772699637752190500,5.2151904296875,0.0702133539110422,-0.010175914178090169,-0.006740269182092743
1772699637762147300,5.225147216796875,0.07874269732534885,-0.016523662069882265,0.003540038664700114
1772699637772105500,5.23510546875,0.07305705290436744,-0.010734616639930755,0.0005834941243912908
1772699637782062600,5.2450625,0.07590075189769267,-0.0011655046819942071,-0.007417790559388231
1772699637792019500,5.25501953125,0.08472995504140854,-0.00431290389620699,-0.001071480568611878
1772699637801976300,5.264976318359375,0.07829553807973862,0.010921152187976986,-0.019876196501334195
1772699637811933400,5.274933349609375,0.06916764425039292,-0.010743357068812473,-0.015674093752552288
1772699637821890300,5.284890380859375,0.07515197935700416,0.0015782593345036728,0.0031555502692164734
1772699637831847400,5.294847412109375,0.07515139483511447,-0.008265500279772095,-0.009631477703619747
1772699637841804500,5.304804443359375,0.07575052977204322,-0.008202632210589944,0.002434406377203413
1772699637851761700,5.31476171875,0.07350713475942611,0.005056118912366218,-0.01431269432241097
1772699637861718500,5.324718505859375,0.07335749715566635,-0.010228192354599014,-0.004079502707353094
1772699637871675400,5.33467529296875,0.08024024240672588,-0.004517349560279399,-0.00040758414540323427
1772699637881632500,5.344632568359375,0.08921849863231182,0.0061483026298228645,0.007568807269481476
1772699637891589400,5.35458935546875,0.07320785955190658,-0.00838132237889804,-0.0026049115265894215
1772699637901546500,5.36454638671875,0.07395604757070541,-0.01970507771812845,-0.01545359771104413
1772699637911504400,5.37450439453125,0.06288403393626213,-0.001739555410016328,0.0041505649286118565
1772699637921461500,5.38446142578125,0.07739888150095939,-0.000635471192211844,-0.0011610725333492155
1772699637931418400,5.39441845703125,0.07650164040029049,-0.009104248092276975,0.0029037611861902402
1772699637941375500,5.40437548828125,0.07754910362660884,-0.0023001667011529206,0.007517568560122163
1772699637951332600,5.41433251953125,0.08129062824249267,-0.01046570003805682,-0.011828325594193301
1772699637961289500,5.42428955078125,0.06812251911163329,0.003969821513001807,0.006351398870314005
1772699637971246600,5.43424658203125,0.06064180796742439,-0.009175016340124421,0.014282215844112215
1772699637981203500,5.444203369140625,0.0748579648464918,-0.00751448554964736,0.007126863055105786
1772699637991160300,5.454160400390625,0.07515724005401134,0.0027080899149179456,0.0024834568398204282
1772699638001117400,5.464117431640625,0.07171499064564704,-0.007878455457254312,-0.008131841129856184
1772699638011074600,5.474074462890625,0.08608020060658454,-0.0015471883428050204,-0.0015927664942355477
1772699638021031400,5.484031494140625,0.0932628055870533,-0.0039254754811991,0.008623229388726759
1772699638030988500,5.493988525390625,0.08952245001494884,-0.00728165860788431,-0.004319843095769466
1772699638040945400,5.5039453125,0.08069324687123298,0.0017291618801653385,0.000010707196626754012
1772699638050902300,5.51390234375,0.07156535304188728,-0.005709061829186976,-0.005033687884849496
1772699638060860400,5.5238603515625,0.06902092925608158,-0.012360820469120517,-0.005868320640418096
1772699638070817500,5.533817626953125,0.07814882308542728,-0.008899921159213408,0.003434215086491895
1772699638080774700,5.543774658203125,0.06917173590362072,-0.008282839573640377,0.010413282580941449
1772699638090731300,5.553731201171875,0.0643839171051979,-0.0029373640595702455,0.006945276535168523
1772699638100688400,5.5636884765625,0.08174187914133071,0.0040147520666941995,-0.009815740237833232
1772699638110645500,5.5736455078125,0.07006956152617931,-0.010945537710562349,-0.00913240332439309
1772699638120602400,5.583602294921875,0.07261340079009533,0.0016107459651539102,-0.0008922529712421237
1772699638130559500,5.5935595703125,0.06752513774037361,0.0020123581691412254,-0.01118668381445459
1772699638140516600,5.6035166015625,0.062138768526911733,-0.010165538914548232,-0.008403929219639394
1772699638150473500,5.613473388671875,0.08652969793975353,-0.00880682234854903,-0.0052727573377313085
1772699638160430300,5.623430419921875,0.08368775251209735,-0.01668520017398987,0.01137656095541315
1772699638170387500,5.633387451171875,0.0847352157384157,-0.021623186299134976,0.010940266738756326
1772699638180344600,5.643344482421875,0.062138768526911733,-0.005876376653532497,-0.004284972426376771
1772699638190301400,5.653301513671875,0.06827449480295181,-0.0046051100421231235,-0.01080887032787432
1772699638200259300,5.66325927734375,0.06737666918039321,-0.0003231218739878386,0.002703890376302297
1772699638210216400,5.673216552734375,0.07111819379627704,-0.013512872014497405,-0.001315317528156447
1772699638220173300,5.68317333984375,0.0648328299164772,0.005088336114957928,0.00044623023254825966
1772699638230130400,5.69313037109375,0.08518471307158469,-0.0012764999089529736,0.002293159859164734
1772699638240087600,5.703087646484375,0.07126900044381618,0.00031331286602653564,-0.011467150431871414
1772699638250044700,5.713044677734375,0.06677928780913353,0.0025916239283978936,-0.00391563850295206
1772699638260001500,5.72300146484375,0.07096855619251728,0.006857720407657325,-0.0002967884207886527
1772699638269958400,5.73295849609375,0.07800210809111595,0.008945605198154226,0.0028419157449039627
1772699638279915500,5.74291552734375,0.06438508614897727,-0.0018307271250756457,-0.0013199117902942816
1772699638289872400,5.752872314453125,0.060793783658742905,0.00034207316963002083,0.0020831552435076443
1772699638299829500,5.76282958984375,0.06139174955189228,-0.0016869986722944303,0.009698842709761811
1772699638309786600,5.77278662109375,0.06752689130604267,0.0022215439404128117,0.029934923173696733
1772699638319743500,5.782743408203125,0.08249006716012955,-0.004815432891133241,0.013792963030934333
1772699638329700400,5.792700439453125,0.08129296633005141,-0.01594359259302728,0.00031981510122714097
1772699638339657500,5.802657470703125,0.06049275488555431,0.007405938008101656,-0.004665822972248134
1772699638349615600,5.81261572265625,0.07380933257639408,-0.008143636598926968,-0.0028996344273997236
1772699638359572500,5.822572509765625,0.06423252593576907,0.003503925600880757,0.008990549451578409
1772699638369529600,5.832529541015625,0.07351005736887455,-0.02270445133035537,-0.004568276315329422
1772699638379486500,5.842486572265625,0.07291150695383548,-0.009559951403946615,0.0008846775903846719
1772699638389443300,5.852443359375,0.07874678897857666,-0.0017393544806167483,0.00512209453737596
1772699638399400400,5.862400390625,0.06483049182891845,-0.0007063399047590791,-0.010413617082725977
1772699638409357600,5.872357666015625,0.07919628631174563,0.0013527937152888626,-0.011190526589221553
1772699638419314400,5.882314453125,0.08398468963205814,0.001168166996538639,-0.010263376690767472
1772699638429271600,5.892271484375,0.07081599597930907,0.00046139326693955807,-0.011643776507256553
1772699638439228400,5.902228515625,0.07919570178985595,-0.0015879176454152912,-0.004298704409618222
1772699638449185300,5.912185302734375,0.0672246934890747,-0.001316932384041138,-0.0005893830111832357
1772699638459142400,5.922142333984375,0.07171323707997798,-0.0009601502690464258,0.0035589320218932696
1772699638469099500,5.932099609375,0.07335925072133541,-0.003823252649162896,0.003709081938539748
1772699638479056400,5.942056396484375,0.0765010558784008,0.003394757004827261,0.003040014151991636
1772699638489013500,5.952013427734375,0.07680033108592033,0.0007962101452983916,-0.013096077082754344
1772699638498971400,5.961971435546875,0.09206219762563705,0.002138573798118159,-0.015137428450939478
1772699638508928500,5.971928466796875,0.06991583226919174,0.005432158283679746,0.008857745964077185
1772699638518885400,5.981885498046875,0.08308394140005111,-0.004068706177058629,-0.007182109506835695
1772699638528842500,5.991842529296875,0.07560089216828346,-0.005580311749828979,0.002928183241393708
1772699638538799600,6.001799560546875,0.0823351688593626,0.007930934563162736,-0.0004326615044439677
1772699638548756500,6.011756591796875,0.07919277918040751,0.0028725597616285083,0.0016431090128069625
1772699638558713300,6.02171337890625,0.06048690966665744,-0.0018811741041019558,-0.01298711169938906
1772699638568670500,6.03167041015625,0.0676695146471262,0.00019690624501090496,0.01819742451797938
1772699638578627300,6.04162744140625,0.07979016055166721,0.0026385683426633478,-0.005511970637796912
1772699638588584400,6.05158447265625,0.08847031061351299,-0.0017728000924922525,-0.018530532354797468
1772699638598541600,6.06154150390625,0.0836813227713108,0.0006886033186689019,0.007052605942229275
1772699638608498700,6.071498779296875,0.0853279209345579,-0.014024917756440117,-0.0009965484585336525
1772699638618455300,6.081455322265625,0.07126198618113994,-0.010714199472987093,-0.012514553151041035
1772699638628412400,6.091412353515625,0.07126140165925025,-0.008326829412416555,-0.010124713713815434
1772699638638369500,6.10136962890625,0.06871756239533423,-0.017020163182821124,0.011639554706576745
1772699638648327400,6.111327392578125,0.07470306654572487,-0.014773530466924421,-0.0007500440470452304
1772699638658284500,6.121284423828125,0.08098843042552471,0.0003110250108176842,-0.010018285064119845
1772699638668241400,6.131241455078125,0.07530161696076393,-0.008014918485609814,-0.0043484253028596865
1772699638678198500,6.141198486328125,0.07530220148265361,0.0067383637777296826,-0.015167952595010865
1772699638688155400,6.1511552734375,0.07455459798574447,0.0036851867521880194,0.008309081980705377
1772699638698112500,6.161112548828125,0.05929156240224838,0.0072847821467323225,-0.018219341805553995
1772699638708069600,6.171069580078125,0.06452887853384018,-0.017801545651745982,-0.0016025309780685346
1772699638718026800,6.18102685546875,0.08368249181509017,-0.016864789958018808,-0.014873169757873983
1772699638727983400,6.1909833984375,0.0709627109736204,-0.005193262360733934,-0.0006222840587201062
1772699638737940500,6.2009404296875,0.0757516988158226,-0.0060117985022719945,-0.007489959604811156
1772699638747897600,6.210897705078125,0.07679974656403064,-0.008460922387172467,-0.000907167127172579
1772699638757854500,6.2208544921875,0.0666238049864769,-0.009558786926744505,-0.010253535716765327
1772699638767811600,6.2308115234375,0.07784662526845931,0.00042474648440256715,-0.008972673014059546
1772699638777768700,6.240768798828125,0.06497779134511947,-0.0022683239578967914,-0.010854800961987347
1772699638787725600,6.2507255859375,0.06423018784821033,-0.008307736552879214,0.0003201430385568528
1772699638797683500,6.260683349609375,0.06991641679108142,-0.01223378285623621,-0.0033281979995721483
1772699638807640600,6.270640625,0.07784662526845931,-0.0015440511042252181,-0.00993650451520225
1772699638817597700,6.28059765625,0.08428104223012924,-0.00859882388736587,-0.016810714833356905
1772699638827554600,6.290554443359375,0.058842065069079394,-0.015213214225554838,0.0002657559595856583
1772699638837511400,6.300511474609375,0.08308335687816143,-0.010797516675153747,-0.006129825116571737
1772699638847468500,6.310468505859375,0.07949146986603736,0.005756362436478957,-0.0011101414971330086
1772699638857425400,6.32042529296875,0.06213350782990455,0.012162083026627078,0.0009408039644709788
1772699638867382500,6.330382568359375,0.06767126821279526,-0.0012616904988884926,0.008905172723066061
1772699638877339600,6.340339599609375,0.07111351762115956,-0.000524827591702342,0.008766134715956286
1772699638887296500,6.350296630859375,0.07889350397288798,0.0029457802614662795,0.0006632982015871675
1772699638897253600,6.360253662109375,0.08248539098501205,-0.011795199642726219,-0.001688104640225356
1772699638907210500,6.37021044921875,0.06557634176015853,-0.01461491497226525,0.0052103938753367395
1772699638917167600,6.380167724609375,0.06018997254669666,0.00001324307406321168,-0.01010402597716893
1772699638927124500,6.39012451171875,0.07141103926301003,0.00047655887003056704,0.0006179132734570885
1772699638937081600,6.40008154296875,0.0642272652387619,-0.013705969734070822,-0.0022778418465575667
1772699638947039500,6.41003955078125,0.0715595078229904,-0.004889822434750385,-0.01744042072177399
1772699638956996400,6.419996337890625,0.0633294396162033,-0.0003642347690882161,-0.016406777099898316
1772699638966953500,6.429953369140625,0.08921674506664276,-0.017803536679432727,0.0045980797964264635
1772699638976910600,6.43991064453125,0.06332885509431362,0.009949375413218513,-0.010402355903194984
1772699638986867700,6.44986767578125,0.06632102264761924,0.003584626154275611,-0.006970091316016624
1772699638996824600,6.459824462890625,0.07410276256501674,-0.012805276300990954,0.005062201022458612
1772699639006781700,6.46978173828125,0.06273030467927455,0.0009101097153965383,0.0008293084118908155
1772699639016738600,6.479738525390625,0.07739595889151096,-0.0005713701471686363,-0.012460490584466606
1772699639026695400,6.4896953125,0.08338204756379126,-0.003301900222757831,-0.0026869743470640966
1772699639036652500,6.499652587890625,0.07455401346385479,-0.006449897658592089,-0.004958566547225928
1772699639046609700,6.509609619140625,0.07066460480988025,-0.004036169314058497,0.0010773537577944807
1772699639056566500,6.51956640625,0.06812193458974361,0.0006027333998121321,0.0023827366971148874
1772699639066523600,6.529523681640625,0.06423194141387939,0.001120231635007076,-0.004417486221632861
1772699639076480500,6.53948046875,0.06737433109283447,0.010528992798924445,0.0034890514025013543
1772699639086437400,6.549437255859375,0.06677578067779541,0.013493190066493115,0.0043800939453576574
1772699639096395500,6.5593955078125,0.08188917865753173,0.0012852494709892199,0.00036138294158736243
1772699639106352600,6.5693525390625,0.07859773589670657,0.0099227888003923,-0.010516315980441868
1772699639116309800,6.579309814453125,0.04941840316355228,-0.009595219080150126,-0.009867103957245126
1772699639126266400,6.589266357421875,0.08428338031768798,-0.006838691480201668,-0.004206224940995162
1772699639136223500,6.599223388671875,0.07904664870798588,-0.006028621772909536,0.005921800397569313
1772699639146180600,6.6091806640625,0.07365969497263432,-0.0058768972433404995,-0.00830385610384983
1772699639156137500,6.619137451171875,0.06902209829986095,0.00619074896548409,-0.006031289795675548
1772699639166094600,6.629094482421875,0.08398585867583751,0.006100974623067304,-0.009826263915136224
1772699639176051700,6.6390517578125,0.06498129847645759,0.0033194952449528497,-0.0007678816686573554
1772699639186008600,6.649008544921875,0.08174012557566165,-0.0029578405920183282,-0.012081149577791802
1772699639195965400,6.65896533203125,0.07261164722442627,-0.010124005894339642,0.01658853258319432
1772699639205922600,6.668922607421875,0.07335925072133541,-0.012647455390775575,-0.006122319946839707
1772699639215879400,6.67887939453125,0.06752338417470455,0.0075597448969027025,-0.0002792964319931343
1772699639225836500,6.68883642578125,0.0708148269355297,-0.016258745789690873,-0.027061959269980434
1772699639235793700,6.698793701171875,0.07545300813019275,0.004027515650144778,0.006097351614831131
1772699639245750800,6.708750732421875,0.07141279282867909,-0.008295452460041269,0.0005202926950689288
1772699639255708400,6.71870849609375,0.08278583523631096,-0.0005378651697887108,-0.00907884536460624
1772699639265665500,6.72866552734375,0.08532967450022697,-0.01252539078053087,-0.0017348192985722562
1772699639275622700,6.73862255859375,0.07874678897857666,0.00044040527783799913,-0.020652578568155878
1772699639285579500,6.74857958984375,0.09191431358754634,0.004540068282163702,-0.007317404633056139
1772699639295536600,6.75853662109375,0.07350947284698486,-0.003389866200578399,-0.016925016262254212
1772699639305493500,6.768493408203125,0.0902694689899683,-0.005730031551979482,-0.005940533639147179
1772699639315450400,6.778450439453125,0.07710135985910892,-0.00305530048396904,-0.014471675143251195
1772699639325407500,6.788407470703125,0.07096621810495853,-0.005008361647347919,-0.022669295535294804
1772699639335364600,6.798364501953125,0.08278758880198002,-0.013295265474752523,-0.015815131349681176
1772699639345321700,6.80832177734375,0.07635375636219978,-0.007960585349332541,0.0035235127924068362
1772699639355278600,6.818278564453125,0.08129179728627205,-0.006657001070631667,-0.0007196651772130281
1772699639365235500,6.8282353515625,0.0919160671532154,-0.004685253473091871,0.004095210876905184
1772699639375192600,6.838192626953125,0.07500701792836188,-0.012623225131817161,0.0046561309828292
1772699639385149400,6.8481494140625,0.05974456686675548,-0.005194161976454779,-0.016560635362693574
1772699639395107600,6.858107666015625,0.06677870328724383,-0.001717918966943398,-0.00735864139656478
1772699639405064700,6.868064697265625,0.08009703454375267,0.008395012977533043,0.0044317422196152615
1772699639415021600,6.878021484375,0.07635550992786884,-0.0058608091916423286,-0.012714796422387006
1772699639424978400,6.887978515625,0.07455985868275165,-0.004287531992932781,0.009401284535293234
1772699639434935600,6.897935546875,0.0848836842983961,-0.011787687623128294,-0.010745869827951537
1772699639444892700,6.907892578125,0.07111760927438736,-0.005083157616341486,-0.010034480430383701
1772699639454849500,6.917849609375,0.06932254255115985,0.0035089351361384615,0.011009870509401661
1772699639464806700,6.927806640625,0.06842413240671158,-0.0035376223745057357,0.009499016138591105
1772699639474763500,6.937763427734375,0.06872399213612079,0.0016336793161695821,0.015829298013995866
1772699639484720400,6.947720458984375,0.07201660394072532,-0.005785940157412551,-0.012459060104138915
1772699639494677500,6.957677490234375,0.06633037499785423,0.0045259255923796446,-0.009184628414441249
1772699639504634600,6.967634521484375,0.07485913389027118,0.008358293129759841,-0.009155704284878448
1772699639514591500,6.977591552734375,0.08129296633005141,0.0048334160723956295,-0.003154388646125153
1772699639524548600,6.987548583984375,0.0762047032803297,-0.0017423821213422342,0.01494836187744513
1772699639534505700,6.997505615234375,0.0679740505516529,0.002303824529540725,0.0003894419901698711
1772699639544462300,7.00746240234375,0.06752455321848393,-0.007841123688127845,0.0002642401413453626
1772699639554420500,7.01742041015625,0.07814940760731696,-0.008736460526078007,-0.0014347843267605638
1772699639564377600,7.027377685546875,0.06812427267730235,-0.006701388201629742,-0.00013070114949368872
1772699639574334700,7.037334716796875,0.07036883673369884,0.00008108871246222406,-0.0010673332602236768
1772699639584291600,7.04729150390625,0.07859890494048595,0.0032861592309316617,0.0007540572122263256
1772699639594248400,7.05724853515625,0.07740121958851814,0.0016798017465276642,-0.007353985771044972
1772699639604205600,7.06720556640625,0.08323650161325931,0.0029436613696161656,-0.016305498407711273
1772699639614162400,7.077162353515625,0.08712707931101321,-0.011821873020520433,-0.009846702773321885
1772699639624119600,7.08711962890625,0.07919687083363533,-0.006220308420108631,0.0001323391236757743
1772699639634076700,7.09707666015625,0.07590484355092048,0.004862222041771747,-0.009014958948694403
1772699639644033500,7.107033447265625,0.07560615286529064,-0.00798187473253347,0.01591492590425769
1772699639653990400,7.116990478515625,0.0744096365571022,-0.008132311487314291,0.01787122933749342
1772699639663947500,7.126947509765625,0.06378595121204853,0.005945701862964779,0.0018287726300070062
1772699639673904600,7.136904541015625,0.07081833406686783,0.004107069992646575,0.010300351125223095
1772699639683861500,7.146861572265625,0.05809913774728775,0.001482735671312548,-0.00840426714635687
1772699639693818400,7.156818359375,0.08174187914133071,0.0007901183312293142,-0.004084015627333428
1772699639703775500,7.166775390625,0.09610708910226821,0.0003039924818323925,0.00463298500055971
1772699639713733000,7.176733154296875,0.0714162999600172,0.012201182061154395,-0.017724347663111983
1772699639723690200,7.186690185546875,0.07141746900379657,-0.003365544610074721,-0.000471967747414601
1772699639733647400,7.1966474609375,0.06288871011137961,-0.005339575496246107,-0.0007407753222563769
1772699639743604200,7.206604248046875,0.07530863122344017,0.002749120611627586,0.0030874429088580653
1772699639753561300,7.216561279296875,0.08174304818511009,-0.009441188429063186,-0.007200012772995978
1772699639763518200,7.226518310546875,0.0586982726842165,0.003792843811167404,-0.000450120670965407
1772699639773475300,7.236475341796875,0.07500818697214126,0.003717993043246679,-0.005351105533013469
1772699639783432200,7.24643212890625,0.06857435453236102,-0.0057537001219345255,-0.006324821390642318
1772699639793389300,7.256389404296875,0.07201660394072532,-0.005520603752112947,0.0058675660135253565
1772699639803346400,7.266346435546875,0.07815174569487571,0.002913238831888884,0.011730411327804904
1772699639813303300,7.27630322265625,0.09236731805205345,-0.007319168473524041,-0.005005178742995485
1772699639823260400,7.286260498046875,0.08638181390166282,-0.0013247092651203275,-0.007651195173175074
1772699639833217300,7.29621728515625,0.06917290494740008,0.011395843327906913,0.0035094157683954108
1772699639843174100,7.306174072265625,0.07650456300973892,-0.000575037108710967,0.012470895530760754
1772699639853131300,7.31613134765625,0.08219079195261002,0.0020634307692525907,-0.017205597044102613
1772699639863089400,7.32608935546875,0.0835375303864479,-0.008894998388923703,0.00011124753035255706
1772699639873046300,7.33604638671875,0.06602993074655532,0.012327740183426066,-0.002571876906667603
1772699639883003100,7.346003173828125,0.06228782160878181,0.0021396743432385845,-0.003577521130876266
1772699639892960300,7.355960205078125,0.0533083963394165,-0.009578825067775323,0.002439931364869699
1772699639902917400,7.36591748046875,0.060790276527404784,-0.0028369267592439425,-0.00522214995767863
1772699639912874200,7.375874267578125,0.07605331211090087,0.006858583490760065,-0.0008573771644500084
1772699639922831400,7.385831298828125,0.08054244022369385,0.00337711631685961,-0.007773832888866308
1772699639932788500,7.39578857421875,0.08144085036814212,0.00749772164451424,0.0004465593115222873
1772699639942745000,7.4057451171875,0.06677578067779541,-0.001622596233151853,-0.012594953451980835
1772699639952702200,7.4157021484375,0.08054244022369385,0.0059765125597594304,0.0019228190054534934
1772699639962659300,7.425659423828125,0.07530512409210205,-0.00028149295565672215,0.0024935013119218637
1772699639972616200,7.4356162109375,0.06602817718088627,-0.009934136744891292,-0.005040547454720945
1772699639982573300,7.4455732421875,0.07261223174631595,-0.0031662180791143324,0.0052112666624161644
1772699639992530400,7.455530517578125,0.07111644023060798,-0.00407888507777825,0.0049429870980704435
1772699640002487300,7.4654873046875,0.07156535304188728,-0.012171494742366484,-0.01960210368413245
1772699640012444200,7.475444091796875,0.06722586253285408,0.0041618460869183764,-0.002207098144062911
1772699640022402300,7.48540234375,0.06378536669015884,-0.004761387449223548,-0.007068737947233603
1772699640032359400,7.495359375,0.07141746900379657,-0.005724227432277984,-0.00044734133787860625
1772699640042316300,7.50531640625,0.07111819379627704,-0.011209526975569314,0.0014847295531100826
1772699640052273200,7.515273193359375,0.08772796781361103,-0.002745421684044413,0.01607035164469853
1772699640062230300,7.525230224609375,0.07620528780221938,0.01623181211699266,0.009314266693076933
1772699640072187100,7.535187255859375,0.08293897997140884,-0.00046554428567178546,0.013340111546765546
1772699640082144300,7.545144287109375,0.0678261665135622,-0.0014714607920497656,0.005340326698205899
1772699640092101400,7.555101318359375,0.07456044320464134,0.01120973703812342,-0.005698998805365408
1772699640102058500,7.56505859375,0.07530804670155047,-0.01156815398777835,-0.008571563704393338
1772699640112015400,7.575015380859375,0.0757563749909401,-0.008613811393943615,-0.012488521377352298
1772699640121972200,7.58497216796875,0.0712684159219265,-0.009025237172469495,-0.0124773321214132
1772699640131929300,7.594929443359375,0.07845102090239524,-0.01231415918264538,0.0027877698382944797
1772699640141886200,7.60488623046875,0.09072013536691666,0.004530857495823875,-0.0006929615458444459
1772699640151843300,7.61484326171875,0.07440905203521252,0.009406624005758204,0.012459360356593969
1772699640161800400,7.624800537109375,0.07740180411040783,0.0009045750237535685,0.010499238123121904
1772699640171757300,7.63475732421875,0.07994564337432385,-0.00026857410857919603,-0.00722019361956627
1772699640181715200,7.644715087890625,0.08114332872629165,-0.008237498027994297,-0.008526375709907733
1772699640191672300,7.65467236328125,0.06004501111805439,0.011750634415214881,0.0013053378443699329
1772699640201629400,7.66462939453125,0.06767711343169212,-0.008461908767861313,-0.007443334850954124
1772699640211586300,7.67458642578125,0.07022036817371845,-0.008526630867412314,-0.000694391455349978
1772699640221543400,7.68454345703125,0.0504676199555397,0.00047384175655897705,0.007223871426729601
1772699640231500300,7.694500244140625,0.06707739397287368,0.009643327971617691,0.004226753132848535
1772699640241457200,7.70445703125,0.07665420061349869,0.003993412451143376,0.005130000995084993
1772699640251414300,7.714414306640625,0.07261281626820563,-0.0009737404029816389,-0.013054252943245227
1772699640261371400,7.724371337890625,0.06348492243885993,-0.006484694977337494,-0.019190342262177727
1772699640271328300,7.734328369140625,0.07904723322987556,0.004774671622482128,-0.004634501675033243
1772699640281285400,7.744285400390625,0.08652969793975353,-0.00011316435115877539,-0.013335720782727002
1772699640291242200,7.7542421875,0.06932137350738048,-0.004540972464461811,-0.013960145424539222
1772699640301199000,7.76419921875,0.08069441591501235,-0.002479509890009649,-0.001357481877671671
1772699640311156200,7.77415625,0.07411036134958267,-0.0015791635168017819,0.004884905943504418
1772699640321113300,7.78411328125,0.06962181775867939,-0.004588912392570637,-0.0012691431529819966
1772699640331070200,7.7940703125,0.06842413240671158,-0.00325507453950122,-0.010568413777148816
1772699640341028000,7.804028076171875,0.0853325971096754,-0.015103342376602812,-0.003375109306152444
1772699640350985200,7.813985107421875,0.0783002142548561,0.00501116552578751,0.0038248720716248497
1772699640360942300,7.8239423828125,0.08967208761870861,0.006006546938419342,0.009483772332864463
1772699640370899200,7.833899169921875,0.0730628981232643,0.0030975961225805804,0.004524677204320323
1772699640380856300,7.843856201171875,0.08413608080148696,0.007526641778321936,0.005988766399023006
1772699640390813400,7.8538134765625,0.06662848116159438,0.010663802726310677,-0.003755183248477988
1772699640400770300,7.863770263671875,0.06962181775867939,0.0016187374753644688,-0.01132119805596303
1772699640410727200,7.87372705078125,0.0678261665135622,0.004727339049149304,0.002530490016931435
1772699640420684300,7.883684326171875,0.07979775933623313,0.0030970298669999465,0.01645556983631104
1772699640430641400,7.893641357421875,0.0799473969399929,-0.0029700150870019567,-0.006739003098546527
1772699640440598300,7.903598388671875,0.09431260690093039,-0.0050621285280445585,-0.020739928058045917
1772699640450555400,7.913555419921875,0.07276537648141383,-0.01602503749851603,0.006738330670044524
1772699640460512500,7.923512451171875,0.07396189278960227,-0.00381430215772707,-0.0063784135997586415
1772699640470469000,7.93346923828125,0.05450841977894306,0.0009685847372515126,-0.013734207164577673
1772699640480426200,7.94342626953125,0.09086977297067642,-0.0027071765994653102,0.008802749532452435
1772699640490383400,7.95338330078125,0.08503449094593525,0.003476722500124015,0.0029443497811385893
1772699640500341500,7.963341552734375,0.07665478513538837,-0.005828733552945778,0.0051021705607767216
1772699640510298400,7.97329833984375,0.07635609444975852,0.0018264254092937335,-0.014698695682024117
1772699640520255200,7.983255126953125,0.07201660394072532,0.0014633003184804693,-0.00727049161400937
1772699640530212400,7.99321240234375,0.06528349629342556,-0.018139700698084196,-0.012439630459528415
1772699640540169200,8.003169189453125,0.07545885334908962,-0.01867439666325226,-0.006377511700749164
1772699640550126300,8.013126220703125,0.07052022790312766,0.006681299828249029,0.005542360638661193
1772699640560083500,8.02308349609375,0.08159341058135032,0.0020402325567556545,0.004739008366523194
1772699640570040300,8.033040283203125,0.07022036817371845,-0.007841904572839849,0.010476688364596339
1772699640579997200,8.0429970703125,0.061093058866262435,-0.0023763874422525985,0.01938953407910885
1772699640589954300,8.052954345703125,0.07351297997832298,-0.011295469959662295,0.01974548964361893
1772699640599911200,8.0629111328125,0.08024667214751244,-0.01163930126153864,-0.0025581606210354946
1772699640609868300,8.072868408203124,0.07396189278960227,-0.007673822563514113,0.001830731120830751
1772699640619825400,8.082825439453124,0.0712684159219265,0.007274443415808491,-0.0030368178333184913
1772699640629782300,8.0927822265625,0.07620587232410907,0.018270336773851887,-0.0035665185337828004
1772699640639739400,8.102739501953126,0.06273907250761986,-0.012451572059071622,0.001262452546469285
1772699640649696300,8.1126962890625,0.06588204670846462,-0.0005586248300271108,-0.002510378239842248
1772699640659653000,8.122653076171876,0.07755377980172634,-0.003464831132930703,0.007219068529093055
1772699640669611300,8.132611328125,0.06259001942574978,-0.0037035261264769356,0.007374004504122422
1772699640679568400,8.142568359375,0.06752806034982205,-0.011591018840135074,-0.011189589299238287
1772699640689525200,8.152525146484376,0.07141922256946563,-0.008061547806044109,-0.021306585497478953
1772699640699482600,8.162482666015626,0.08398878128528595,-0.0040763597605517135,0.013172932578093604
1772699640709439500,8.172439453125,0.08623334534168244,-0.0028864101904677226,-0.0013292552927858196
1772699640719396600,8.182396728515625,0.07141863804757595,0.0035082592827035113,-0.003720321997650899
1772699640729353700,8.192353759765625,0.07022212173938751,-0.011647215139935723,-0.0028065493164671352
1772699640739310600,8.202310546875,0.08578501705229281,-0.018837099244561978,0.007681826631812145
1772699640749267500,8.212267333984375,0.07007306865751743,0.00015662903354968875,0.002240179571401677
1772699640759224600,8.222224609375,0.06618307548165321,0.010665428427816369,-0.03159844963885844
1772699640769181400,8.232181396484375,0.0693254651606083,0.0032103997141355646,0.0011822155006666435
1772699640779138600,8.242138671875,0.05885141741931438,-0.0007206972236745059,-0.001967618840871728
1772699640789095700,8.252095703125,0.07740706480741501,0.014205311258067376,-0.0055661622101790265
1772699640799052500,8.262052490234375,0.07082184119820595,0.0050338751145172864,0.011067547521879896
1772699640809009700,8.272009765625,0.07964929077625274,-0.0033301171036669982,0.006722392173751723
1772699640818967600,8.281967529296875,0.08458733170032501,0.007428958124085329,-0.008475071356000261
1772699640828924700,8.291924560546875,0.07500994053781032,-0.0014707849386148154,-0.0014266803645848994
1772699640838881500,8.301881591796874,0.079050155839324,-0.015924367302749307,-0.0035909605677617944
1772699640848838700,8.311838623046874,0.06199146901071071,-0.005156136087584309,0.009399762723420281
1772699640858795500,8.32179541015625,0.06947334919869899,0.0018859735768055543,-0.004415450384406722
1772699640868752400,8.33175244140625,0.07560849095284938,0.009223289628373458,0.002977551081130514
1772699640878709500,8.34170947265625,0.0660310997903347,0.009923720382153988,0.005538428815637598
1772699640888666600,8.35166650390625,0.0651332741677761,-0.0043768268447369335,0.0014134772480727405
1772699640898623700,8.361623779296876,0.07485913389027118,0.0014714425257407128,0.01128201910633361
1772699640908580600,8.37158056640625,0.0678261665135622,0.00788069308011327,0.011610789836395997
1772699640918537700,8.381537841796876,0.08234101407825946,-0.004424337514583022,-0.0015336364539543863
1772699640928494600,8.39149462890625,0.07321312024891376,0.00021617720106150952,0.00802345912673627
1772699640938451500,8.401451416015625,0.07680442273914813,0.006490179436630569,-0.0028215271190681957
1772699640948408600,8.41140869140625,0.07336217333078383,-0.0032323375513078644,0.012356710549583658
1772699640958365700,8.42136572265625,0.06124094290435314,0.00010376633515115827,-0.0014406426745670613
1772699640968322600,8.431322509765625,0.07021978365182877,-0.009156905294698663,0.00787810896820447
1772699640978279700,8.44127978515625,0.07485971841216087,-0.015290836905874312,0.003062236544009647
1772699640988237600,8.451237548828125,0.06812661076486111,-0.0005555195574881509,-0.004588456305666477
1772699640998194700,8.461194580078125,0.07590776616036891,-0.0050538904226617885,-0.00658491422359948
1772699641008151600,8.471151611328125,0.08937456597685814,0.003334405119717121,0.004519178474473301
1772699641018108700,8.481108642578125,0.07291442956328392,0.00732501825899817,-0.004469096821628045
1772699641028065800,8.491065673828125,0.07186696633696556,0.00406946879546158,0.0018147749290510545
1772699641038022400,8.5010224609375,0.07456102772653102,-0.02145343748910818,-0.0066908576744608575
1772699641047979500,8.5109794921875,0.0815945796251297,-0.0018975772496312856,-0.0016907535404490771
1772699641057936600,8.5209365234375,0.0824918207257986,-0.009441243227990344,0.0042032409681647545
1772699641067893500,8.5308935546875,0.07306465168893336,-0.0025128824366489424,0.0032406201808189506
1772699641077850600,8.5408505859375,0.06782792007923126,0.002205131661728956,0.004904311613584286
1772699641087807700,8.550807861328124,0.06797697316110134,-0.01032103087035939,0.0011204514015378663
1772699641097764600,8.5607646484375,0.07261573887765407,-0.008119721433799713,-0.0003731669942149892
1772699641107721500,8.570721435546876,0.06079436818063259,-0.013859539160854183,0.011815790339605881
1772699641117678600,8.5806787109375,0.06977262440621852,-0.009747071473882533,-0.006127443646528991
1772699641127635500,8.590635498046876,0.07530863122344017,-0.0025024295412935317,0.00342702044401376
1772699641137592600,8.600592529296875,0.06767711343169212,0.003744392426405102,-0.0025289088395540602
1772699641147549700,8.6105498046875,0.07126783140003681,0.005204738169396296,-0.000132368521016906
1772699641157507600,8.620507568359375,0.06468377683460712,-0.002795393739035353,-0.009360649989161174
1772699641167464400,8.63046435546875,0.08308920209705829,-0.004266754066385329,-0.012451302631013095
1772699641177421600,8.640421630859375,0.08024550310373306,0.005287543914909474,-0.004796749311083113
1772699641187378700,8.650378662109375,0.06887246069610119,-0.010199244821327738,-0.007341576668154448
1772699641197335600,8.66033544921875,0.0697697017967701,-0.0007154821924399584,0.002451394615444587
1772699641207292700,8.670292724609375,0.07036883673369884,-0.004655694018467329,0.004336867010395508
1772699641217249500,8.68024951171875,0.07291326051950454,-0.0076703610979486254,-0.0006816478506749263
1772699641227206700,8.69020654296875,0.06692775636911392,0.0036574036961188536,-0.011200061602547065
1772699641237163500,8.70016357421875,0.08263912024199963,0.011097983759338967,-0.010404195092187728
1772699641247120600,8.71012060546875,0.07007014604806899,0.005920352792576886,-0.007115963206000742
1772699641257077800,8.720077880859375,0.08249123620390891,0.0028788068393245337,0.0008059141219826415
1772699641267034600,8.73003466796875,0.09296586846709251,-0.008643238417827524,-0.002069605352534563
1772699641276991500,8.739991455078124,0.07366203306019306,-0.011086918942630291,-0.00865260960519372
1772699641286948600,8.749948486328124,0.07815174569487571,-0.00801824752043467,-0.0038645915898378007
1772699641296905500,8.759905517578124,0.08189327031075953,0.0009002733079716563,-0.016144255989481462
1772699641306862600,8.769862548828126,0.08099427564442158,-0.001677468225546181,0.008266395328915677
1772699641316819700,8.77981982421875,0.0847352157384157,0.0011586319832131266,0.011723334274691296
1772699641326777600,8.789777587890624,0.07381225518584252,0.005237818455090746,-0.023568872440233826
1772699641336734500,8.799734375,0.0751589936196804,0.00901540989819914,-0.015009206952899694
1772699641346691600,8.809691650390626,0.06064473057687282,0.0005696759470039979,0.01654515009919414
1772699641356648700,8.819648681640626,0.06558394054472447,-0.00022937004277482628,0.018085630139999555
1772699641366605600,8.82960546875,0.07127016948759556,-0.0024409679779084396,-0.015569117274426388
1772699641376562700,8.839562744140625,0.06348842957019805,-0.004479520034231245,-0.005306479227531235
1772699641386519600,8.84951953125,0.07546002239286899,-0.0011078196780057623,-0.008870477581486921
1772699641396476400,8.859476318359375,0.07695581390857696,-0.00919584906559903,0.009503454851690912
1772699641406433500,8.86943359375,0.0806967540025711,-0.009014523982210084,0.011087453232170082
1772699641416390700,8.879390625,0.07156944469511509,0.003719312784075737,0.0013633122551924316
1772699641426347500,8.889347412109375,0.07665712322294711,-0.004052211699984036,0.004984791258804034
1772699641436304600,8.8993046875,0.0672293696641922,-0.0023685146630508824,0.007301946198198129
1772699641446261800,8.90926171875,0.07082067215442657,0.007825455761537887,0.016103003813774556
1772699641456218400,8.91921826171875,0.0824918207257986,0.010697408168390392,-0.006575944324210286
1772699641466175500,8.929175537109375,0.08234159860014915,0.0019101307705277576,0.012028754953562747
1772699641476132600,8.939132568359375,0.07366378662586212,0.0007955616913270204,0.007487322406441671
1772699641486090800,8.9490908203125,0.0771066205561161,-0.007099721603142097,0.01311076319523272
1772699641496047600,8.959047607421875,0.07276713004708289,0.005864279790362342,-0.000671918186993571
1772699641506004500,8.96900439453125,0.08354103751778602,0.006416068454226479,0.0029500032037904017
1772699641515961600,8.978961669921874,0.0723182172358036,-0.006017885749763809,-0.004982123236038023
1772699641525918500,8.98891845703125,0.06827800193428993,0.0036410051171667872,-0.0001807103079248918
1772699641535875600,8.99887548828125,0.08563537944853306,0.00439894734499976,0.012904235171928303
1772699641545832700,9.008832763671874,0.0775555333673954,0.012844142440077849,0.0009375987980543868
1772699641555789800,9.018789794921876,0.06678162589669227,-0.007036300978111103,-0.013795408433058765
1772699641565746400,9.028746337890626,0.06827800193428993,0.009192077072779647,-0.00246707224601123
1772699641575703600,9.03870361328125,0.07157061373889446,-0.001838965230458416,0.0028399663872347445
1772699641585660700,9.04866064453125,0.08159574866890906,-0.01468628144173417,-0.007099315177765675
1772699641595617500,9.058617431640625,0.07905132488310336,-0.01252332212103065,-0.01847740821985062
1772699641605574700,9.06857470703125,0.07531038478910923,0.004849380826507695,0.009389696845487924
1772699641615531800,9.07853173828125,0.07246727031767368,-0.006168569099716842,-0.0033652352244651408
1772699641625488600,9.088488525390625,0.0763572634935379,-0.002768560531036928,0.005506365735028521
1772699641635445500,9.098445556640625,0.07845160542428493,0.006250945586967282,0.010918318626785184
1772699641645402600,9.108402587890625,0.09356441888213157,-0.00007055361871607601,-0.004559066385222832
1772699641655360800,9.11836083984375,0.0751589936196804,-0.005576726986677385,0.008075099124072584
1772699641665317600,9.128317626953125,0.05944704522490501,-0.0035692870212486014,-0.0011226239506708226
1772699641675274500,9.1382744140625,0.06468436135649681,-0.004162672637403011,0.012930772694048936
1772699641685231600,9.148231689453125,0.0799473969399929,-0.010870910704927518,0.023022750898753292
1772699641695188000,9.15818798828125,0.07276537648141383,0.005609802705794573,0.0055840460683859415
1772699641705145000,9.16814501953125,0.06992109296619892,-0.003381016173842363,-0.003210613772444776
1772699641715102000,9.17810205078125,0.07231529462635516,0.013184000819735229,0.016327551550959468
1772699641725059000,9.18805908203125,0.08249123620390891,0.002214191751019098,0.014140870003018061
1772699641735016200,9.19801611328125,0.0899731163918972,0.0069117110506398596,-0.00048785429889103396
1772699641744973000,9.20797314453125,0.08054594735503197,-0.0019997726822039113,-0.0007281595817446941
1772699641754930000,9.217929931640626,0.08069558495879173,0.008834952464490196,0.0041015130389394465
1772699641764887000,9.227886962890626,0.08054653187692165,-0.009643163574836217,-0.016092225549789143
1772699641774844000,9.237843994140626,0.08009703454375267,0.007963809352880344,0.0025237605945119864
1772699641784801000,9.247801025390626,0.06752689130604267,0.0009674704923992976,0.005704288043480482
1772699641794758100,9.257758056640625,0.0860819541722536,0.001625806536967866,0.0016259532382624457
1772699641804715300,9.26771533203125,0.07575695951282978,0.00590248834232334,0.005829454501331202
1772699641814672000,9.277671875,0.07306406716704368,0.002997702244948596,-0.00495943990512751
1772699641824630000,9.287630126953125,0.07979775933623313,0.009564709777454845,-0.0032510776427516247
1772699641834587100,9.297587158203125,0.07934826200306415,-0.00625913802657742,0.006441262831809581
1772699641844544000,9.3075439453125,0.07500877149403094,-0.00486047304267995,0.011479085181548726
1772699641854501000,9.317501220703125,0.05899813241362571,0.002254153868649155,0.01716059913339559
1772699641864458000,9.3274580078125,0.06184124688506126,-0.01144638620505575,-0.00016158434070239307
1772699641874415000,9.3374150390625,0.06932312707304954,0.00701776524099987,-0.003964389569347258
1772699641884372000,9.3473720703125,0.07171732873320578,0.005605089998058975,0.0038847581658541454
1772699641894329000,9.3573291015625,0.07530921574532985,0.011458213640167378,0.0035193971646483987
1772699641904286200,9.3672861328125,0.07186696633696556,0.006687811767426319,0.005209065572175314
1772699641914243000,9.3772431640625,0.06438567067086697,0.004608151382580399,-0.0025502107808424625
1772699641924200000,9.387199951171874,0.07351414902210235,-0.0009221426464850082,-0.0001609438782412326
1772699641934157000,9.397156982421874,0.07605798828601837,-0.004687692025350407,-0.01140204702311894
1772699641944114000,9.407114013671874,0.07545885334908962,0.00019309315299615261,-0.010180203335784607
1772699641954071000,9.417071044921874,0.07725392007231711,0.006494198024622164,0.006196978918515378
1772699641964028200,9.427028076171876,0.07067045002877712,0.0068920610686764115,0.007905101435584948
1772699641973985000,9.436985107421876,0.062141691136360165,0.007397129080560989,0.01293989443213213
1772699641983942100,9.446942138671876,0.0693248806387186,-0.006551033645239658,0.005262511650819215
1772699641993899000,9.45689892578125,0.062440966343879696,-0.010466248027328401,0.0068347904815746
1772699642003857200,9.466857177734376,0.06722995418608188,-0.001572825107560493,-0.0117552546497609
1772699642013814000,9.47681396484375,0.09237024066150187,0.00521335530069191,0.007854997520675533
1772699642023771100,9.486771240234376,0.07605974185168743,0.007775744001450948,0.015757388121832628
1772699642033728000,9.49672802734375,0.061544894286990164,0.0064679402053589,0.011982975016499402
1772699642043684900,9.506684814453125,0.07994915050566195,0.013235717307240701,-0.009088599573640384
1772699642053642000,9.51664208984375,0.07710545151233672,0.005565977263799868,0.007563920460987719
1772699642063599000,9.52659912109375,0.06348842957019805,-0.006362671466288157,-0.0025063174110109684
1772699642073556000,9.536555908203125,0.07740531124174595,-0.0017225677425973117,0.0020564387686405096
1772699642083513000,9.54651318359375,0.07501169410347938,0.0007615726567571982,0.0100756960734725
1772699642093470200,9.55647021484375,0.08952654166817664,0.006012246026843786,0.0032282282025931633
1772699642103426800,9.5664267578125,0.08264262737333775,0.001768850003159605,0.0024022239947633353
1772699642113384000,9.576384033203125,0.06064589962065219,-0.01213487079271581,0.002301173060617293
1772699642123341000,9.586341064453125,0.06229191326200962,-0.005710746896197088,-0.004367574959201738
1772699642133298200,9.596298095703125,0.08578501705229281,0.003840422979672439,-0.004655557591971592
1772699642143255000,9.606255126953124,0.08638239842355251,0.0005825354285771026,-0.005810683014668757
1772699642153212200,9.616212158203124,0.07770283288359642,0.005102492504473775,-0.006163352926837978
1772699642163169000,9.6261689453125,0.07201718846261501,-0.004453842170280404,-0.015764577056089184
1772699642173127000,9.636126953125,0.09386427861154079,0.0048816847940674046,-0.0028340064330841415
1772699642183084000,9.646083984375,0.07725450459420681,0.008225981120136566,-0.005342732713601435
1772699642193041200,9.656041259765624,0.07411269943714141,0.013037358890660107,0.0068842773377313276
1772699642202998300,9.665998291015624,0.08084639160633086,0.017260853770631364,-0.012762261426460463
1772699642212955000,9.675954833984376,0.07516016266345978,-0.004787732033454813,-0.010744733891857322
1772699642222912000,9.685912109375,0.06737900726795196,-0.006947266421210952,0.008863998749994788
1772699642232869000,9.695869140625,0.07471183437407017,0.004086584327043966,0.0074612757913768285
1772699642242826000,9.705825927734375,0.07426292156279087,0.004409185611223802,0.007599703589599812
1772699642252783000,9.715783203125,0.07830313686430454,-0.0029539316018810493,0.008880514918311383
1772699642262740200,9.725740234375,0.062441550865769385,0.005807887127739377,-0.0006813082114909776
1772699642272697000,9.735697021484375,0.07665712322294711,0.00017206406469922513,0.011093611261609475
1772699642282654000,9.745654052734375,0.07934943104684353,-0.0005008530610706657,-0.00020093624944565817
1772699642292611000,9.755611083984375,0.08548457280099392,-0.010269136286340652,-0.0010639976609440054
1772699642302568000,9.76556787109375,0.07949965317249298,-0.0065665326084708795,0.01220409325415967
1772699642312525000,9.775525146484375,0.08458674717843533,0.007094766866811551,-0.01199064686630154
1772699642322482200,9.785482177734375,0.07351356450021267,0.00407646935840603,0.01330056727095507
1772699642332439000,9.79543896484375,0.08578443253040313,0.009147968502994626,0.005986786216957261
1772699642342397000,9.80539697265625,0.083990534850955,-0.0007695185011951252,0.009190711666177957
1772699642352354000,9.81535400390625,0.06363982073962689,-0.0014377594518475234,-0.014434004305762936
1772699642362311200,9.825311279296875,0.07396481539905071,0.0006122866794466972,-0.014783339474885724
1772699642372268000,9.83526806640625,0.07067278811633586,-0.012300623847637325,-0.004224053714863839
1772699642382225200,9.84522509765625,0.07202011107206344,0.004570755681372247,-0.01036571254559094
1772699642392182000,9.85518212890625,0.07770575549304484,-0.007246432030876167,-0.0007415430780587485
1772699642402139000,9.865138916015624,0.07306698977649212,0.01081715752396267,0.015014230187889187
1772699642412096000,9.875095947265624,0.0691764120787382,0.006017072899010964,0.0028810986902884903
1772699642422053000,9.88505322265625,0.05002279879748821,-0.00441990793463774,-0.0005237955452408641
1772699642432010000,9.895010009765626,0.07246843936145306,-0.013162821034388615,-0.0032190311159851263
1772699642441967000,9.904967041015626,0.07785480857491493,-0.007900918450811877,-0.003992088714559213
1772699642451924000,9.914924072265626,0.07575988212227822,-0.0059953633907018225,-0.007317152900484507
1772699642461881000,9.924881103515625,0.06199263805449009,-0.0033471778363222252,-0.016543000382947502
1772699642471838000,9.934837890625,0.08249298976957797,0.005640179577749222,-0.0018453384598513364
1772699642481795000,9.944795166015625,0.07815349926054477,-0.002300253466120921,0.001917065118101891
1772699642491752200,9.954752197265625,0.07531038478910923,0.006950307761668227,-0.013681126412114827
1772699642501709000,9.964708984375,0.0775555333673954,0.005814951622765511,0.015255245002685113
1772699642511666200,9.974666259765625,0.08818038775622844,-0.002392370462673716,0.008144117802006075
1772699642521623000,9.984623046875,0.08728256213366985,0.0010892611080082133,0.00009118198985815979
1772699642531581200,9.994581298828125,0.08219488360583782,0.003420206539914943,-0.013917075751081575
1772699642541538000,10.0045380859375,0.07022387530505657,-0.0004359985307790339,-0.002004209112015087
1772699642551495200,10.0144951171875,0.08384148176908493,0.009377443577046505,-0.014180127726105274
1772699642561452000,10.0244521484375,0.07351765615344047,0.013344684973894618,0.008546570256209815
1772699642571409000,10.034408935546875,0.06364098978340625,-0.00663053775539156,0.00044664835977891923
1772699642581366000,10.044365966796875,0.06648351973295212,-0.013338077136594802,-0.010529383241280447
1772699642591323100,10.0543232421875,0.06887830591499805,0.00872667435100302,-0.0013724910754914163
1772699642601280000,10.064280029296874,0.08414075697660446,0.009457459143851883,0.0143470669494709
1772699642611237000,10.074237060546874,0.07531213835477829,-0.002361249238625169,0.015584690444538135
1772699642621194200,10.0841943359375,0.07366670923531055,-0.0005990481719607487,0.002990935148266726
1772699642631150800,10.09415087890625,0.06768178960680961,-0.017060878785699604,-0.008340679270433611
1772699642641108000,10.10410791015625,0.06573591623604297,0.002590409218845889,0.0031736924244498365
1772699642651065000,10.114065185546876,0.07710895864367484,0.011627953317039646,0.005419035082269693
1772699642661022000,10.12402197265625,0.07097381688952445,0.007153511316725053,-0.005958455171616515
1772699642670979000,10.13397900390625,0.07067454168200492,0.005814070273353718,0.006892408699370571
1772699642680936200,10.143936279296875,0.07306932786405086,0.004134907847642899,-0.00927185232345655
1772699642690893000,10.15389306640625,0.06962766297757625,-0.00006595507541205734,0.0017582852266612463
1772699642700851500,10.1638515625,0.07561316712796688,-0.004667019130080006,0.0019829140205925794
1772699642710808600,10.17380859375,0.08399345746040343,0.005080413103406317,0.0007644593044096837
1772699642720765700,10.183765625,0.06499006630480289,0.011385253435233608,-0.0066018094178289174
1772699642730722600,10.19372265625,0.07067629524767398,0.003842203944805078,-0.012433780674054287
1772699642740679400,10.203679443359375,0.07022796695828437,0.01066698563066311,-0.008815150643832748
1772699642750636500,10.213636474609375,0.08399462650418281,-0.01044456591848284,0.0067216740794770885
1772699642760593700,10.22359375,0.08623977508246898,-0.0004042242861818522,0.00388747128357063
1772699642770550500,10.233550537109375,0.07621405563056469,0.0002362655744422227,0.0005057929560251068
1772699642780507600,10.243507568359375,0.08384615794420242,-0.014199890730855985,0.010442373961396514
1772699642790464500,10.253464599609375,0.07845920420885086,0.0004084301038412377,0.01382664153825026
1772699642800421400,10.26342138671875,0.0790583391457796,-0.013358366439375094,0.009967029800917952
1772699642810378500,10.27337841796875,0.06289747793972492,-0.0005480760365491733,-0.006779126188025111
1772699642820335600,10.283335693359374,0.07067921785712242,0.010529755417327397,-0.002139204556602635
1772699642830292500,10.29329248046875,0.07187631868720054,0.018762586403358726,0.0005663885821966687
1772699642840249600,10.30324951171875,0.059905310386419296,0.004022446749382652,-0.02147456475881627
1772699642850206700,10.313206787109374,0.06738719057440758,-0.0045439407396828755,-0.011148633951053488
1772699642860163300,10.323163330078126,0.07262450670599938,-0.01808128047515638,-0.002202229601878207
1772699642870120400,10.333120361328126,0.06963233915269375,0.007191276910691521,0.006230185926728881
1772699642880078600,10.34307861328125,0.08445406070947646,0.00913188501787372,-0.005173360075376695
1772699642890035700,10.35303564453125,-0.0003822773158550262,0.025226645018043926,-0.04908495169179514
1772699642899992600,10.36299267578125,0.11020166542828082,-0.00791075485823676,0.013565520083764568
1772699642909949400,10.372949462890626,0.06396189230084419,0.020596569498023017,0.012190118386090035
1772699642919906600,10.382906494140625,0.0859556974440813,-0.007304692423599771,0.00471216945030319
1772699642929863400,10.392863525390625,0.09103986884057522,-0.0013933449213858692,-0.007192544135882053
1772699642939820500,10.402820556640625,0.07547346639633178,-0.015118051321967503,0.0140716041590902
1772699642949777700,10.412777587890625,0.10375380446314811,-0.01940009428902995,0.01164283807562897
1772699642959734500,10.422734619140625,0.030281156495213506,0.010141445652907713,-0.004368056162280845
