time,seconds_elapsed,z,y,x
1772699632644211500,0.10721142578125,0.0017857621423900127,0.0010048137046396732,0.00003203097730875015
1772699632654168600,0.11716845703125,0.00014259200543165207,-0.0010101338848471642,0.00011671939864754677
1772699632664125700,0.127125732421875,-0.00028218235820531845,0.002495118882507086,-0.0016305805183947086
1772699632674082600,0.13708251953125,0.002035983372479677,-0.0013131196610629559,0.004248939920216799
1772699632684039200,0.1470390625,-0.000737376045435667,0.000196854118257761,-0.00016729207709431648
1772699632693996300,0.156996337890625,-0.00022604921832680702,-0.0012764069251716137,-0.00022721290588378906
1772699632703953200,0.166953125,-0.0008426100248470902,0.00043203867971897125,-0.0005654138512909412
1772699632713910000,0.176909912109375,0.000904423650354147,0.0000354936346411705,0.00032727746292948723
1772699632723867100,0.1868671875,-0.001996780978515744,-0.0018029171042144299,0.0011533969081938267
1772699632733824300,0.19682421875,0.000895944656804204,-0.002011176198720932,0.0039033768698573112
1772699632743781000,0.206781005859375,0.0007547365967184305,0.00034549692645668983,0.002285391092300415
1772699632753738200,0.21673828125,0.0009635286405682564,0.0016571036539971828,-0.0019548938143998384
1772699632763696000,0.226696044921875,0.0008836900815367699,-0.0022955983877182007,-0.0015683809760957956
1772699632773653200,0.2366533203125,0.0008160457946360111,0.0003108372911810875,-0.0003427942283451557
1772699632783610000,0.246610107421875,0.002070377115160227,-0.0006718570366501808,-0.0008238707669079304
1772699632793567200,0.256567138671875,-0.0005592282395809889,0.00100247235968709,-0.0002611447125673294
1772699632803524400,0.2665244140625,-0.0007131287129595876,-0.00033871689811348915,-0.0014433963224291801
1772699632813481200,0.276481201171875,-0.0015451002400368452,0.0015947381034493446,-0.0007120920345187187
1772699632823438000,0.28643798828125,0.0006141648627817631,-0.002415964612737298,-0.0010582015383988619
1772699632833395200,0.296395263671875,0.0006711564492434263,0.001466125249862671,-0.0005066609010100365
1772699632843352000,0.30635205078125,-0.002552067395299673,0.0015537431463599205,-0.0017972285859286785
1772699632853309200,0.31630908203125,-0.0004886500537395477,0.0021303179673850536,0.0005849688313901424
1772699632863266300,0.326266357421875,0.0006322443950921297,-0.00017409399151802063,-0.00015291757881641388
1772699632873223200,0.33622314453125,0.000129705760627985,-0.0012878281995654106,-0.0011654512491077185
1772699632883181000,0.34618115234375,-0.000437010545283556,0.00006532110273838043,-0.0007829943206161261
1772699632893138200,0.35613818359375,0.0000724520068615675,-0.0017256545834243298,-0.0002330513671040535
1772699632903095300,0.36609521484375,0.0001925821416079998,0.0002863481640815735,-0.001325343968346715
1772699632913052200,0.37605224609375,-0.002023700624704361,0.0013564066030085087,0.0011585862375795841
1772699632923009300,0.38600927734375,-0.0017954460345208645,0.0010434696450829506,-0.001997655024752021
1772699632932966100,0.395966064453125,0.001943365903571248,-0.001214891206473112,0.00034379633143544197
1772699632942923000,0.405923095703125,-0.0011642554309219122,0.0014096391387283802,-0.0008100143168121576
1772699632952880000,0.415880126953125,0.0008972976356744766,-0.0003333995118737221,-0.0013487718533724546
1772699632962837200,0.425837158203125,-0.0026149179320782423,0.0037910654209554195,-0.0007354263216257095
1772699632972794000,0.435794189453125,0.0008168313652276993,0.0026648142375051975,-0.001126378308981657
1772699632982751200,0.445751220703125,-0.0006002320442348719,0.0007001976482570171,-0.001966311829164624
1772699632992708000,0.4557080078125,-0.0006886491319164634,0.0012631895951926708,0.0007764776237308979
1772699633002665200,0.465665283203125,-0.00029825116507709026,-0.0015163365751504898,-0.0006007794290781021
1772699633012623000,0.475623046875,0.001112691592425108,-0.0012122034095227718,0.0010935235768556595
1772699633022580200,0.485580322265625,0.004099946469068527,0.002185199875384569,0.0010803923942148685
1772699633032537300,0.495537353515625,0.0008495582733303308,0.0006357729434967041,-0.0009012657683342695
1772699633042494000,0.505493896484375,-0.0025440435856580734,0.002765191253274679,-0.00017780717462301254
1772699633052451000,0.515451171875,-0.00023375148884952068,0.0008631614036858082,-0.000303508248180151
1772699633062408200,0.525408203125,-0.000202918890863657,0.001773738767951727,-0.0010109608992934227
1772699633072365300,0.535365234375,0.002243194729089737,-0.002279858337715268,-0.000050092581659555435
1772699633082322200,0.545322265625,-0.0014779886696487665,-0.0008170208893716335,-0.0007256744429469109
1772699633092279300,0.555279296875,0.0011047450825572014,0.00019471393898129463,0.0015912759117782116
1772699633102236200,0.565236083984375,-0.002028726041316986,-0.0005661537870764732,-0.0003935503773391247
1772699633112193000,0.575193115234375,-0.0016513559967279434,0.0022607920691370964,-0.0016500300262123346
1772699633122150100,0.585150146484375,0.0013363971374928951,-9.979121387004852e-7,0.0027207150124013424
1772699633132107300,0.595107177734375,0.00006100931204855442,0.0007809060625731945,0.00042933132499456406
1772699633142065400,0.6050654296875,-0.0007320372387766838,-0.0007701492868363857,0.0006636967882514
1772699633152022000,0.61502197265625,-0.002133925212547183,-0.00022233696654438972,-0.000016474630683660507
1772699633161979100,0.624979248046875,0.0015968848019838333,-0.00119438162073493,-0.0011417425703257322
1772699633171936300,0.634936279296875,0.0020456272177398205,-0.00033844122663140297,-0.0017990106716752052
1772699633181893000,0.64489306640625,-0.002520672045648098,-0.0010939501225948334,-0.002196627203375101
1772699633191850200,0.654850341796875,0.0011054880451411009,0.0003335042856633663,-0.00022269226610660553
1772699633201807400,0.664807373046875,-0.0012742524268105626,0.0011654333211481571,-0.0001860903576016426
1772699633211764200,0.67476416015625,-0.000042007770389318466,-0.0009802752174437046,0.0012839743867516518
1772699633221721000,0.68472119140625,0.0005646173376590014,0.0020096851512789726,-0.002382673555985093
1772699633231678200,0.69467822265625,0.0017976607196033,-0.00031259097158908844,0.00018141791224479675
1772699633241635000,0.704635009765625,0.00003282260149717331,-0.0003248685970902443,0.0010261530987918377
1772699633251592200,0.71459228515625,-0.0006404244340956211,-0.001750192604959011,0.0006490494124591351
1772699633261550000,0.724550048828125,-0.0008534993976354599,-0.001167078036814928,0.0006477800197899342
1772699633271507200,0.734507080078125,0.0006740896496921778,0.00004359474405646324,-0.0005072331987321377
1772699633281464000,0.744464111328125,-0.00022767065092921257,0.0017639514990150928,0.002600101288408041
1772699633291421200,0.754421142578125,0.0017404055688530207,-0.001165791880339384,-0.0005898331291973591
1772699633301378300,0.76437841796875,-0.0020117093808948994,0.00027484307065606117,0.00002403557300567627
1772699633311335200,0.774335205078125,0.0014341548085212708,0.0011496911756694317,-0.0015102114994078875
1772699633321292300,0.784292236328125,-0.00010330136865377426,0.00033610453829169273,-0.002322025131434202
1772699633331249200,0.794249267578125,-0.0011382057564333081,0.000536374282091856,-0.0038434891030192375
1772699633341206000,0.8042060546875,0.001760395709425211,0.0002480875700712204,-0.00013217050582170486
1772699633351163100,0.8141630859375,-0.001601845258846879,-0.0013306345790624619,0.0006625168025493622
1772699633361120300,0.824120361328125,0.0031260428950190544,-0.0014507281593978405,-0.00040741218253970146
1772699633371077000,0.8340771484375,-0.0008085110457614064,-0.0005732164718210697,-0.0011381837539374828
1772699633381035000,0.844034912109375,0.000397462397813797,-0.0018662549555301666,0.0021780836395919323
1772699633390992100,0.8539921875,-0.000926661305129528,0.0006091534160077572,-0.000140464399009943
1772699633400949200,0.86394921875,-0.00026614521630108356,0.0005030143074691296,0.000005342997610569
1772699633410906000,0.873906005859375,0.002363193780183792,-0.00037183426320552826,-0.001101733185350895
1772699633420863200,0.88386328125,-0.0005308929830789566,-0.0010040346533060074,-0.0017016620840877295
1772699633430820400,0.8938203125,-0.000433953944593668,0.0017091939225792885,-0.0023975460790097713
1772699633440777000,0.90377685546875,-0.000390445115044713,0.000014722812920808792,0.00006260396912693977
1772699633450734000,0.913734130859375,0.000136061804369092,-0.00015598582103848457,0.0012229434214532375
1772699633460691200,0.923691162109375,-0.0001976389903575182,0.000872412696480751,0.0006524533964693546
1772699633470648300,0.9336484375,0.0001275329850614071,-0.00029724789783358574,-0.0010533011518418789
1772699633480605200,0.943605224609375,-0.0008985309395939112,-0.0011707865633070469,-0.0018080701120197773
1772699633490562300,0.953562255859375,-0.000870833988301456,-0.00023282133042812347,-0.0006109792739152908
1772699633500519200,0.963519287109375,0.0017123729921877384,-0.000040343496948480606,-0.0007515046745538712
1772699633510477000,0.97347705078125,0.0007054319139569998,0.0012446315959095955,-2.2677704691886902e-7
1772699633520434200,0.98343408203125,-0.0003305028658360243,0.0012616561725735664,0.0005909749306738377
1772699633530391300,0.993391357421875,-0.0013566187117248774,0.0009961389005184174,-0.0016878920141607523
1772699633540348400,1.003348388671875,-0.00205405754968524,-0.001916203647851944,0.000021943822503089905
1772699633550305000,1.013304931640625,-0.0008156877011060715,0.0018148855306208134,-0.0022345525212585926
1772699633560262100,1.02326220703125,-0.0005476656369864941,0.0007278867997229099,0.00009192340075969696
1772699633570219300,1.03321923828125,-0.0002571146469563246,0.0015207096002995968,-0.000005548354238271713
1772699633580176100,1.043176025390625,0.0013540082145482302,0.001540263183414936,-0.0010877654422074556
1772699633590133200,1.05313330078125,-0.0006827772594988346,-0.002410802524536848,-0.0007873608265072107
1772699633600090400,1.06309033203125,0.0010829411912709475,-0.0007418706081807613,0.0019852914847433567
1772699633610047000,1.073046875,0.00005203159525990486,0.0013372590765357018,-0.000017671845853328705
1772699633620004000,1.083004150390625,-0.0009624644881114364,0.0011464194394648075,-0.0020113985519856215
1772699633629962200,1.092962158203125,0.002780874725431204,0.0007956810295581818,0.00011513521894812584
1772699633639919400,1.10291943359375,0.00022807717323303223,-0.00009030802175402641,0.0005493871867656708
1772699633649876200,1.112876220703125,-0.00046381191350519657,0.0024029440246522427,-0.0018583766650408506
1772699633659833000,1.1228330078125,0.0030028168112039566,0.0006472328677773476,-0.0009211292490363121
1772699633669790200,1.132790283203125,0.00039584841579198837,0.0035056034103035927,0.0007998053915798664
1772699633679747000,1.1427470703125,0.0002715406008064747,-0.0020962124690413475,0.00040443241596221924
1772699633689704400,1.152704345703125,-0.0014432687312364578,0.0013480540364980698,-0.0008014470804482698
1772699633699661600,1.16266162109375,0.0012827313039451838,0.0013208608143031597,-0.00007502688094973564
1772699633709618700,1.17261865234375,0.00010082055814564228,-0.0012671989388763905,-0.0012936894781887531
1772699633719575300,1.1825751953125,-0.00188683089800179,-0.0007841214537620544,-0.0017716207075864077
1772699633729532400,1.192532470703125,-0.0006833485094830394,0.0006483928300440311,0.0015797009691596031
1772699633739489500,1.202489501953125,-0.0021206578239798546,-0.0024317093193531036,0.0023516183719038963
1772699633749446400,1.2124462890625,0.0005054851062595844,-0.0004164953716099262,-0.005213889293372631
1772699633759404500,1.222404541015625,-0.0010595276253297925,-0.0005025719292461872,0.0023961844854056835
1772699633769361400,1.232361328125,0.0031823553144931793,0.0006766756996512413,0.003012972418218851
1772699633779318500,1.242318603515625,0.0006432533264160156,0.0019439058378338814,0.0004682210274040699
1772699633789275400,1.252275390625,0.0039314585737884045,0.000012048985809087753,-0.0003533642739057541
1772699633799232500,1.262232421875,-0.000861181877553463,-0.0016152416355907917,-0.00045875925570726395
1772699633809189600,1.272189697265625,0.0005692020058631897,-0.002278634812682867,0.001163372304290533
1772699633819146500,1.282146484375,-0.0008793955203145742,0.0011682533659040928,0.0012323739938437939
1772699633829103400,1.292103271484375,0.0015382221899926662,0.0012851660139858723,-0.002240121830254793
1772699633839060500,1.302060546875,0.00044310837984085083,-0.0006682397797703743,0.0015583988279104233
1772699633849017300,1.312017333984375,-0.001165973604656756,-0.0021108738146722317,0.0007021925412118435
1772699633858974500,1.321974365234375,0.00008875317871570587,0.0009780428372323513,0.0008114688098430634
1772699633868931600,1.331931640625,0.0002229765523225069,0.00031172018498182297,-0.0018263922538608313
1772699633878889500,1.341889404296875,0.0007056572940200567,0.0005645677447319031,0.001936689019203186
1772699633888846300,1.351846435546875,0.00286814384162426,-0.000763018149882555,-0.002571243792772293
1772699633898803500,1.361803466796875,0.001726518850773573,-0.002478639129549265,0.003338199108839035
1772699633908760600,1.371760498046875,0.0037502548657357693,-0.000006160233169794083,0.0009299023076891899
1772699633918717400,1.381717529296875,-0.0002886729780584574,-0.0007225624285638332,0.00034568551927804947
1772699633928674600,1.391674560546875,0.0019688885658979416,-0.0002743522636592388,-0.000103057362139225
1772699633938631400,1.40163134765625,0.0025512936990708113,-0.003114626742899418,-0.00046711601316928864
1772699633948588300,1.41158837890625,0.0005877448711544275,0.0007357713766396046,0.0026847352273762226
1772699633958545400,1.42154541015625,0.0014401020016521215,0.0003554406575858593,0.0003474736586213112
1772699633968502500,1.43150244140625,0.001885382691398263,0.0015530642122030258,0.0001195068471133709
1772699633978459400,1.44145947265625,-0.0008599765133112669,-0.0004876665771007538,0.00016907602548599243
1772699633988416500,1.45141650390625,0.0013528440613299608,-0.0005883336998522282,0.0005014385096728802
1772699633998373600,1.46137353515625,-0.0008874991908669472,0.00001032976433634758,-0.0015030433423817158
1772699634008331500,1.47133154296875,-0.0005554030649363995,0.0005229883827269077,-0.0016327393241226673
1772699634018288400,1.481288330078125,-0.000007793772965669632,-0.00026479223743081093,-0.0006453534588217735
1772699634028245500,1.49124560546875,0.0008324335794895887,-0.00043789763003587723,0.000305927824229002
1772699634038202600,1.50120263671875,0.0004197771195322275,-0.00026903674006462097,-0.001208233879879117
1772699634048159500,1.511159423828125,0.0004860898479819298,0.0013083536177873611,0.0005430607125163078
1772699634058116400,1.521116455078125,0.0020163902081549168,0.0003971271216869354,-0.0013956562615931034
1772699634068073500,1.531073486328125,-0.0014348000986501575,-0.0004279199056327343,0.00036149751394987106
1772699634078030300,1.5410302734375,-0.0020314075518399477,0.002422134391963482,-0.003558891825377941
1772699634087987500,1.550987548828125,-0.0003837097901850939,0.000502261333167553,0.000027853529900312424
1772699634097944600,1.560944580078125,0.0003399942070245743,-0.001032878179103136,-0.00018623191863298416
1772699634107901700,1.570901611328125,-0.00044191000051796436,-0.0019860235042870045,-0.0016736073885113
1772699634117858300,1.5808583984375,-0.0011772370198741555,-0.0012611583806574345,-0.0018766883295029402
1772699634127816400,1.59081640625,-0.000559383537620306,-0.00021426985040307045,0.0007750210352241993
1772699634137773600,1.600773681640625,0.00007501128129661083,-0.0012205354869365692,0.0004778532311320305
1772699634147730400,1.61073046875,0.0019898242317140102,-0.001502031460404396,-0.0007940726354718208
1772699634157687600,1.6206875,-0.0020629987120628357,-0.002553749829530716,0.0009165420196950436
1772699634167644400,1.63064453125,0.0012776704970747232,0.0005709370598196983,-0.0010065266396850348
1772699634177601500,1.6406015625,-0.003811965696513653,-0.0007690819911658764,-0.0033355013001710176
1772699634187558400,1.650558349609375,-0.0005061838310211897,0.0009007202461361885,-0.002114175586029887
1772699634197515500,1.660515625,-0.0018132266122847795,0.00029760412871837616,0.0040191542357206345
1772699634207472600,1.67047265625,0.0005090497434139252,0.002336520701646805,0.00044226227328181267
1772699634217429500,1.680429443359375,0.00016164593398571014,-0.003450215794146061,0.002488620113581419
1772699634227386400,1.690386474609375,-0.0009169343393296003,-0.001064556185156107,0.0005924496799707413
1772699634237343500,1.700343505859375,-0.0012123523047193885,0.0008867383003234863,0.0001675812527537346
1772699634247300400,1.71030029296875,-0.0006424358580261469,-0.001115425955504179,-0.0012489540968090296
1772699634257258500,1.720258544921875,-0.001026415964588523,0.00031559448689222336,0.0024724770337343216
1772699634267215600,1.730215576171875,-0.0019715719390660524,0.001469542272388935,0.0014207945205271244
1772699634277172500,1.74017236328125,0.000958956778049469,-0.00202872883528471,-0.002375571522861719
1772699634287129300,1.75012939453125,-0.0005230922251939774,-0.0007733148522675037,-0.0006189504638314247
1772699634297086500,1.76008642578125,0.0007494352757930756,0.0005412381142377853,-0.00024681445211172104
1772699634307043600,1.770043701171875,0.0005925751756876707,-0.000014030840247869492,-0.0018814627546817064
1772699634317000400,1.78000048828125,0.003010988235473633,-0.00027386751025915146,0.0026354696601629257
1772699634326957600,1.78995751953125,0.0009872522205114365,0.0002774070017039776,0.0005347682163119316
1772699634336914400,1.79991455078125,0.0012595802545547485,-0.0016102157533168793,-0.0017733140848577023
1772699634346871300,1.809871337890625,-0.00025655748322606087,0.0006042029708623886,-0.0032463085372000933
1772699634356828400,1.819828369140625,-0.0010033861035481095,0.000058022793382406235,0.0009981263428926468
1772699634366785500,1.82978564453125,-0.0017330922419205308,0.0001461734063923359,-0.0005398495122790337
1772699634376743700,1.83974365234375,0.001973838312551379,-0.0013362206518650055,0.00005761533975601196
1772699634386700300,1.8497001953125,-0.0003503025509417057,-0.001960465684533119,0.002173763234168291
1772699634396657400,1.859657470703125,-0.0008179815486073494,-0.0013576336205005646,-0.001162104308605194
1772699634406614500,1.869614501953125,-0.0012131946859881282,-0.0004830514080822468,-0.0005935193039476871
1772699634416571400,1.8795712890625,-0.0011759642511606216,-0.0006863442249596119,-0.002369649475440383
1772699634426528500,1.889528564453125,-0.0020955537911504507,-0.001499940175563097,-0.0005501778796315193
1772699634436485600,1.899485595703125,-0.0011169294593855739,0.0017727143131196499,0.0035003051161766052
1772699634446442200,1.909442138671875,-0.002078330609947443,-0.0006851167418062687,-0.00382525147870183
1772699634456399400,1.9193994140625,0.0009055887348949909,-0.0012200227938592434,-0.000562561210244894
1772699634466356500,1.9293564453125,-0.0019306777976453304,-0.0005007032305002213,0.0017352141439914703
1772699634476313300,1.939313232421875,0.0028253092896193266,-0.0011295080184936523,-0.0003638169728219509
1772699634486270500,1.9492705078125,-0.0018983394838869572,0.003075090702623129,0.000010623596608638763
1772699634496227600,1.9592275390625,-0.0000035706907510757446,-0.0004727700725197792,-0.00042577600106596947
1772699634506185500,1.969185546875,0.0013293414376676083,0.0028830794617533684,-0.00042258016765117645
1772699634516142300,1.979142333984375,0.001024794764816761,0.0003795698285102844,-0.002054619835689664
1772699634526099500,1.989099365234375,-0.0005858850199729204,-0.0002305605448782444,0.0011166725307703018
1772699634536056600,1.999056640625,-0.0007575468625873327,-0.0011342726647853851,-0.0027394175995141268
1772699634546013400,2.009013427734375,0.0025461046025156975,0.0017081191763281822,-0.0020187662448734045
1772699634555970300,2.01897021484375,-0.001859468873590231,-0.00196267431601882,-0.00004692422226071358
1772699634565927400,2.028927490234375,0.0017685552593320608,0.0010954337194561958,-0.0013364267069846392
1772699634575884500,2.038884521484375,-0.0026768059469759464,0.0006574727594852448,0.0005749515257775784
1772699634585841400,2.04884130859375,-0.001229644170962274,0.00021485518664121628,-0.0005465056747198105
1772699634595798500,2.058798583984375,-0.0011397748021408916,-0.0007475321181118488,-0.0006197006441652775
1772699634605755600,2.068755615234375,-0.0010660052066668868,0.00045568402856588364,-0.0027941716834902763
1772699634615712500,2.07871240234375,0.0036828648298978806,0.00018498534336686134,0.0003424091264605522
1772699634625669400,2.08866943359375,0.001978442072868347,-0.0011133053340017796,-0.0021716151386499405
1772699634635626500,2.09862646484375,0.0018626535311341286,-0.0012095565907657146,-0.0008977225515991449
1772699634645584600,2.108584716796875,-0.0005927807651460171,-0.002176550216972828,-0.000012487638741731644
1772699634655541500,2.11854150390625,-0.0019880456384271383,0.0002910532057285309,-0.001643032068386674
1772699634665498400,2.128498291015625,0.0029891361482441425,0.0035246633924543858,0.0014094831421971321
1772699634675455500,2.13845556640625,0.0010326812043786049,0.000886665191501379,-0.0037345613818615675
1772699634685412400,2.148412353515625,-0.0014027795987203717,-0.00022973213344812393,-0.0018924528267234564
1772699634695369700,2.15836962890625,-0.001006023376248777,0.0021094982512295246,-0.002843325026333332
1772699634705326800,2.168326904296875,-0.0009442380396649241,0.00006871810182929039,0.0008464846760034561
1772699634715283700,2.17828369140625,0.0013390444219112396,-0.0014192643575370312,0.0004051285795867443
1772699634725240800,2.18824072265625,-0.001473253476433456,0.00035599851980805397,-0.0000928826630115509
1772699634735197700,2.19819775390625,-0.000009706709533929825,0.0001289714127779007,0.00010228250175714493
1772699634745154600,2.208154541015625,-0.001093613333068788,0.0001199166290462017,-0.00013180915266275406
1772699634755111700,2.218111572265625,0.001293115084990859,-0.0014898213557898998,-0.00016601383686065674
1772699634765069800,2.22806982421875,-0.0007631115149706602,-0.00022987974807620049,0.0019362857565283775
1772699634775026700,2.238026611328125,0.0002881803084164858,0.0008443263359367847,-0.003445515176281333
1772699634784983600,2.247983642578125,0.00002346211113035679,-0.0005248049274086952,-0.0007759623695164919
1772699634794940700,2.257940673828125,0.0017525791190564632,0.0009266934357583523,0.0019423742778599262
1772699634804897800,2.267897705078125,0.0009373857174068689,0.0019315043464303017,-0.0021570296958088875
1772699634814854700,2.277854736328125,0.0024456679821014404,0.00009251851588487625,0.001226342748850584
1772699634824811800,2.287811767578125,0.0007881168276071548,-0.00034956634044647217,0.0013597668148577213
1772699634834769000,2.297768798828125,-0.0021233658771961927,-0.00027251383289694786,0.001666939351707697
1772699634844725500,2.3077255859375,-0.0027987435460090637,-0.0012040878646075726,0.0006642593070864677
1772699634854682600,2.3176826171875,0.0003997890744358301,-0.002564546652138233,0.002263312228024006
1772699634864639700,2.3276396484375,0.000730021158233285,-0.0014662593603134155,0.0019051171839237213
1772699634874596900,2.337596923828125,-0.0011289543472230434,0.0006387871690094471,0.0009452300146222115
1772699634884553700,2.3475537109375,0.0013451224658638239,-0.0007553775794804096,-0.0019906386733055115
1772699634894510800,2.3575107421875,0.0015807454474270344,-0.001547644380480051,-0.0036923857405781746
1772699634904468700,2.36746875,0.002251862082630396,-0.0018949205987155437,0.0006171413697302341
1772699634914425600,2.377425537109375,-0.000607683090493083,0.0013436940498650074,0.0006135120056569576
1772699634924382700,2.3873828125,0.00020351586863398552,0.00024167820811271667,-0.0022821428719908
1772699634934339800,2.39733984375,-0.0027898908592760563,0.0016402751207351685,0.0012873262166976929
1772699634944296700,2.407296630859375,-0.0005480418913066387,0.0010983217507600784,-0.00435591209679842
1772699634954253600,2.417253662109375,-0.00110586266964674,0.0010324879549443722,-0.0006239123176783323
1772699634964210700,2.427210693359375,0.0006022888701409101,0.000553385354578495,-0.001761880936101079
1772699634974167800,2.437167724609375,0.0012140229810029268,0.0021389946341514587,-0.0007729728240519762
1772699634984124700,2.447124755859375,0.00009522889740765095,-0.00038514891639351845,-0.0003354153595864773
1772699634994081800,2.457081787109375,-0.0010291418293491006,-0.0002537481486797333,-0.0002502244897186756
1772699635004039000,2.467038818359375,0.0002116248942911625,-0.0010276627726852894,0.000011564232409000397
1772699635013995500,2.47699560546875,0.002132882596924901,0.0011848038993775845,-0.0009113538544625044
1772699635023953700,2.48695361328125,-0.0007441302295774221,-0.0012892731465399265,-0.0013558354694396257
1772699635033910800,2.496910888671875,0.0009984688367694616,0.0007929867133498192,-0.0004412946291267872
1772699635043868000,2.506867919921875,-0.000895837671123445,-0.0001537674106657505,-0.0023885981645435095
1772699635053824800,2.51682470703125,0.0012440881691873074,0.0016067884862422943,-0.0017002178356051445
1772699635063781600,2.52678173828125,0.000553530640900135,-0.0010052393190562725,-0.000984359998255968
1772699635073738800,2.53673876953125,0.000034278491511940956,-0.0003226897679269314,-0.0006043866742402315
1772699635083695600,2.546695556640625,-0.0027005216106772423,0.00021447008475661278,-0.00009332597255706787
1772699635093652700,2.55665283203125,0.0009229076094925404,-0.0007448415271937847,0.003330627456307411
1772699635103609900,2.56660986328125,0.002071262802928686,-0.001267087645828724,0.00015667174011468887
1772699635113566700,2.576566650390625,-0.00011334428563714027,-0.00037002284079790115,-0.001858207629993558
1772699635123523800,2.58652392578125,0.0014129134360700846,0.0013698199763894081,-0.0028544962406158447
1772699635133480700,2.596480712890625,-0.001323825097642839,0.004720211029052734,-0.001985135953873396
1772699635143437600,2.6064375,0.0011683609336614609,0.0006812615320086479,-0.0007944365497678518
1772699635153394700,2.616394775390625,-0.0019150543957948685,0.0005428032018244267,0.002382047474384308
1772699635163352800,2.626352783203125,0.00027326494455337524,-0.000357611570507288,-0.0015517077408730984
1772699635173309700,2.636309814453125,0.0007022654172033072,0.0008602011948823929,0.004206415265798569
1772699635183266600,2.6462666015625,-0.002326014917343855,-0.00017363810911774635,0.0016127629205584526
1772699635193223700,2.6562236328125,-0.001442322158254683,-0.0003460962325334549,-0.0022942889481782913
1772699635203180800,2.666180908203125,0.0011270956601947546,-0.001375407911837101,-0.0016580596566200256
1772699635213137700,2.6761376953125,-0.0018609208054840565,-0.0014681941829621792,-0.0021236268803477287
1772699635223094800,2.6860947265625,0.0002016974613070488,-0.0008583301678299904,-0.0009510370437055826
1772699635233052000,2.696052001953125,0.000406656414270401,-0.00016714585945010185,-0.0033193440176546574
1772699635243008500,2.706008544921875,0.001096681458875537,-0.002028429415076971,0.00013663992285728455
1772699635252965600,2.715965576171875,-0.0018482375890016556,0.000661361962556839,-0.0009460870642215014
1772699635262922800,2.7259228515625,0.00103623210452497,0.0005974462255835533,-0.0007892267312854528
1772699635272879600,2.735879638671875,0.000477401539683342,-0.001253847498446703,0.0013973396271467209
1772699635282836700,2.745836669921875,0.00042200786992907524,0.000577075406908989,0.0021406281739473343
1772699635292794600,2.755794677734375,-0.0010382060427218676,0.0004927231930196285,0.0025017871521413326
1772699635302751700,2.765751708984375,0.000415347283706069,-0.0025030667893588543,-0.003922023810446262
1772699635312708600,2.77570849609375,0.0013634508941322565,-0.0003926968201994896,-0.000262195710092783
1772699635322665700,2.785665771484375,0.0008390743751078844,-0.001324536744505167,0.001359669491648674
1772699635332622800,2.795622802734375,0.0033897783141583204,0.0012694713659584522,0.003440101630985737
1772699635342579700,2.805579833984375,-0.0014904642011970282,-0.0011723809875547886,0.0027807028964161873
1772699635352536600,2.81553662109375,-0.0019322956213727593,0.0016726823523640633,0.0021198908798396587
1772699635362493700,2.82549365234375,0.0027623248752206564,-0.00006289966404438019,-0.0023723288904875517
1772699635372450800,2.835450927734375,0.00018943590112030506,0.0014159595593810081,0.0006883875466883183
1772699635382407700,2.84540771484375,0.000228584511205554,0.0008154166862368584,-0.002650683745741844
1772699635392364800,2.85536474609375,-0.0008084854343906045,-0.0005050469189882278,-0.002616435755044222
1772699635402322000,2.865322021484375,0.0001316105481237173,-0.001005987636744976,-0.000819334527477622
1772699635412278500,2.875278564453125,0.0017300397157669067,-0.0018225130625069141,-0.0005242563784122467
1772699635422235600,2.885235595703125,0.0015481458976864815,0.00036633899435400963,0.001134626567363739
1772699635432193800,2.89519384765625,-0.0005680536851286888,0.00019033998250961304,-0.0002806377597153187
1772699635442151000,2.90515087890625,-0.00048176711425185204,-0.0010357792489230633,0.00015026191249489784
1772699635452107800,2.915107666015625,0.0011363779194653034,0.002254016697406769,0.0005745580419898033
1772699635462064600,2.925064697265625,0.0007302458398044109,0.0012350915931165218,-0.002297394908964634
1772699635472021800,2.935021728515625,-0.0012134343851357698,-0.0004576430656015873,0.0003810720518231392
1772699635481978600,2.944978515625,0.00003079441376030445,0.0009367880411446095,-0.0003273286856710911
1772699635491935700,2.954935791015625,-0.0015021399594843388,0.0007631652988493443,-0.0014490250032395124
1772699635501892900,2.964892822265625,0.0031277653761208057,-0.0013732225634157658,0.0008905618451535702
1772699635511849700,2.974849609375,0.0009883746970444918,-0.0014185672625899315,-0.0015938614960759878
1772699635521806600,2.984806640625,0.0004243170842528343,-0.001871038693934679,-0.0011179547291249037
1772699635531763700,2.994763671875,-0.0003562895581126213,-0.000604014378041029,-0.00011306023225188255
1772699635541720600,3.004720458984375,-0.0009725450072437525,0.0038061803206801414,-0.0016614221967756748
1772699635551677700,3.014677734375,0.0005423719994723797,0.0009514288976788521,-0.000010198447853326797
1772699635561635800,3.0246357421875,-0.0014613904058933258,0.00035754404962062836,-0.0009279237128794193
1772699635571592700,3.0345927734375,0.00021934090182185173,0.001427801325917244,-0.00024263327941298485
1772699635581549600,3.044549560546875,-0.0007604360580444336,-0.0021789176389575005,0.00190707016736269
1772699635591506700,3.054506591796875,-0.0005269630346447229,0.00013886485248804092,0.0012058056890964508
1772699635601463800,3.0644638671875,0.0009609449189156294,0.0006134402938187122,0.002264678478240967
1772699635611420700,3.074420654296875,0.0006629105191677809,0.00003429176285862923,-0.0008982671424746513
1772699635621377800,3.084377685546875,0.0023068797308951616,-0.0011460212990641594,-0.0014601941220462322
1772699635631334700,3.094334716796875,-0.00041138846427202225,-0.0004160413518548012,-0.003028706880286336
1772699635641291500,3.10429150390625,-0.0007615941576659679,0.001098498236387968,0.0001369928941130638
1772699635651248600,3.11424853515625,0.0018730699084699154,-0.0014103990979492664,0.0003318781964480877
1772699635661205800,3.124205810546875,0.001221128273755312,-0.0012729796580970287,-0.0015581671614199877
1772699635671162600,3.13416259765625,0.0006738263182342052,0.0008627292700111866,0.0019493680447340012
1772699635681119700,3.14411962890625,-0.00008410937152802944,-0.00039721233770251274,0.0016247290186583996
1772699635691077000,3.1540771484375,-0.001153580262325704,-0.00047138379886746407,0.0007663234136998653
1772699635701033700,3.16403369140625,0.0004722794983536005,0.0015494227409362793,-0.002189519116654992
1772699635710990800,3.173990966796875,-0.0018644154770299792,0.0007506608963012695,0.0002006925642490387
1772699635720948000,3.183947998046875,-0.0010292482329532504,-0.0016698860563337803,-0.0013197062071412802
1772699635730904800,3.19390478515625,-0.0018301026429980993,0.0004535634070634842,0.0012030694633722305
1772699635740862000,3.203862060546875,-0.003879405092447996,0.0017302827909588814,-0.002455581445246935
1772699635750819000,3.213819091796875,0.0007739334832876921,-0.0010238238610327244,0.0021051019430160522
1772699635760776000,3.22377587890625,-0.0027134758420288563,0.0006622234359383583,0.0004206523299217224
1772699635770732800,3.23373291015625,0.0017044255509972572,0.0013150377199053764,0.0006672930903732777
1772699635780690000,3.24368994140625,-0.00185142713598907,0.0015475316904485226,-0.002352199051529169
1772699635790647000,3.25364697265625,-0.0015988516388460994,-0.0004810323007404804,0.00017571775242686272
1772699635800604000,3.26360400390625,0.0022499486804008484,-0.0001111193560063839,0.0007645422592759132
1772699635810561000,3.27356103515625,-0.0009712079772725701,-0.0007240776903927326,0.002253299579024315
1772699635820518100,3.28351806640625,-0.0007717371918261051,-0.0005672173574566841,0.001098819077014923
1772699635830475800,3.293475830078125,-0.000751434126868844,0.0007081138901412487,-0.0027775929775089025
1772699635840433000,3.303432861328125,0.0007857424207031727,0.0002050427719950676,0.0011436454951763153
1772699635850390000,3.31339013671875,-0.00007915007881820202,0.0004501636140048504,0.0005217390134930611
1772699635860347100,3.32334716796875,0.0031688411254435778,0.000306619331240654,0.0009920536540448666
1772699635870303700,3.3333037109375,0.0005599819123744965,-0.001552090048789978,-0.0025703180581331253
1772699635880260900,3.3432607421875,-0.0015313985059037805,0.0025478466413915157,0.0011557107791304588
1772699635890218000,3.353218017578125,0.0030646442901343107,0.00016654515638947487,0.00009414972737431526
1772699635900174800,3.3631748046875,-0.0006206382531672716,-0.0023397558834403753,0.0010789870284497738
1772699635910132000,3.373132080078125,-0.0004261857829988003,0.0007588029839098454,-0.0019555622711777687
1772699635920089000,3.383089111328125,-0.003957004752010107,0.00018755486235022545,-0.000296679325401783
1772699635930046000,3.3930458984375,-0.0016936375759541988,0.001841836143285036,-0.002426325110718608
1772699635940002800,3.4030029296875,-0.0010358367580920458,0.001046349760144949,0.0006754589267075062
1772699635949960000,3.4129599609375,-0.0015842127613723278,0.0015230784192681313,0.0015572579577565193
1772699635959918000,3.42291796875,-0.0002451753243803978,0.001328134909272194,0.00028506573289632797
1772699635969875000,3.432875,0.0014815691392868757,0.00017625559121370316,-0.0005968713667243719
1772699635979831800,3.442831787109375,0.00033640977926552296,0.0017315414734184742,0.0006215251050889492
1772699635989789000,3.452788818359375,0.0021910862997174263,0.0003609228879213333,0.0001836288720369339
1772699635999745800,3.462745849609375,0.0010531176812946796,0.0036978633143007755,-0.00023608515039086342
1772699636009703000,3.472702880859375,-0.0015899641439318657,-0.00009552575647830963,-0.0005118642002344131
1772699636019660000,3.482659912109375,-0.0006362861022353172,0.00042032869532704353,-0.0009116048458963633
1772699636029617000,3.492616943359375,0.0010963568929582834,0.002746164333075285,-0.0015814972575753927
1772699636039574000,3.502573974609375,0.0018553580157458782,-0.0013247434981167316,-0.00008240388706326485
1772699636049531000,3.51253076171875,0.001835912698879838,0.0012937136925756931,-0.00195098458789289
1772699636059487700,3.52248779296875,0.0019877131562680006,0.0001682620495557785,0.001387287862598896
1772699636069444900,3.53244482421875,-0.0011543454602360725,0.00056120241060853,-0.0026338945608586073
1772699636079402000,3.542402099609375,-0.001037166453897953,-0.0022066207602620125,0.0012865448370575905
1772699636089360000,3.55235986328125,0.00402928376570344,0.0019505899399518967,0.0007084528915584087
1772699636099316700,3.562316650390625,-0.003228096291422844,0.0012616300955414772,-0.0023845424875617027
1772699636109273900,3.57227392578125,0.0014444731641560793,0.0005868910811841488,0.0012022587470710278
1772699636119231000,3.58223095703125,0.0013885467778891325,-0.004372181370854378,-0.00022732606157660484
1772699636129187800,3.592187744140625,-0.004352180287241936,0.001435919664800167,-0.00017923209816217422
1772699636139145000,3.60214501953125,0.00045961886644363403,0.001452963799238205,0.001089497935026884
1772699636149102000,3.61210205078125,-0.001494634780101478,0.00024177459999918938,0.0014280891045928001
1772699636159058700,3.62205859375,-0.0010610722238197923,-0.0010277540422976017,0.0021471423096954823
1772699636169015800,3.632015869140625,0.0008367053233087063,-0.00003599841147661209,0.00029097357764840126
1772699636178973000,3.641972900390625,-0.002079456113278866,0.0010519027709960938,-0.004664103966206312
1772699636188930000,3.651929931640625,-0.00008307327516376972,-0.0007455912418663502,-0.0005189920775592327
1772699636198887000,3.661886962890625,0.0019158953800797462,-0.0003865971229970455,0.0009532035328447819
1772699636208844000,3.671843994140625,-0.00007245107553899288,0.0005410038866102695,0.0004223966971039772
1772699636218801000,3.68180078125,-0.002875428181141615,0.0015897564589977264,0.00122081208974123
1772699636228758800,3.6917587890625,-0.0005601083394140005,-0.0008183238096535206,0.002484413795173168
1772699636238716000,3.7017158203125,-0.0018362951232120395,0.0005899560637772083,-0.001567851984873414
1772699636248673000,3.711673095703125,-0.00172282790299505,0.0008821361698210239,0.0012622866779565811
1772699636258630100,3.721630126953125,-0.0007094950415194035,0.00017986027523875237,-0.0028102188371121883
1772699636268586800,3.731586669921875,0.0008854009211063385,0.002696314826607704,-0.001507114851847291
1772699636278544000,3.7415439453125,-0.0007375294808298349,-0.0006374302320182323,-0.0005622254684567451
1772699636288501000,3.7515009765625,0.0019776017870754004,-0.00022126361727714539,0.0001789657399058342
1772699636298457900,3.761457763671875,0.0009333763737231493,0.001036547590047121,-0.0002956097014248371
1772699636308415000,3.7714150390625,0.002630540868267417,-0.003000123193487525,-0.0028408262878656387
1772699636318372000,3.7813720703125,0.000005462905392050743,0.0011307056993246078,-0.0013105738908052444
1772699636328329000,3.791328857421875,-0.002263106871396303,0.0016702190041542053,0.004031722899526358
1772699636338285800,3.801285888671875,0.000897532794624567,-0.0008549904450774193,0.0019190371967852116
1772699636348243000,3.811242919921875,0.001528182765468955,0.0017058760859072208,0.0010635051876306534
1772699636358199800,3.82119970703125,-0.0006936925929039717,0.0008691106922924519,-0.0029160561971366405
1772699636368158000,3.831157958984375,-0.001082045491784811,0.0015202839858829975,0.0012958301231265068
1772699636378114800,3.84111474609375,0.0016855113208293915,0.0008947071619331837,-0.0009481494780629873
1772699636388072000,3.851072021484375,-0.0003610753919929266,0.0010671364143490791,0.0009256876073777676
1772699636398028800,3.86102880859375,0.00018194317817687988,-0.00045406119897961617,0.0015105176717042923
1772699636407986000,3.87098583984375,0.0017155155073851347,-0.0008849650621414185,0.002318582497537136
1772699636417943000,3.880943115234375,0.0008534502703696489,-0.0009052050299942493,-0.0006862622685730457
1772699636427900000,3.89089990234375,-0.0000412969384342432,0.000969721470028162,-0.001263291109353304
1772699636437857000,3.90085693359375,0.0015137230511754751,-0.00031472137197852135,-0.0016161599196493626
1772699636447814000,3.91081396484375,0.0021072374656796455,-0.00011940812692046165,-0.0017485632561147213
1772699636457770800,3.920770751953125,0.001493911724537611,0.0006939209997653961,-0.0015227270778268576
1772699636467728000,3.930727783203125,0.0008231960237026215,0.0012543490156531334,-0.0006448396015912294
1772699636477685000,3.94068505859375,0.002849861513823271,-0.0007347660139203072,-0.0031676520593464375
1772699636487641900,3.950641845703125,0.0001562274992465973,0.0019232332706451416,0.0018204632215201855
1772699636497599000,3.960598876953125,-0.0009942582109943032,0.0023429477587342262,0.002130987588316202
1772699636507556900,3.970556884765625,0.0021514834370464087,-0.0032570315524935722,-0.0011254658456891775
1772699636517514000,3.980513916015625,0.0009272282477468252,0.002093791961669922,-0.002176881767809391
1772699636527470800,3.990470947265625,0.0016035486478358507,0.00240550609305501,-0.000558813102543354
1772699636537428000,4.000427978515625,-0.003212512005120516,-0.00003075413405895233,-0.0011415129993110895
1772699636547385000,4.010385009765625,-0.00033360649831593037,0.0010672598145902157,-0.0000066016800701618195
1772699636557341700,4.020341796875,0.00031727016903460026,-0.0010403660126030445,-0.000994634348899126
1772699636567298800,4.030298828125,0.0036258320324122906,-0.0022470816038548946,-0.0005765305832028389
1772699636577256000,4.040255859375,-0.002102893777191639,-0.00023692753165960312,-0.0005509643815457821
1772699636587213000,4.050213134765625,-0.0002224415075033903,0.0013665775768458843,0.000004815403372049332
1772699636597170000,4.060169921875,-0.001667472650296986,-0.0003197360783815384,0.0002213302068412304
1772699636607127000,4.070126953125,0.0013431322295218706,0.0015233447775244713,-0.001082688570022583
1772699636617084000,4.080083984375,-0.000002562999725341797,0.0002231895923614502,-0.0017037377692759037
1772699636627040800,4.090040771484375,-0.0005231075920164585,0.0004394245333969593,-0.001625345554202795
1772699636636998000,4.099997802734375,0.0007307087071239948,0.0008290447294712067,-0.00044050533324480057
1772699636646956000,4.1099560546875,-0.00010405667126178741,-0.0012191971763968468,-0.0015996673610061407
1772699636656913200,4.1199130859375,0.0012432364746928215,0.0010663275606930256,-0.001359450165182352
1772699636666869800,4.129869873046875,0.0007282891310751438,-0.00005382206290960312,0.00007110787555575371
1772699636676827000,4.139826904296875,0.0028327188920229673,-0.0009494433179497719,-0.0002711080014705658
1772699636686784000,4.149783935546875,0.0004093123134225607,-0.001991104334592819,-0.0006469872314482927
1772699636696741400,4.159741455078125,-0.00002771243453025818,-0.003052374115213752,0.0020444034598767757
1772699636706698500,4.169698486328125,0.002088963519781828,0.0005327756516635418,0.00017243996262550354
1772699636716655600,4.179655517578125,0.002667136024683714,-0.0005207709036767483,0.0007362309843301773
1772699636726612200,4.1896123046875,-0.0016428354429081082,0.00025528110563755035,-0.0020415012259036303
1772699636736569300,4.1995693359375,-0.001046819961629808,0.0011999043636023998,0.0002528121694922447
1772699636746526500,4.2095263671875,-0.0012894708197563887,-0.001487972680479288,-0.0011877843644469976
1772699636756483300,4.2194833984375,0.002871718490496278,-0.00035612890496850014,0.0005533904768526554
1772699636766440400,4.2294404296875,0.0009813869837671518,0.0003635403700172901,0.001648068893700838
1772699636776398300,4.2393984375,0.0008173363748937845,0.00046873511746525764,0.0010211607441306114
1772699636786355500,4.24935546875,0.00039603468030691147,-0.00009641982614994049,0.0003850138746201992
1772699636796312300,4.259312255859375,0.00030202511698007584,0.001118247862905264,-0.00243900204077363
1772699636806269400,4.26926953125,-0.0013765138573944569,-0.0012463037855923176,-0.0005948315374553204
1772699636816226600,4.2792265625,0.0019087616819888353,-0.0010777255520224571,-0.0005492917262017727
1772699636826183400,4.289183349609375,-0.00007589254528284073,0.0005233287811279297,-0.0037656459026038647
1772699636836140300,4.299140380859375,-0.00044980039820075035,0.0005765920504927635,-0.0008108688052743673
1772699636846097400,4.309097412109375,0.001208666479215026,0.00021323421970009804,0.0022542541846632957
1772699636856054300,4.31905419921875,-0.00036659324541687965,0.0013642520643770695,-0.0006533849518746138
1772699636866011400,4.329011474609375,-0.0015966530190780759,-0.0018770690076053143,-0.0017257505096495152
1772699636875968500,4.338968505859375,0.0018484119791537523,-0.0020712134428322315,0.0009102462790906429
1772699636885925600,4.348925537109375,-0.000300736865028739,-0.0008456408977508545,0.0014680484309792519
1772699636895882500,4.358882568359375,-0.0008573376107960939,-0.0012291357852518559,-0.00036101043224334717
1772699636905839400,4.36883935546875,0.0009756800718605518,-0.0012627970427274704,-0.00374939339235425
1772699636915797500,4.378797607421875,-0.00017933291383087635,-0.0012774444185197353,-0.0026055655907839537
1772699636925754400,4.38875439453125,0.00010976963676512241,-0.0002216435968875885,-0.0008280121255666018
1772699636935711500,4.39871142578125,0.0007973979227244854,0.00005798833444714546,-0.0016266941092908382
1772699636945668400,4.40866845703125,-0.002352637005969882,-0.000813367310911417,-0.0031383358873426914
1772699636955625500,4.41862548828125,0.0006234454922378063,-0.00021415576338768005,-0.000992360757663846
1772699636965582300,4.428582275390625,-0.0007347625214606524,-0.0009673000313341618,-0.0009443969465792179
1772699636975539500,4.43853955078125,-0.0008889595046639442,0.00027905916795134544,0.0005989051423966885
1772699636985496600,4.44849658203125,-0.0002705296501517296,-0.001111938152462244,-0.0005068350583314896
1772699636995453400,4.458453369140625,-0.0009312599431723356,0.001481714192777872,0.00222956296056509
1772699637005410600,4.46841064453125,0.001012834720313549,0.0016309930942952633,-0.001055640634149313
1772699637015367400,4.478367431640625,0.00013638846576213837,-0.0018761237151920795,-0.0015174327418208122
1772699637025324300,4.48832421875,-0.0016495096497237682,0.00088103162124753,0.000995696522295475
1772699637035281400,4.498281494140625,0.00045891478657722473,0.0018501561135053635,-0.000042403582483530045
1772699637045238500,4.508238525390625,-0.0007131042657420039,-0.0012142830528318882,-0.0008283443748950958
1772699637055196400,4.518196533203125,-0.0004766155034303665,0.0007324879989027977,-0.0009218212217092514
1772699637065153300,4.5281533203125,0.00007629673928022385,0.0022813705727458,0.00003920169547200203
1772699637075110400,4.5381103515625,0.002054226351901889,0.0023032082244753838,-0.0011778627522289753
1772699637085067500,4.548067626953125,-0.0017651845701038837,0.0018116855062544346,0.0005879765376448631
1772699637095024400,4.5580244140625,-0.0009084456833079457,0.0003464142791926861,0.0008508302271366119
1772699637104981500,4.5679814453125,0.0000074789859354496,0.0009839320555329323,0.0007995795458555222
1772699637114938600,4.577938720703125,0.0012399901170283556,0.0001317206770181656,0.0010152957402169704
1772699637124895200,4.587895263671875,-0.0026838905178010464,0.0013856962323188782,-0.0038719316944479942
1772699637134852400,4.597852294921875,-0.0010806676000356674,-0.00001166434958577156,0.0006503821350634098
1772699637144809500,4.6078095703125,-0.00027282326482236385,0.00022059353068470955,0.0006881682202219963
1772699637154766300,4.617766357421875,-0.0010166441788896918,0.0000642659142613411,0.004010728094726801
1772699637164723500,4.627723388671875,0.000524044269695878,0.0008467137813568115,0.0005260580219328403
1772699637174680600,4.6376806640625,0.0007538751233369112,-0.00035250792279839516,0.0018054405227303505
1772699637184637200,4.64763720703125,-0.0006597995525225997,0.0014795712195336819,-0.0016718588303774595
1772699637194594300,4.65759423828125,-0.0009948252700269222,-0.0012781322002410889,-0.000008981209248304367
1772699637204552400,4.667552490234375,-0.0010091796284541488,0.00026844488456845284,-0.00041610514745116234
1772699637214509600,4.677509521484375,0.0016268172767013311,-0.0012735254131257534,0.001628137193620205
1772699637224466400,4.687466552734375,-0.000015653669834136963,-0.00021376600489020348,0.0019595669582486153
1772699637234423300,4.69742333984375,0.0009689170401543379,-0.001709663774818182,-0.0016349016223102808
1772699637244380400,4.70738037109375,-0.0019542789086699486,-0.0004255129024386406,0.000828662421554327
1772699637254337300,4.717337158203125,-0.0014378920895978808,0.0017540184780955315,-0.0012517990544438362
1772699637264294400,4.72729443359375,0.002894248813390732,0.0026782588101923466,0.000654551200568676
1772699637274251500,4.73725146484375,-0.0014925099676474929,0.0004702317528426647,0.0014415150508284569
1772699637284208600,4.747208740234375,-0.0019055213779211044,0.0010230387561023235,-0.0011020982638001442
1772699637294165200,4.757165283203125,0.0014822857920080423,0.0018614022992551327,-0.0006831830833107233
1772699637304122400,4.767122314453125,-0.00046090083196759224,-0.0024834945797920227,0.0005494230426847935
1772699637314079500,4.77707958984375,0.001994000980630517,-0.0005377889610826969,-0.0003933361731469631
1772699637324036400,4.787036376953125,0.0030286074616014957,-0.0031040667090564966,0.0022845519706606865
1772699637333994500,4.796994384765625,0.0009574671275913715,-0.00014928961172699928,0.00001287553459405899
1772699637343951400,4.806951416015625,-0.0001560503151267767,-0.0015942691825330257,0.0005739433690905571
1772699637353908500,4.816908447265625,0.001552101457491517,-0.000748183112591505,-0.001185341039672494
1772699637363865300,4.826865234375,-0.00021250476129353046,0.0017807520925998688,-0.00289213377982378
1772699637373822500,4.836822509765625,-0.0017281097825616598,0.0017538540996611118,-0.00015626847743988037
1772699637383779600,4.846779541015625,-0.0013023349456489086,-0.0004903823137283325,-0.0008829743601381779
1772699637393736400,4.856736328125,-0.000019756611436605453,-0.0023154467344284058,0.0019591511227190495
1772699637403693300,4.866693359375,-0.0007084890967234969,0.0004891334101557732,0.002724753227084875
1772699637413650400,4.876650390625,0.0011408100835978985,0.0013882163912057877,0.0013143429532647133
1772699637423607300,4.886607177734375,-0.0015908224740996957,-0.001093247439712286,0.002315675839781761
1772699637433564400,4.896564453125,0.00028351019136607647,0.000994404312223196,-0.00051925890147686
1772699637443521500,4.906521484375,-0.00035565439611673355,-0.001050296239554882,0.0013846997171640396
1772699637453478400,4.916478515625,0.0015173470601439476,-0.0008407058194279671,0.0014446205459535122
1772699637463435500,4.926435546875,0.0002982004079967737,0.0007765176706016064,-0.0006302085239440203
1772699637473392400,4.936392333984375,-0.00116467394400388,0.00019355164840817451,-0.00017560692504048347
1772699637483350500,4.9463505859375,-0.000554434722289443,0.0007082810625433922,0.0013669454492628574
1772699637493307400,4.956307373046875,-0.0008116959361359477,0.0003602062352001667,0.0004215235821902752
1772699637503264500,4.966264404296875,-0.000813861028291285,-0.0002238750457763672,-0.0003051166422665119
1772699637513221400,4.976221435546875,0.0006277081556618214,0.000566285103559494,-0.002124055754393339
1772699637523178200,4.98617822265625,-0.0016649009194225073,-0.0005565490573644638,0.00020593171939253807
1772699637533135400,4.99613525390625,-0.002832430647686124,0.0014706491492688656,0.00004134839400649071
1772699637543092500,5.006092529296875,-0.002048831433057785,0.002309082541614771,-0.0009673803579062223
1772699637553049300,5.01604931640625,-0.0015098076546564698,0.0016928273253142834,0.0007783216424286366
1772699637563006500,5.02600634765625,-0.0002905786968767643,0.00006899377331137657,0.0009162547066807747
1772699637572963600,5.035963623046875,-0.0016514540184289217,0.0014213467948138714,-0.0009676653426140547
1772699637582920200,5.045920166015625,0.0007236974779516459,-0.0012414203956723213,0.0007101437076926231
1772699637592877300,5.055877197265625,-0.0009514307603240013,-0.00015911180526018143,0.0013596885837614536
1772699637602834400,5.06583447265625,-0.00010915449820458889,-0.0019621020182967186,0.0018864250741899014
1772699637612791600,5.07579150390625,0.00019923970103263855,0.0008046557195484638,-0.00368038029409945
1772699637622749400,5.08574951171875,0.003235762706026435,-0.0017513604834675789,-0.0012533371336758137
1772699637632706300,5.095706298828125,0.0009470421355217695,-0.00040593184530735016,0.0032082567922770977
1772699637642663400,5.105663330078125,-0.00048175500705838203,0.0008351868018507957,-0.002018274273723364
1772699637652620300,5.115620361328125,0.0013734027743339539,0.0008458392694592476,0.0020619546994566917
1772699637662577400,5.125577392578125,0.0006191241554915905,-0.0008462728001177311,-0.00007469579577445984
1772699637672534500,5.135534423828125,-0.00046664662659168243,-0.0010057962499558926,-0.0018845798913389444
1772699637682491600,5.14549169921875,-0.0017242612084373832,-0.0008939872495830059,0.0024354811757802963
1772699637692448300,5.1554482421875,0.0023232109379023314,-0.0009946548379957676,-0.000430879183113575
1772699637702405400,5.1654052734375,0.0016644508577883244,0.002588145900517702,-0.001099089626222849
1772699637712362500,5.175362548828125,0.0003856008406728506,0.0033684526570141315,-0.0018714063335210085
1772699637722319400,5.1853193359375,0.0009224240202456713,0.0003751269541680813,-0.0000026123598217964172
1772699637732276500,5.1952763671875,-0.000807032804004848,0.0007570241577923298,-0.0029872171580791473
1772699637742233600,5.205233642578125,-0.0006179786287248135,0.001273910515010357,0.0008354862220585346
1772699637752190500,5.2151904296875,-0.0013775121187791228,0.0013788389042019844,-0.0013421804178506136
1772699637762147300,5.225147216796875,0.0016359402798116207,-0.00047233328223228455,0.00022039655596017838
1772699637772105500,5.23510546875,0.0008188823703676462,0.0024560783058404922,0.0017458549700677395
1772699637782062600,5.2450625,0.00036495435051620007,0.0027222405187785625,-0.00101435836404562
1772699637792019500,5.25501953125,-0.0003413159865885973,0.0013280757702887058,0.0009880722500383854
1772699637801976300,5.264976318359375,0.0016514419112354517,0.0009392080828547478,-0.002426300197839737
1772699637811933400,5.274933349609375,-0.0024199988692998886,-0.00013324664905667305,-0.00011494243517518044
1772699637821890300,5.284890380859375,-0.0025258506648242474,0.002078781370073557,-0.003005404956638813
1772699637831847400,5.294847412109375,-0.002112794201821089,-0.0010365848429501057,-0.0007369245868176222
1772699637841804500,5.304804443359375,0.00037442450411617756,-0.0006144186481833458,0.0023210635408759117
1772699637851761700,5.31476171875,-0.0002500866539776325,0.0008838754147291183,0.00021503586322069168
1772699637861718500,5.324718505859375,0.0006773918867111206,-0.00032468046993017197,-0.0009027007035911083
1772699637871675400,5.33467529296875,0.0026313532143831253,0.0015661637298762798,-0.00032133283093571663
1772699637881632500,5.344632568359375,0.0038427223917096853,0.00055690947920084,0.0019023842178285122
1772699637891589400,5.35458935546875,0.0012400150299072266,-0.0008827950805425644,0.0005247308872640133
1772699637901546500,5.36454638671875,-0.0008572436636313796,0.0008580368012189865,0.00245088804513216
1772699637911504400,5.37450439453125,0.001057302812114358,-0.0015593147836625576,0.0019843019545078278
1772699637921461500,5.38446142578125,0.0008898312225937843,0.0001806151121854782,0.0015509091317653656
1772699637931418400,5.39441845703125,-0.0021586893126368523,-0.0020766803063452244,0.0005269236862659454
1772699637941375500,5.40437548828125,0.0009243234526365995,0.0012355055660009384,0.0003869212232530117
1772699637951332600,5.41433251953125,-0.0018725282279774547,0.001073585357517004,0.0012306105345487595
1772699637961289500,5.42428955078125,0.0008352119475603104,-0.00157255120575428,0.0006087804213166237
1772699637971246600,5.43424658203125,-0.0012684189714491367,0.0009489296935498714,0.0010010641999542713
1772699637981203500,5.444203369140625,-0.0021071769297122955,-0.0014911121688783169,-0.0030428003519773483
1772699637991160300,5.454160400390625,0.0009807583410292864,0.00004952680319547653,0.0012094690464437008
1772699638001117400,5.464117431640625,-0.0016066997777670622,0.0016044005751609802,-0.0002523348666727543
1772699638011074600,5.474074462890625,0.00207805004902184,0.00038786837831139565,-0.0007069364655762911
1772699638021031400,5.484031494140625,0.000614111078903079,0.00019995169714093208,0.0009709424339234829
1772699638030988500,5.493988525390625,-0.004103945102542639,0.0005778544582426548,-0.0019268430769443512
1772699638040945400,5.5039453125,0.0006488398648798466,-0.0007511693984270096,0.0002488866448402405
1772699638050902300,5.51390234375,0.0010879950132220984,-0.0003407765179872513,-0.0013000078033655882
1772699638060860400,5.5238603515625,0.000767834484577179,-0.0011532297357916832,0.00041891075670719147
1772699638070817500,5.533817626953125,0.0002735517919063568,0.0005210991948843002,0.000819450244307518
1772699638080774700,5.543774658203125,-0.00337232812307775,0.002333393320441246,0.0005157794803380966
1772699638090731300,5.553731201171875,0.0015057837590575218,0.001352551393210888,0.000035877805203199387
1772699638100688400,5.5636884765625,-0.0003119497559964657,-0.0015186253003776073,0.0000950060784816742
1772699638110645500,5.5736455078125,0.000023874687030911446,-0.002175893634557724,-0.0016142104286700487
1772699638120602400,5.583602294921875,-0.0014636066043749452,-0.0018046917393803596,0.00039244210347533226
1772699638130559500,5.5935595703125,0.0030243522487580776,0.00032130954787135124,-0.00027175014838576317
1772699638140516600,5.6035166015625,-0.00018460210412740707,0.003400864079594612,0.0005132639780640602
1772699638150473500,5.613473388671875,0.0018577759619802237,-0.0007584611885249615,0.00184963783249259
1772699638160430300,5.623430419921875,-0.0005268133245408535,0.0005456716753542423,0.0019866926595568657
1772699638170387500,5.633387451171875,-0.002280504908412695,0.00021384190768003464,-0.0005523650906980038
1772699638180344600,5.643344482421875,-0.00022079679183661938,-0.00015117600560188293,-0.0014026460703462362
1772699638190301400,5.653301513671875,0.0013352883979678154,0.001195584423840046,0.0010903389193117619
1772699638200259300,5.66325927734375,0.0016040487680584192,0.000702541321516037,0.0017403503879904747
1772699638210216400,5.673216552734375,-0.00040024612098932266,0.0006218473426997662,-0.0014125658199191093
1772699638220173300,5.68317333984375,-0.0008692854316905141,0.0004696347750723362,-0.00015646405518054962
1772699638230130400,5.69313037109375,-0.0006644884124398232,-0.0011477028019726276,0.002081123646348715
1772699638240087600,5.703087646484375,0.0016598263755440712,-0.0012432858347892761,-0.0008652617689222097
1772699638250044700,5.713044677734375,-0.004612716846168041,0.000851023942232132,-0.0028762146830558777
1772699638260001500,5.72300146484375,0.0011310828849673271,-0.0007294616661965847,0.001021615695208311
1772699638269958400,5.73295849609375,0.0012724967673420906,-0.0005765962414443493,0.004513552412390709
1772699638279915500,5.74291552734375,0.00030163186602294445,-0.00016837427392601967,-0.001648444915190339
1772699638289872400,5.752872314453125,-0.0017599212005734444,-0.0017628087662160397,-0.0006180675700306892
1772699638299829500,5.76282958984375,-0.0019088528351858258,0.003452699165791273,-0.0016135526821017265
1772699638309786600,5.77278662109375,-0.0007059029303491116,-0.00024829572066664696,-0.002441795775666833
1772699638319743500,5.782743408203125,-0.0014203746104612947,0.0017571384087204933,-0.002349741291254759
1772699638329700400,5.792700439453125,-0.00019745109602808952,-0.0010889815166592598,-0.0018988680094480515
1772699638339657500,5.802657470703125,-0.0009820546256378293,0.0013384604826569557,-0.00034398026764392853
1772699638349615600,5.81261572265625,-0.001013479894027114,0.0011062328703701496,-0.0015450657811015844
1772699638359572500,5.822572509765625,0.001191851682960987,0.00045606493949890137,-0.0006665915716439486
1772699638369529600,5.832529541015625,-0.0003194923046976328,-0.00043316464871168137,-0.001444500871002674
1772699638379486500,5.842486572265625,0.002100501675158739,0.001745783258229494,0.00007747765630483627
1772699638389443300,5.852443359375,-0.00029208255000412464,0.00008050864562392235,0.0012109186500310898
1772699638399400400,5.862400390625,0.0020399438217282295,-0.0006458093412220478,-0.0023927465081214905
1772699638409357600,5.872357666015625,-0.0001925842370837927,0.0005169268697500229,0.0005077021196484566
1772699638419314400,5.882314453125,0.00016018212772905827,0.0015613064169883728,-0.0016319204587489367
1772699638429271600,5.892271484375,-0.001778332982212305,0.0003738026134669781,0.0016182013787329197
1772699638439228400,5.902228515625,0.0009961575269699097,0.0007653064094483852,-0.0012260603252798319
1772699638449185300,5.912185302734375,0.00025313557125627995,-0.001318617258220911,-0.0011158054694533348
1772699638459142400,5.922142333984375,-0.0007052721921354532,-0.00010905228555202484,0.00022297631949186325
1772699638469099500,5.932099609375,0.0005211133975535631,0.00013249646872282028,-0.0017419038340449333
1772699638479056400,5.942056396484375,0.00026256171986460686,0.0014858520589768887,0.0003045187331736088
1772699638489013500,5.952013427734375,0.00028093764558434486,-0.0010830331593751907,-0.002339201280847192
1772699638498971400,5.961971435546875,0.0001696334220468998,0.0015232553705573082,-0.0009849651250988245
1772699638508928500,5.971928466796875,0.0011182513553649187,-0.00014228560030460358,0.000058461446315050125
1772699638518885400,5.981885498046875,-0.0010386748472228646,0.0023415079340338707,0.00013127829879522324
1772699638528842500,5.991842529296875,0.0015437924303114414,-0.000196751207113266,0.0008977362886071205
1772699638538799600,6.001799560546875,-0.00031123263761401176,0.0003850562497973442,0.0003345184959471226
1772699638548756500,6.011756591796875,0.0024837551172822714,-0.0007779458537697792,-0.00048546865582466125
1772699638558713300,6.02171337890625,-0.002679028082638979,0.0007329490035772324,-0.004646336194127798
1772699638568670500,6.03167041015625,-0.0009138848399743438,-0.0008790623396635056,0.00010341126471757889
1772699638578627300,6.04162744140625,0.0005901746917515993,0.0011426233686506748,0.0007400219328701496
1772699638588584400,6.05158447265625,-0.001270309672690928,-0.0011397060006856918,0.0021136803552508354
1772699638598541600,6.06154150390625,0.0004646284505724907,-0.0010656439699232578,0.00018817558884620667
1772699638608498700,6.071498779296875,0.00006275763735175133,0.0017423932440578938,0.003525382373481989
1772699638618455300,6.081455322265625,-0.0006253053434193134,-0.0023209808859974146,0.0005556009709835052
1772699638628412400,6.091412353515625,0.00032411166466772556,-0.00007859943434596062,-0.0011807798873633146
1772699638638369500,6.10136962890625,0.0004110126756131649,-0.0006695082411170006,0.001295013353228569
1772699638648327400,6.111327392578125,-0.0008598477579653263,-0.0015696566551923752,0.00002415291965007782
1772699638658284500,6.121284423828125,-0.00032508536241948605,-0.00018317904323339462,0.001366433221846819
1772699638668241400,6.131241455078125,0.0001177983358502388,0.00012894347310066223,-0.0010783486068248749
1772699638678198500,6.141198486328125,-0.0007684138836339116,-0.00010065361857414246,0.00005931500345468521
1772699638688155400,6.1511552734375,0.001089673489332199,-0.0008287616074085236,0.0024010324850678444
1772699638698112500,6.161112548828125,0.003936671651899815,-0.0009291474707424641,-0.0005648480728268623
1772699638708069600,6.171069580078125,0.0011664519552141428,-0.00026495521888136864,0.00006925081834197044
1772699638718026800,6.18102685546875,0.0006454442627727985,-0.0005585886538028717,-0.0017338218167424202
1772699638727983400,6.1909833984375,-0.0005362003576010466,0.001896579284220934,-0.0012760243844240904
1772699638737940500,6.2009404296875,0.00020829378627240658,-0.0027386206202208996,0.0016608508303761482
1772699638747897600,6.210897705078125,0.000626410124823451,0.001958663109689951,-0.0015551825053989887
1772699638757854500,6.2208544921875,0.0002983943559229374,0.0013335486873984337,-0.0025167460553348064
1772699638767811600,6.2308115234375,-0.0007647394668310881,0.0006120982579886913,0.0030500595457851887
1772699638777768700,6.240768798828125,-0.0014089186443015933,-0.0006096186116337776,-0.0023070601746439934
1772699638787725600,6.2507255859375,-0.0006246177945286036,0.003933468367904425,-0.0006148875690996647
1772699638797683500,6.260683349609375,0.0020381328649818897,-0.0003283778205513954,-0.0008821927476674318
1772699638807640600,6.270640625,0.002726826351135969,0.0018229237757623196,0.00025764014571905136
1772699638817597700,6.28059765625,0.0012996452860534191,0.0011951294727623463,-0.00009351596236228943
1772699638827554600,6.290554443359375,0.0015561077743768692,-0.0013665654696524143,-0.003192103700712323
1772699638837511400,6.300511474609375,-0.0012337269727140665,0.0017332835122942924,-0.0017039580270648003
1772699638847468500,6.310468505859375,0.001680037472397089,-0.0002659517340362072,0.0013509541749954224
1772699638857425400,6.32042529296875,-0.0015873467782512307,-0.0001516789197921753,0.002220362890511751
1772699638867382500,6.330382568359375,0.002082755556330085,0.0029152175411581993,0.0035101319663226604
1772699638877339600,6.340339599609375,0.0005858587101101875,0.004999792203307152,-0.004529239144176245
1772699638887296500,6.350296630859375,0.0011485845316201448,0.00019331881776452065,-0.0014082805719226599
1772699638897253600,6.360253662109375,-0.0010558139765635133,0.0013636648654937744,0.0012049851939082146
1772699638907210500,6.37021044921875,0.002300035208463669,0.0005974736995995045,-0.00013325316831469536
1772699638917167600,6.380167724609375,-0.0003704496193677187,0.0015342934057116508,0.0004316577687859535
1772699638927124500,6.39012451171875,0.0014932306949049234,-0.0003863782621920109,-0.0024799765087664127
1772699638937081600,6.40008154296875,0.0019656505901366472,-0.0006445902399718761,-0.0035711985547095537
1772699638947039500,6.41003955078125,-0.0002498333342373371,-0.0010203621350228786,0.001429951749742031
1772699638956996400,6.419996337890625,0.004218393005430698,0.0013398556038737297,-0.0010706163011491299
1772699638966953500,6.429953369140625,0.0005640028975903988,-0.0018386272713541985,-0.0009864603634923697
1772699638976910600,6.43991064453125,-0.0020878235809504986,-0.0010579349473118782,-0.0016158472280949354
1772699638986867700,6.44986767578125,0.0026006712578237057,0.0006709890440106392,0.0025139166973531246
1772699638996824600,6.459824462890625,-0.00042072124779224396,-0.0019393493421375751,0.0002799783833324909
1772699639006781700,6.46978173828125,0.002739119343459606,-0.0029324418865144253,-0.00020471680909395218
1772699639016738600,6.479738525390625,-0.00008773361332714558,0.00018662074580788612,0.0018778583034873009
1772699639026695400,6.4896953125,-0.0012014677049592137,-0.0009553427807986736,0.0032768170349299908
1772699639036652500,6.499652587890625,-0.001241732039488852,-0.0007111276499927044,-0.00004214281216263771
1772699639046609700,6.509609619140625,-0.002634298987686634,-0.0010978183709084988,0.0044572679325938225
1772699639056566500,6.51956640625,-0.0018782825209200382,-0.00253374339081347,-0.00035191653296351433
1772699639066523600,6.529523681640625,0.0004250854253768921,0.00023141643032431602,0.0011389213614165783
1772699639076480500,6.53948046875,-0.0012305895797908306,-0.0016939989291131496,-0.0025156461633741856
1772699639086437400,6.549437255859375,-0.0013829224044457078,-0.0008865287527441978,0.00019811512902379036
1772699639096395500,6.5593955078125,-0.0008888617157936096,-0.0009228959679603577,0.002730189822614193
1772699639106352600,6.5693525390625,-0.0015759572852402925,0.002051854506134987,0.001627907156944275
1772699639116309800,6.579309814453125,-0.002012987621128559,0.0003646756522357464,-0.0023062985856086016
1772699639126266400,6.589266357421875,0.0005782681982964277,0.0003790566697716713,0.0014548837207257748
1772699639136223500,6.599223388671875,0.000750537496060133,-0.0015824856236577034,-0.0022943278308957815
1772699639146180600,6.6091806640625,0.0004549266304820776,-0.0008711549453437328,0.000649530440568924
1772699639156137500,6.619137451171875,-0.0003282562829554081,-0.0017209961079061031,0.0033942237496376038
1772699639166094600,6.629094482421875,-0.0005165417678654194,0.0006492175161838531,-0.0010697671677917242
1772699639176051700,6.6390517578125,-0.0030524125322699547,0.0024625700898468494,-0.0011371993459761143
1772699639186008600,6.649008544921875,-0.0020968704484403133,0.0007482930086553097,-0.0026016714982688427
1772699639195965400,6.65896533203125,-0.0008073765784502029,0.0014806678518652916,-0.002395863411948085
1772699639205922600,6.668922607421875,-0.00009098625741899014,0.0005419035442173481,-0.0010677448008209467
1772699639215879400,6.67887939453125,-0.0012559230672195554,-0.0012678173370659351,0.00027506938204169273
1772699639225836500,6.68883642578125,-0.000514232786372304,0.001329297199845314,-0.0006620972417294979
1772699639235793700,6.698793701171875,-0.0023941758554428816,-0.0014065569266676903,0.0003466005437076092
1772699639245750800,6.708750732421875,0.0011912379413843155,0.0004544602707028389,0.001199344638735056
1772699639255708400,6.71870849609375,0.0012590468395501375,-0.0013712984509766102,0.002281989436596632
1772699639265665500,6.72866552734375,-0.0020097168162465096,0.00005056336522102356,0.0013301754370331764
1772699639275622700,6.73862255859375,0.00018082489259541035,0.0006098076701164246,-0.00037156976759433746
1772699639285579500,6.74857958984375,0.0007512739393860102,0.00027158623561263084,-0.0011374950408935547
1772699639295536600,6.75853662109375,-0.00019926810637116432,0.0006103804334998131,0.003475569188594818
1772699639305493500,6.768493408203125,-0.0011873008916154504,0.00016829557716846466,-0.0016568745486438274
1772699639315450400,6.778450439453125,-0.0004085733089596033,-0.0006454959511756897,0.0004671188071370125
1772699639325407500,6.788407470703125,-0.000597657635807991,0.0007481365464627743,-0.00003169151023030281
1772699639335364600,6.798364501953125,0.0012911316007375717,-0.0013166829012334347,0.003563349135220051
1772699639345321700,6.80832177734375,0.0003968421369791031,0.0003200960345566273,-0.0016583108808845282
1772699639355278600,6.818278564453125,-0.0006130009423941374,-0.0024238189216703176,0.0009596222080290318
1772699639365235500,6.8282353515625,0.00039101066067814827,-0.0013636145740747452,0.0012517706491053104
1772699639375192600,6.838192626953125,-0.0016438558232039213,0.00070622144266963,-0.0005153990350663662
1772699639385149400,6.8481494140625,0.0001748169306665659,-0.00439426489174366,0.004580027423799038
1772699639395107600,6.858107666015625,-0.00046674488112330437,0.00030146120116114616,0.001512708142399788
1772699639405064700,6.868064697265625,-0.0018182992935180664,-0.0013925754465162754,-0.0015323502011597157
1772699639415021600,6.878021484375,-0.00010410952381789684,-0.0013591377064585686,0.0011437037028372288
1772699639424978400,6.887978515625,-0.0007062503136694431,0.0008912333287298679,-0.004836424253880978
1772699639434935600,6.897935546875,-0.00006048684008419514,-0.0013858615420758724,-0.0014444033149629831
1772699639444892700,6.907892578125,0.000844455324113369,-0.0001504211686551571,0.0017388733103871346
1772699639454849500,6.917849609375,-0.00048110238276422024,-0.003457265207543969,0.001977204345166683
1772699639464806700,6.927806640625,0.002316015539690852,-0.00017385371029376984,0.00018356554210186005
1772699639474763500,6.937763427734375,-0.000194840831682086,0.0026659327559173107,-0.0005059144459664822
1772699639484720400,6.947720458984375,-0.0005831297021359205,0.0017548645846545696,0.0018123672343790531
1772699639494677500,6.957677490234375,0.00009710411541163921,-0.0014240606687963009,-0.0013974255416542292
1772699639504634600,6.967634521484375,0.0018715683836489916,0.00028595514595508575,0.00027290917932987213
1772699639514591500,6.977591552734375,-0.00005836901254951954,-0.0016238410025835037,0.000055491458624601364
1772699639524548600,6.987548583984375,-0.0003108368255198002,0.00014849239960312843,-0.002946689957752824
1772699639534505700,6.997505615234375,0.0009697903878986835,-0.0003506522625684738,-0.0009031002409756184
1772699639544462300,7.00746240234375,0.0017213344108313322,-0.004215697757899761,0.00018426822498440742
1772699639554420500,7.01742041015625,0.0004065625835210085,-0.00033222977072000504,0.0013286960311233997
1772699639564377600,7.027377685546875,0.0007381262257695198,0.0004672515206038952,0.0010855491273105145
1772699639574334700,7.037334716796875,-0.0001772476825863123,-0.0001378096640110016,-0.0014388500712811947
1772699639584291600,7.04729150390625,-0.00014369189739227295,0.0004249163903295994,0.0003622458316385746
1772699639594248400,7.05724853515625,-0.0017990136984735727,-0.002127374056726694,0.00009423866868019104
1772699639604205600,7.06720556640625,0.0017648283392190933,-0.0011920719407498837,-0.00044212164357304573
1772699639614162400,7.077162353515625,-0.0011677105212584138,0.0014161099679768085,0.0017792624421417713
1772699639624119600,7.08711962890625,0.0018323403783142567,0.0005583059974014759,-0.0021734011825174093
1772699639634076700,7.09707666015625,0.0007707232143729925,-0.0011755111627280712,0.0001505301333963871
1772699639644033500,7.107033447265625,0.00050760293379426,0.0003914930857717991,0.00003494881093502045
1772699639653990400,7.116990478515625,0.0012802251148968935,0.000468189362436533,0.00021868757903575897
1772699639663947500,7.126947509765625,-0.0023275590501725674,-0.0003371504135429859,-0.0006436440162360668
1772699639673904600,7.136904541015625,0.00019581126980483532,-0.0012508546933531761,0.0001968061551451683
1772699639683861500,7.146861572265625,0.001498363446444273,-0.002104930579662323,0.0015225275419652462
1772699639693818400,7.156818359375,0.0026325213257223368,0.00028161611407995224,0.0008436623029410839
1772699639703775500,7.166775390625,0.0002876080106943846,-0.001284855417907238,-0.0013302762527018785
1772699639713733000,7.176733154296875,0.000729462131857872,-0.000757554080337286,0.0035224957391619682
1772699639723690200,7.186690185546875,-0.00006495881825685501,-0.0006821868009865284,0.0015831817872822285
1772699639733647400,7.1966474609375,0.0012451389338821173,-0.0015344596467912197,0.0013304236344993114
1772699639743604200,7.206604248046875,-0.0042510926723480225,-0.00008969474583864212,-0.00236311461776495
1772699639753561300,7.216561279296875,0.00014386768452823162,-0.002309772651642561,0.0001538391225039959
1772699639763518200,7.226518310546875,0.0010125909466296434,-0.0021169595420360565,-0.0025074577424675226
1772699639773475300,7.236475341796875,-0.0026522064581513405,-0.0009574964642524719,-0.0007484960369765759
1772699639783432200,7.24643212890625,-0.00020076660439372063,-0.0012648249976336956,0.00045525282621383667
1772699639793389300,7.256389404296875,0.0013146332930773497,-0.0020747827365994453,0.0009154831059277058
1772699639803346400,7.266346435546875,0.0027242444921284914,-0.0021450906060636044,0.00028111832216382027
1772699639813303300,7.27630322265625,0.00196307641454041,0.0002687019295990467,-0.00042613502591848373
1772699639823260400,7.286260498046875,0.001442162087187171,-0.0010101483203470707,0.0011592446826398373
1772699639833217300,7.29621728515625,0.000048612942919135094,-0.0007595643401145935,0.00005637994036078453
1772699639843174100,7.306174072265625,0.0008946992456912994,-0.00046768179163336754,-0.0016203464474529028
1772699639853131300,7.31613134765625,-0.0016156852943822742,-0.0010173637419939041,0.0004208683967590332
1772699639863089400,7.32608935546875,0.0005380131769925356,-0.0013670367188751698,0.0006688088178634644
1772699639873046300,7.33604638671875,0.00019904924556612968,0.0011084717698395252,-0.001976549159735441
1772699639883003100,7.346003173828125,0.00018813041970133781,0.0012970236130058765,-0.00583307258784771
1772699639892960300,7.355960205078125,-0.0013677041279152036,-0.00007452955469489098,-0.0009712553583085537
1772699639902917400,7.36591748046875,-0.0012912714155390859,0.0007606376893818378,0.0003033336251974106
1772699639912874200,7.375874267578125,-0.001731616212055087,0.0012100464664399624,-0.00020871823653578758
1772699639922831400,7.385831298828125,-0.0019372121896594763,0.0005905954167246819,-0.001460137777030468
1772699639932788500,7.39578857421875,-0.0009269948350265622,-0.0013822028413414955,-0.00010718684643507004
1772699639942745000,7.4057451171875,-0.0016053019789978862,-0.000443438533693552,0.0008195932023227215
1772699639952702200,7.4157021484375,0.00008244696073234081,-0.00003839004784822464,0.0005422644317150116
1772699639962659300,7.425659423828125,0.0014116305392235518,-0.0013417410664260387,0.0030618812888860703
1772699639972616200,7.4356162109375,-0.001060598879121244,-0.000059267040342092514,-0.002438476774841547
1772699639982573300,7.4455732421875,-0.000292543089017272,0.0000773528590798378,0.000049182213842868805
1772699639992530400,7.455530517578125,0.0004930694121867418,0.0015140622854232788,0.0012922692112624645
1772699640002487300,7.4654873046875,-0.0008387775160372257,-0.0018694838508963585,0.00037827249616384506
1772699640012444200,7.475444091796875,-0.0008409833535552025,-0.0026870211586356163,-0.0008061120752245188
1772699640022402300,7.48540234375,-0.0008207433857023716,0.0007894695736467838,0.002590749878436327
1772699640032359400,7.495359375,-0.002351866802200675,-0.002204218879342079,0.0014107641763985157
1772699640042316300,7.50531640625,0.00003885291516780853,-0.001442022155970335,0.0022299522534012794
1772699640052273200,7.515273193359375,-0.0027623071800917387,-0.00035118265077471733,-0.00027600303292274475
1772699640062230300,7.525230224609375,-0.0009172691497951746,0.0015127640217542648,-0.0007170224562287331
1772699640072187100,7.535187255859375,-0.0006137692835181952,-0.0024460407439619303,0.0023147957399487495
1772699640082144300,7.545144287109375,0.0001942336093634367,0.0003827689215540886,0.001990689430385828
1772699640092101400,7.555101318359375,-0.00041266996413469315,0.0005742092616856098,0.00042158225551247597
1772699640102058500,7.56505859375,-0.0002020138781517744,-0.0014423364773392677,-0.00582459568977356
1772699640112015400,7.575015380859375,-0.0005329796113073826,-0.0007775751873850822,0.0013318909332156181
1772699640121972200,7.58497216796875,-0.0017415221082046628,0.0012602759525179863,0.0005529164336621761
1772699640131929300,7.594929443359375,-0.001148852868936956,-0.0011284640058875084,-0.00157180055975914
1772699640141886200,7.60488623046875,0.00015609594993293285,-0.00034789135679602623,-0.0038168453611433506
1772699640151843300,7.61484326171875,-0.0027154083363711834,0.0017215535044670105,0.0017956839874386787
1772699640161800400,7.624800537109375,-0.00010764109902083874,0.0005809222348034382,0.0004976592026650906
1772699640171757300,7.63475732421875,-0.0020727161318063736,-0.0008166409097611904,0.000060135964304208755
1772699640181715200,7.644715087890625,-0.0009840158745646477,-0.001156992744654417,0.002916109748184681
1772699640191672300,7.65467236328125,0.0016910068225115538,-0.0009353659115731716,0.002081036102026701
1772699640201629400,7.66462939453125,0.001359177054837346,-0.0007771742530167103,-0.00018105283379554749
1772699640211586300,7.67458642578125,-0.0021437329705804586,-0.00024294061586260796,-0.0002119564451277256
1772699640221543400,7.68454345703125,-0.0008094892837107182,0.0012439023703336716,-0.0015587168745696545
1772699640231500300,7.694500244140625,0.0011758976615965366,0.002082479652017355,0.002129383385181427
1772699640241457200,7.70445703125,0.0008986624889075756,-0.00027894508093595505,0.00018021557480096817
1772699640251414300,7.714414306640625,0.000984415877610445,-0.0004302230663597584,0.00010126177221536636
1772699640261371400,7.724371337890625,0.0005769522394984961,-0.0012922883033752441,-0.0007349709048867226
1772699640271328300,7.734328369140625,-0.0006738733500242233,-0.003536306554451585,-0.0012650766875594854
1772699640281285400,7.744285400390625,-0.0007436482701450586,0.0016784286126494408,0.0017392351292073727
1772699640291242200,7.7542421875,0.00024927500635385513,0.0015117996372282505,0.0010130354203283787
1772699640301199000,7.76419921875,0.0017201390583068132,-0.0003252485767006874,-0.00009483937174081802
1772699640311156200,7.77415625,0.0008939537219703197,0.0025087837129831314,-0.0006395915988832712
1772699640321113300,7.78411328125,0.002654036972671747,-0.0023932966869324446,0.0015055849216878414
1772699640331070200,7.7940703125,0.0007036777678877115,0.000027650967240333557,-0.0005562244914472103
1772699640341028000,7.804028076171875,0.001858424162492156,0.00018610898405313492,-0.0014622320886701345
1772699640350985200,7.813985107421875,0.001053906511515379,0.0004807012155652046,0.0034897965379059315
1772699640360942300,7.8239423828125,0.0011063707061111927,0.0002695121802389622,-0.0025752861984074116
1772699640370899200,7.833899169921875,0.0035096958745270967,0.0014476575888693333,0.0011949362233281136
1772699640380856300,7.843856201171875,-0.0016933217411860824,0.003333175554871559,0.0017137201502919197
1772699640390813400,7.8538134765625,-0.00016004336066544056,0.0008707894012331963,0.0005577127449214458
1772699640400770300,7.863770263671875,0.0005864405538886786,0.00004148110747337341,0.0013654492795467377
1772699640410727200,7.87372705078125,-0.0003579885233193636,-0.0011923611164093018,-0.0018907689955085516
1772699640420684300,7.883684326171875,0.003042335622012615,-0.001625923439860344,0.003748474642634392
1772699640430641400,7.893641357421875,0.0017501851543784142,0.000056230463087558746,-0.000023297499865293503
1772699640440598300,7.903598388671875,-0.0008714307332411408,0.0009497208520770073,-0.0004890845157206059
1772699640450555400,7.913555419921875,-0.0011007972061634064,-0.001645783893764019,0.0015016873367130756
1772699640460512500,7.923512451171875,0.0009389177430421114,-0.0035265081096440554,0.00029713986441493034
1772699640470469000,7.93346923828125,-0.0011955145746469498,0.0008007027208805084,-0.004985753446817398
1772699640480426200,7.94342626953125,-0.0005691391415894032,-0.0016299644485116005,0.0004883743822574615
1772699640490383400,7.95338330078125,-0.0025991902220994234,-0.0007642423734068871,0.0008961153216660023
1772699640500341500,7.963341552734375,0.0003846152685582638,-0.0020108683966100216,0.002560324501246214
1772699640510298400,7.97329833984375,0.0019202625844627619,0.0012884228490293026,0.0019413954578340054
1772699640520255200,7.983255126953125,-0.0005743203219026327,-0.00029456010088324547,0.0005000927485525608
1772699640530212400,7.99321240234375,-0.0019720816053450108,0.0002543888986110687,0.0003691427409648895
1772699640540169200,8.003169189453125,-0.00034595560282468796,-0.00011605676263570786,-0.0008963914588093758
1772699640550126300,8.013126220703125,-0.000982381054200232,-0.0001384485512971878,-0.000709563260897994
1772699640560083500,8.02308349609375,0.0018914362881332636,-0.0011642980389297009,-0.001384940929710865
1772699640570040300,8.033040283203125,0.0005610205698758364,0.0002623400650918484,0.000800836831331253
1772699640579997200,8.0429970703125,-0.0003585689701139927,-0.00031023984774947166,-0.000672690337523818
1772699640589954300,8.052954345703125,-0.0007858567405492067,-0.0012471042573451996,-0.0035914790350943804
1772699640599911200,8.0629111328125,-0.0019712296780198812,0.0003750268369913101,-0.0008505536243319511
1772699640609868300,8.072868408203124,-0.00006325077265501022,-0.0008567813783884048,-0.000017199665307998657
1772699640619825400,8.082825439453124,-0.0014401051448658109,-0.0017236405983567238,0.00019745109602808952
1772699640629782300,8.0927822265625,-0.001160932588391006,-0.0003850259818136692,0.002878743689507246
1772699640639739400,8.102739501953126,0.00010247109457850456,0.00028049806132912636,0.00024114875122904778
1772699640649696300,8.1126962890625,0.0007169288583099842,0.0014555677771568298,0.0008432338945567608
1772699640659653000,8.122653076171876,0.001823472324758768,-0.0023546169977635145,-0.0002483958378434181
1772699640669611300,8.132611328125,0.00024869805201888084,-0.0003940868191421032,0.0021799090318381786
1772699640679568400,8.142568359375,-0.00022001820616424084,0.0007140543311834335,-0.000043297652155160904
1772699640689525200,8.152525146484376,0.00019603525288403034,-0.0005722986534237862,-0.001555431867018342
1772699640699482600,8.162482666015626,-0.0017254354897886515,0.0011611529625952244,-0.000137298833578825
1772699640709439500,8.172439453125,-0.0011495247017592192,0.0001964443363249302,-0.00041036587208509445
1772699640719396600,8.182396728515625,-0.0005780102219432592,0.0003378582186996937,-0.0016612526960670948
1772699640729353700,8.192353759765625,-0.00003297533839941025,-0.001410127617418766,0.0021348395384848118
1772699640739310600,8.202310546875,-0.0008337877225130796,-0.0010458072647452354,-0.0006063524633646011
1772699640749267500,8.212267333984375,-0.0004055965691804886,-0.00033968687057495117,0.0012730867601931095
1772699640759224600,8.222224609375,0.0002159851137548685,0.0005870931781828403,-0.0008169617503881454
1772699640769181400,8.232181396484375,-0.0008355022873729467,-0.0007349150255322456,0.001914947759360075
1772699640779138600,8.242138671875,-0.0005303039215505123,0.0007742983289062977,0.00015992484986782074
1772699640789095700,8.252095703125,0.000057128025218844414,0.000611371360719204,0.00010779406875371933
1772699640799052500,8.262052490234375,-0.0000738995149731636,0.00014744838699698448,-0.00491013377904892
1772699640809009700,8.272009765625,-0.0007648891769349575,0.001627934630960226,-0.0018188075628131628
1772699640818967600,8.281967529296875,0.0004465829115360975,-0.000962521880865097,0.0013716593384742737
1772699640828924700,8.291924560546875,0.0007910153362900019,0.00041440781205892563,-0.0021609687246382236
1772699640838881500,8.301881591796874,-0.0031627134885638952,0.0015694210305809975,-0.00034256232902407646
1772699640848838700,8.311838623046874,-0.00021973485127091408,-0.0014517628587782383,-0.001800523605197668
1772699640858795500,8.32179541015625,-0.002224296098574996,-0.000760938972234726,0.0017153816297650337
1772699640868752400,8.33175244140625,-0.0012346850708127022,-0.0013867337256669998,-0.0022217147052288055
1772699640878709500,8.34170947265625,0.00022019981406629086,0.0009360755793750286,0.000631330069154501
1772699640888666600,8.35166650390625,-0.00015198416076600552,-0.00006613461300730705,-0.002654376905411482
1772699640898623700,8.361623779296876,-0.0010449420660734177,-0.00025335513055324554,0.00290870014578104
1772699640908580600,8.37158056640625,-0.002833352191373706,0.002484292257577181,-0.0030693470034748316
1772699640918537700,8.381537841796876,-0.002152914647012949,-0.002785837510600686,0.0013941111974418163
1772699640928494600,8.39149462890625,-0.0008338467450812459,-0.00030009541660547256,0.0013459301553666592
1772699640938451500,8.401451416015625,-0.00286290911026299,0.0007667667232453823,-0.00028019631281495094
1772699640948408600,8.41140869140625,-0.002116960007697344,-0.0014307987876236439,-0.0014970132615417242
1772699640958365700,8.42136572265625,0.0008966729510575533,-0.0007295883260667324,0.001250570174306631
1772699640968322600,8.431322509765625,-0.0022647997830063105,-0.002347023459151387,-0.00009907176718115807
1772699640978279700,8.44127978515625,-0.000037065474316477776,-0.0005054473876953125,0.0019222674891352654
1772699640988237600,8.451237548828125,0.00018434529192745686,-0.001263475976884365,0.0027533015236258507
1772699640998194700,8.461194580078125,-0.0028271570336073637,0.001076376996934414,-0.0007338416762650013
1772699641008151600,8.471151611328125,0.00024296389892697334,0.0003031296655535698,-0.0021427429746836424
1772699641018108700,8.481108642578125,-0.002935785101726651,-0.0004196520894765854,0.0009140335023403168
1772699641028065800,8.491065673828125,-0.00048666982911527157,0.00019968440756201744,-0.0028772298246622086
1772699641038022400,8.5010224609375,-0.0001897274050861597,-0.00001416727900505066,0.0019492167048156261
1772699641047979500,8.5109794921875,-0.002863766625523567,0.0006347796879708767,0.0009926948696374893
1772699641057936600,8.5209365234375,-0.00037770578637719154,0.001114681363105774,0.0012110741809010506
1772699641067893500,8.5308935546875,0.00008294289000332355,-0.0008060461841523647,0.0007744603790342808
1772699641077850600,8.5408505859375,-0.0020718208979815245,-0.001867049839347601,0.0011057574301958084
1772699641087807700,8.550807861328124,0.0005019535310566425,0.0016186409629881382,-0.00266166846267879
1772699641097764600,8.5607646484375,0.0000393623486161232,-0.00033798348158597946,-0.0013220985420048237
1772699641107721500,8.570721435546876,-0.0012586802477017045,-0.0008971826173365116,-0.00045294221490621567
1772699641117678600,8.5806787109375,-0.0004879613406956196,-0.0029190543573349714,0.00004453631117939949
1772699641127635500,8.590635498046876,-0.001062507159076631,-0.0003431839868426323,-0.0007041345816105604
1772699641137592600,8.600592529296875,-0.001369037083350122,0.0012656315229833126,-0.0014194597024470568
1772699641147549700,8.6105498046875,0.0011751244310289621,-0.00033905310556292534,-0.000236602034419775
1772699641157507600,8.620507568359375,0.00002650311216711998,-0.00040110480040311813,-0.0005529853515326977
1772699641167464400,8.63046435546875,0.0028296897653490305,-0.0009043901227414608,0.00035097263753414154
1772699641177421600,8.640421630859375,-0.00022255931980907917,-0.00013819849118590355,-0.00031881220638751984
1772699641187378700,8.650378662109375,0.0005252000410109758,-0.001614509616047144,0.000449946615844965
1772699641197335600,8.66033544921875,0.000017335405573248863,0.0008174888789653778,0.0006765816360712051
1772699641207292700,8.670292724609375,-0.001865603495389223,0.0007599983364343643,0.0010027866810560226
1772699641217249500,8.68024951171875,-0.0006211083382368088,0.0016657398082315922,-0.00011174613609910011
1772699641227206700,8.69020654296875,0.001728365197777748,-0.0009263367392122746,-0.0016013788990676403
1772699641237163500,8.70016357421875,0.0003901268355548382,0.0010886108502745628,0.0013504689559340477
1772699641247120600,8.71012060546875,0.000635569216683507,0.0003401706926524639,0.0012038098648190498
1772699641257077800,8.720077880859375,-0.003051044652238488,-0.00028460659086704254,0.0018999604508280754
1772699641267034600,8.73003466796875,-0.002160351723432541,0.0006482275202870369,-0.0005763680674135685
1772699641276991500,8.739991455078124,-0.0027510407380759716,0.0015286686830222607,-0.0010690530762076378
1772699641286948600,8.749948486328124,-0.0002562913578003645,0.0014763292856514454,0.003446396440267563
1772699641296905500,8.759905517578124,-0.0021988009102642536,-0.0014643329195678234,0.00041412096470594406
1772699641306862600,8.769862548828126,-0.0010630101896822453,-0.0004259874112904072,-0.0008565611205995083
1772699641316819700,8.77981982421875,-0.001739985658787191,-0.0005010883323848248,0.0011495980434119701
1772699641326777600,8.789777587890624,-0.002805673284456134,0.0012561380863189697,0.0011258828453719616
1772699641336734500,8.799734375,-0.000889528775587678,0.0004966044798493385,0.001317630521953106
1772699641346691600,8.809691650390626,-0.0003290809690952301,-0.002097407355904579,0.0006442666053771973
1772699641356648700,8.819648681640626,-0.0017528068274259567,-0.00034291669726371765,0.0011055259965360165
1772699641366605600,8.82960546875,-0.00036382232792675495,-0.0003878851421177387,-0.0009984357748180628
1772699641376562700,8.839562744140625,-0.0020360213238745928,-0.0011729849502444267,-0.0012391854543238878
1772699641386519600,8.84951953125,0.0020082807168364525,-0.0006998451426625252,0.0013036346063017845
1772699641396476400,8.859476318359375,0.0010777723509818316,-0.0008487161248922348,-0.0004591112956404686
1772699641406433500,8.86943359375,0.0002336949110031128,-0.00021232198923826218,-0.001435977639630437
1772699641416390700,8.879390625,-0.0018957688007503748,0.0016255252994596958,0.0007400913164019585
1772699641426347500,8.889347412109375,0.0004733521491289139,-0.00008845236152410507,-0.00042769452556967735
1772699641436304600,8.8993046875,0.00221053184941411,0.0012255515903234482,-0.0025694083888083696
1772699641446261800,8.90926171875,-0.000876904116012156,0.0013043535873293877,-0.00009828200563788414
1772699641456218400,8.91921826171875,-0.0023392459843307734,0.003486547153443098,-0.0039018085226416588
1772699641466175500,8.929175537109375,0.0010024129878729582,-0.0007868753746151924,-0.0007584760896861553
1772699641476132600,8.939132568359375,0.0008777771145105362,-0.00039405934512615204,0.005616066046059132
1772699641486090800,8.9490908203125,0.0005283462814986706,0.001465043518692255,0.0014609131030738354
1772699641496047600,8.959047607421875,-0.0018450628267601132,0.0036618849262595177,-0.0016200977843254805
1772699641506004500,8.96900439453125,-0.000474375206977129,0.00025093602016568184,-0.0005184025503695011
1772699641515961600,8.978961669921874,0.000620983075350523,0.0008967528119683266,0.0027429047040641308
1772699641525918500,8.98891845703125,-0.0006004704628139734,0.0011297622695565224,-0.0013529043644666672
1772699641535875600,8.99887548828125,0.0017500356771051884,-0.0011251363903284073,-0.0005150740034878254
1772699641545832700,9.008832763671874,-0.001078216708265245,-0.00018874602392315865,-0.0021693871822208166
1772699641555789800,9.018789794921876,0.0005031682085245848,0.00007437402382493019,0.001252508256584406
1772699641565746400,9.028746337890626,0.0004764567129313946,-0.0013558831997215748,-0.0006139068864285946
1772699641575703600,9.03870361328125,0.0011723409406840801,0.0003424147143959999,0.003318783361464739
1772699641585660700,9.04866064453125,-0.0020279022864997387,-0.00320496316999197,-0.0014638944994658232
1772699641595617500,9.058617431640625,0.0025460768956691027,0.0019264155998826027,0.0011888802982866764
1772699641605574700,9.06857470703125,-0.0016771184746176004,0.0017355135641992092,-0.003383684903383255
1772699641615531800,9.07853173828125,0.0006464894395321608,0.000202864408493042,-0.0003095977008342743
1772699641625488600,9.088488525390625,0.0011218246072530746,-0.0012596137821674347,-0.0025843274779617786
1772699641635445500,9.098445556640625,-0.0006137574091553688,-0.0003807707689702511,-0.002805902622640133
1772699641645402600,9.108402587890625,0.0007818189915269613,-0.0012172018177807331,0.0013105841353535652
1772699641655360800,9.11836083984375,-0.00022352440282702446,0.0008214479312300682,0.0014384160749614239
1772699641665317600,9.128317626953125,-0.0002799001522362232,-0.000024495646357536316,-0.0014111197087913752
1772699641675274500,9.1382744140625,0.0013049468398094177,0.00036725541576743126,0.0016107694245874882
1772699641685231600,9.148231689453125,-0.0006951279938220978,0.000032256823033094406,-0.0013109720312058926
1772699641695188000,9.15818798828125,-0.0004602372646331787,0.002500474452972412,-0.0028678560629487038
1772699641705145000,9.16814501953125,-0.0006967131048440933,0.000735296867787838,0.0012125181965529919
1772699641715102000,9.17810205078125,0.002104399725794792,-0.001400824636220932,0.0031033623963594437
1772699641725059000,9.18805908203125,0.0014034267514944077,0.002611575648188591,-0.0017569656483829021
1772699641735016200,9.19801611328125,0.00007078074850142002,-0.0011030016466975212,0.0015107332728803158
1772699641744973000,9.20797314453125,-0.0006597591564059258,-0.0012539331801235676,0.0005345107056200504
1772699641754930000,9.217929931640626,0.0009570459369570017,-0.0014595291577279568,0.0006559509783983231
1772699641764887000,9.227886962890626,0.002629186725243926,-0.0027717058546841145,-0.00007772166281938553
1772699641774844000,9.237843994140626,-0.0014262747718021274,0.00016149971634149551,-0.0011581659782677889
1772699641784801000,9.247801025390626,-0.002948240377008915,-0.00037240562960505486,-0.002431265776976943
1772699641794758100,9.257758056640625,-0.0015186554519459605,-0.000021134503185749054,0.0012899693101644516
1772699641804715300,9.26771533203125,-0.0013029638212174177,-0.000330920796841383,0.0015704948455095291
1772699641814672000,9.277671875,0.0037727546878159046,0.0004062424413859844,-0.0007302099838852882
1772699641824630000,9.287630126953125,-0.00021679350174963474,-0.001449740957468748,-0.0017868282739073038
1772699641834587100,9.297587158203125,-0.00047778314910829067,0.0005838489159941673,0.0014169546775519848
1772699641844544000,9.3075439453125,0.0005098057445138693,-0.0021272986195981503,0.00008274149149656296
1772699641854501000,9.317501220703125,0.001883464166894555,0.0015507927164435387,-0.0014461793471127748
1772699641864458000,9.3274580078125,0.0003623431548476219,0.00022231042385101318,0.000928227324038744
1772699641874415000,9.3374150390625,-0.001077894470654428,-0.0019252626225352287,0.0005452646873891354
1772699641884372000,9.3473720703125,0.0002309184055775404,-0.0035579423420131207,0.0021558855660259724
1772699641894329000,9.3573291015625,0.0014000460505485535,-0.0023246323689818382,0.00006290711462497711
1772699641904286200,9.3672861328125,-0.0006951228715479374,0.0022874469868838787,-0.001002792501822114
1772699641914243000,9.3772431640625,-0.0009667653357610106,-0.0005299109034240246,-0.0012134485878050327
1772699641924200000,9.387199951171874,0.0008202528115361929,0.000731281004846096,0.0005903090350329876
1772699641934157000,9.397156982421874,-0.0016538238851353526,0.0013962723314762115,-0.00017668167129158974
1772699641944114000,9.407114013671874,0.0011510166805237532,0.00034350575879216194,-0.003648435929790139
1772699641954071000,9.417071044921874,0.0007038719486445189,-0.0011750287376344204,-0.0013922059442847967
1772699641964028200,9.427028076171876,0.0003750512842088938,-0.002567312680184841,0.002074700314551592
1772699641973985000,9.436985107421876,-0.00036211172118782997,-0.00005035893991589546,0.0007572346366941929
1772699641983942100,9.446942138671876,-0.00023476174101233482,0.0006058258004486561,-0.001645735464990139
1772699641993899000,9.45689892578125,0.0017487609293311834,0.00006280746310949326,0.002907471265643835
1772699642003857200,9.466857177734376,-0.00018081208691000938,-0.00016189878806471825,0.003140061628073454
1772699642013814000,9.47681396484375,-0.004271161276847124,0.000613081268966198,-0.0009231229778379202
1772699642023771100,9.486771240234376,-0.00024983473122119904,0.0013932883739471436,0.0005013179033994675
1772699642033728000,9.49672802734375,-0.000004025176167488098,0.00012136297300457954,-0.0010680826380848885
1772699642043684900,9.506684814453125,0.0016001011244952679,0.0005220100283622742,-0.002424035221338272
1772699642053642000,9.51664208984375,-0.0019946335814893246,-0.0008902642875909805,0.0009195632301270962
1772699642063599000,9.52659912109375,-0.0014413028256967664,0.0026239915750920773,0.0015177419409155846
1772699642073556000,9.536555908203125,0.002143844496458769,-0.00020907865837216377,0.0016130832955241203
1772699642083513000,9.54651318359375,-0.0017929624300450087,-0.0017667296342551708,0.00236787972971797
1772699642093470200,9.55647021484375,0.0001732492819428444,0.0001723179593682289,-0.002260960638523102
1772699642103426800,9.5664267578125,-0.0029808341059833765,0.0005230139940977097,0.0002175886183977127
1772699642113384000,9.576384033203125,-0.00043458561412990093,-0.0007545044645667076,0.000027704983949661255
1772699642123341000,9.586341064453125,0.0022577710915356874,-0.0014752107672393322,-0.0006632390432059765
1772699642133298200,9.596298095703125,0.0006580101326107979,-0.000727661419659853,-0.000783880241215229
1772699642143255000,9.606255126953124,0.0013975687325000763,0.0012876461260020733,-0.0007209861651062965
1772699642153212200,9.616212158203124,0.001968816854059696,-0.0005858875811100006,0.0009781108237802982
1772699642163169000,9.6261689453125,-0.0007966143311932683,0.0016306638717651367,0.002354405354708433
1772699642173127000,9.636126953125,0.0006311063189059496,-0.00005857925862073898,0.00028219958767294884
1772699642183084000,9.646083984375,-0.002672256203368306,0.0033619720488786697,0.0020946147851645947
1772699642193041200,9.656041259765624,0.003006934653967619,0.0003906828351318836,0.00013745762407779694
1772699642202998300,9.665998291015624,-0.0011995063396170735,-0.00041333911940455437,0.00488494336605072
1772699642212955000,9.675954833984376,-0.0002199956215918064,-0.00047139590606093407,0.0005048420280218124
1772699642222912000,9.685912109375,-0.0010103171225637197,-0.002320715691894293,0.0020826291292905807
1772699642232869000,9.695869140625,0.00024429801851511,-0.0007057748734951019,0.0009912657551467419
1772699642242826000,9.705825927734375,-0.0011347356485202909,-0.0006934953853487968,0.0003273114562034607
1772699642252783000,9.715783203125,-0.0010923913214355707,-0.0004436909221112728,0.0004554097540676594
1772699642262740200,9.725740234375,-0.0011506789596751332,0.0005523106083273888,0.0004428406246006489
1772699642272697000,9.735697021484375,-0.0016862406628206372,-0.0001265294849872589,-0.001434421632438898
1772699642282654000,9.745654052734375,0.00005277222953736782,0.0030985777266323566,-0.00032540271058678627
1772699642292611000,9.755611083984375,-0.0006849232595413923,0.0025481018237769604,-0.0008367295376956463
1772699642302568000,9.76556787109375,-0.0002705738879740238,-0.0019852658733725548,0.0031201872043311596
1772699642312525000,9.775525146484375,-0.000022100750356912613,0.002398564014583826,-0.0025353014934808016
1772699642322482200,9.785482177734375,-0.0024205148220062256,0.001390497200191021,0.0020235185511410236
1772699642332439000,9.79543896484375,-0.00020742788910865784,-0.00032963836565613747,0.0020192572847008705
1772699642342397000,9.80539697265625,0.0007551410235464573,-0.0008048601448535919,0.00042411917820572853
1772699642352354000,9.81535400390625,-0.002054760232567787,-0.0004932703450322151,-0.00166592956520617
1772699642362311200,9.825311279296875,0.0015302055981010199,-0.0002212096005678177,-0.0024297204799950123
1772699642372268000,9.83526806640625,-0.0006977950688451529,-0.0021453434601426125,0.003377835266292095
1772699642382225200,9.84522509765625,-0.0009519328596070409,0.0013374369591474533,-0.0009372972417622805
1772699642392182000,9.85518212890625,-0.00039852806366980076,0.0014599421992897987,-0.0014313135761767626
1772699642402139000,9.865138916015624,-0.0010038858745247126,0.0006244340911507607,-0.0005904464051127434
1772699642412096000,9.875095947265624,-0.00018682796508073807,0.0018470915965735912,0.0007368731312453747
1772699642422053000,9.88505322265625,0.0008783387020230293,-0.0006532808765769005,-0.0010569109581410885
1772699642432010000,9.895010009765626,0.0023353539872914553,-0.0007784492336213589,-0.0004896577447652817
1772699642441967000,9.904967041015626,-0.00015519093722105026,0.0038558882661163807,0.0006472370587289333
1772699642451924000,9.914924072265626,-0.000624706270173192,0.00017832964658737183,-0.0031224675476551056
1772699642461881000,9.924881103515625,-0.0007518951315432787,-0.0006614751182496548,0.001491800881922245
1772699642471838000,9.934837890625,-0.0028906797524541616,-0.0005581444129347801,0.0009663593955338001
1772699642481795000,9.944795166015625,-0.0018469616770744324,0.0006611091084778309,-0.0016740900464355946
1772699642491752200,9.954752197265625,0.0006247181445360184,0.0015772366896271706,0.0017856224440038204
1772699642501709000,9.964708984375,-0.0003123898059129715,-0.00045946845784783363,0.00009557977318763733
1772699642511666200,9.974666259765625,0.002645583124831319,0.0002771615982055664,0.0003496455028653145
1772699642521623000,9.984623046875,-0.00010166503489017487,0.0008905329741537571,-0.0016262829303741455
1772699642531581200,9.994581298828125,-0.0007216488011181355,0.001753130927681923,0.0003085033968091011
1772699642541538000,10.0045380859375,-0.00017245998606085777,-0.0011855433695018291,0.0019120373763144016
1772699642551495200,10.0144951171875,-0.0000978915486484766,0.000936463475227356,-0.0007340796291828156
1772699642561452000,10.0244521484375,-0.000020851613953709602,-0.001036444678902626,0.0009799296967685223
1772699642571409000,10.034408935546875,0.0006382807623594999,0.0014999499544501305,-0.0014587268233299255
1772699642581366000,10.044365966796875,0.0006707594729959965,-0.0009094062261283398,0.000003832392394542694
1772699642591323100,10.0543232421875,-0.0016736212419345975,-0.001370931975543499,0.002199342008680105
1772699642601280000,10.064280029296874,-0.0006839327979832888,0.0011160648427903652,-0.0003879508003592491
1772699642611237000,10.074237060546874,-0.0022956777829676867,0.00034854188561439514,0.00018516136333346367
1772699642621194200,10.0841943359375,-0.0011203591711819172,0.0016071083955466747,-0.00007640616968274117
1772699642631150800,10.09415087890625,0.00028152880258858204,-0.0007963944226503372,-0.00019971048459410667
1772699642641108000,10.10410791015625,0.0005661211907863617,-0.001201679464429617,-0.0021737387869507074
1772699642651065000,10.114065185546876,-0.0009726533899083734,-0.0011249803937971592,-0.0008086024317890406
1772699642661022000,10.12402197265625,-0.00006514275446534157,-0.00001576310023665428,0.0036310371942818165
1772699642670979000,10.13397900390625,-0.0024686455726623535,0.0005791871808469296,0.00003337301313877106
1772699642680936200,10.143936279296875,0.002017576014623046,-0.0009663673117756844,0.0008173682726919651
1772699642690893000,10.15389306640625,-0.0006293398328125477,-0.0015040594153106213,0.001107652671635151
1772699642700851500,10.1638515625,-0.0018092244863510132,0.0015520951710641384,-0.0007104051765054464
1772699642710808600,10.17380859375,0.000137013616040349,0.002951586153358221,-0.00022064987570047379
1772699642720765700,10.183765625,0.004010952543467283,0.001222414430230856,0.001954431179910898
1772699642730722600,10.19372265625,-0.0011188281932845712,-0.0007943976670503616,-0.00028635282069444656
1772699642740679400,10.203679443359375,0.00017345394007861614,-0.004424885381013155,0.00017333216965198517
1772699642750636500,10.213636474609375,-0.00018101278692483902,0.00003777351230382919,0.0016258200630545616
1772699642760593700,10.22359375,-0.00047746719792485237,-0.0011139465495944023,0.001985427923500538
1772699642770550500,10.233550537109375,0.0009909998625516891,0.0020224577747285366,0.0003960533067584038
1772699642780507600,10.243507568359375,0.0018329853191971779,0.00021935394033789635,0.0018150205723941326
1772699642790464500,10.253464599609375,-0.0002602594904601574,0.0014140480197966099,0.0032432740554213524
1772699642800421400,10.26342138671875,0.0007637687958776951,-0.0020477501675486565,0.0012292787432670593
1772699642810378500,10.27337841796875,0.00021941866725683212,0.0005325865931808949,0.0013762852177023888
1772699642820335600,10.283335693359374,-0.0016080812783911824,0.0035535856150090694,-0.0007983522955328226
1772699642830292500,10.29329248046875,-0.0003803640138357878,-0.0025083015207201242,-0.0001725093461573124
1772699642840249600,10.30324951171875,-0.0010412055999040604,-0.0002808431163430214,0.0009798593819141388
1772699642850206700,10.313206787109374,-0.0007554483599960804,-0.0017652888782322407,-0.001244945451617241
1772699642860163300,10.323163330078126,0.0010220911353826523,0.00046296417713165283,0.001381788868457079
1772699642870120400,10.333120361328126,0.002218649722635746,-0.0005524992011487484,0.0002571358345448971
1772699642880078600,10.34307861328125,-0.005300817079842091,0.07988855242729187,0.05395468696951866
1772699642890035700,10.35303564453125,0.004952352959662676,0.020874768495559692,0.010313735343515873
1772699642899992600,10.36299267578125,-0.0019424485508352518,0.0059164147824049,0.002499051857739687
1772699642909949400,10.372949462890626,-0.0007331070955842733,-0.003200117964297533,-0.009036696515977383
1772699642919906600,10.382906494140625,0.0007613189518451691,-0.012409357354044914,-0.006971443071961403
1772699642929863400,10.392863525390625,0.0013328331988304853,-0.013900194317102432,-0.007453741505742073
1772699642939820500,10.402820556640625,-0.002165175275877118,-0.011501230299472809,-0.005064246244728565
1772699642949777700,10.412777587890625,-0.0009363926947116852,-0.0012667016126215458,-0.0021044090390205383
1772699642959734500,10.422734619140625,0.0002759925555437803,-0.00197827210649848,-0.0015701798256486654
