time,seconds_elapsed,z,y,x
1772615920702831600,0.06083154296875,0.7366197460800409,-0.04065349742770195,-0.19100445535490287
1772615920712899600,0.070899658203125,0.8614286135315895,0.11604629980325698,-0.14764416492022572
1772615920722967600,0.080967529296875,0.9322118762850761,0.27663959734141824,-0.10695303889587521
1772615920733035500,0.091035400390625,0.9678501758992671,0.42677462922930715,-0.06950825611529872
1772615920743103500,0.101103515625,0.9383137002915144,0.5749959364503622,0.030250140302442014
1772615920753171700,0.111171630859375,0.7870856124699115,0.6745628106176853,0.11037954274583607
1772615920763239400,0.121239501953125,0.4746428803414106,0.7040776589155197,0.12330646353196352
1772615920773307400,0.131307373046875,0.13872808721065522,0.7694020717412233,0.1329336212534923
1772615920783375400,0.141375244140625,-0.1237011984705925,0.8236363507539033,0.21932572822030633
1772615920793443300,0.151443359375,-0.30081250008940696,0.7894207774192095,0.32987511110771445
1772615920803512300,0.16151220703125,-0.36116613876521586,0.7875520609378814,0.4186774666871875
1772615920813580300,0.171580322265625,-0.29894845978319645,0.7722241434246301,0.5739601271292194
1772615920823648300,0.181648193359375,-0.2162450421333313,0.70487903842628,0.7569618384934962
1772615920833716500,0.191716552734375,-0.16799685179293156,0.6628904930025339,0.8286231261905282
1772615920843784400,0.201784423828125,-0.22752573008239269,0.6523954024732113,0.8001204506099223
1772615920853852200,0.21185205078125,-0.33042730163037776,0.584575081178546,0.7711314528170973
1772615920863920000,0.221920166015625,-0.4208095833450556,0.5184393519699573,0.7601177452411502
1772615920873988400,0.23198828125,-0.5696545754224062,0.5004068516731262,0.6753298494674265
1772615920884056300,0.242056396484375,-0.7115145309180021,0.48792087958753105,0.605433160290122
1772615920894124300,0.252124267578125,-0.8225053008973598,0.46124914576113224,0.594477356913872
1772615920904192300,0.262192138671875,-0.8502478788256644,0.38847617049515243,0.557910252016969
1772615920914260500,0.272260498046875,-0.8051029151976108,0.3407026119291782,0.49216023419033733
1772615920924328400,0.282328369140625,-0.7478934197664261,0.2091816796183586,0.4454154706828296
1772615920934396200,0.292396240234375,-0.7172410918712615,0.025717209580540655,0.38940837331134825
1772615920944464100,0.302464111328125,-0.7186649871945381,-0.04322948539555072,0.3246637331349775
1772615920954532400,0.312532470703125,-0.6829355021655559,-0.11022796891331672,0.4001670101476833
1772615920964600300,0.322600341796875,-0.654415510123968,-0.20275836857259272,0.5600952313732356
1772615920974669300,0.33266943359375,-0.5879752450108527,-0.20528058052659034,0.6530106117621064
1772615920984737300,0.3427373046875,-0.4931897599011659,-0.19708967528641222,0.582272137998417
1772615920994805200,0.35280517578125,-0.3988257150739431,-0.2663070038974285,0.3761771358164027
1772615921004873200,0.362873291015625,-0.23061668183505535,-0.2568389183282852,0.14474325584694742
1772615921014941200,0.372941162109375,-0.08416296880841255,-0.19251053080260752,0.06500654251556844
1772615921025009400,0.383009521484375,0.07036065342724322,-0.12672960638105868,0.10811791795678437
1772615921035077400,0.393077392578125,0.20206746369898318,0.023425883772969246,0.21151103588137773
1772615921045145300,0.403145263671875,0.3390074984490871,0.16333119806945323,0.420180016737245
1772615921055213300,0.41321337890625,0.46403731517493724,0.24586510437130926,0.6342642641074955
1772615921065281300,0.42328125,0.6386193905770778,0.33548633858561516,0.8367826864443719
1772615921075349200,0.433349365234375,0.7970663237363099,0.3493617192029953,0.9561365764256566
1772615921085417200,0.443417236328125,0.8915846823424101,0.3084001787394285,0.9651794953852891
1772615921095485200,0.453485107421875,0.9197253196775913,0.2246235789000988,0.8762393022377043
1772615921105553400,0.463553466796875,0.8903378971517085,0.16791794133782387,0.7500046397667378
1772615921115621400,0.473621337890625,0.835513251030445,0.11764847430288791,0.680952803915739
1772615921125689300,0.483689453125,0.7158323941171169,-0.022484803530573843,0.7020660998973995
1772615921135758300,0.49375830078125,0.6146189217865466,-0.058926236221194264,0.7081240847621113
1772615921145826300,0.503826416015625,0.458894107067585,-0.09768822081387042,0.7426695476382971
1772615921155894300,0.513894287109375,0.26004385184943674,-0.1516115341812372,0.7667046493507921
1772615921165962200,0.523962158203125,0.052716860187053675,-0.14240472989678382,0.7449030057787894
1772615921176030500,0.534030517578125,-0.15147767866849898,-0.1648836882084608,0.6966923709698021
1772615921186098400,0.544098388671875,-0.35656478244960305,-0.11427870560884475,0.6925096784576773
1772615921196166400,0.55416650390625,-0.5366466243118048,-0.048586043992638585,0.7785662059277295
1772615921206234000,0.564234130859375,-0.6596814678281545,-0.0006938274830579757,0.8741682681173085
1772615921216302300,0.57430224609375,-0.6689040542036294,0.09396656994223594,0.9723563282120973
1772615921226370300,0.584370361328125,-0.5920750815451145,0.15534429096877575,1.05669399600029
1772615921236438300,0.594438232421875,-0.4667430670022964,0.208606510078907,1.0946281514666973
1772615921246506200,0.60450634765625,-0.3832055366158485,0.22935236098766326,1.0649977139651774
1772615921256574500,0.614574462890625,-0.3008750439316034,0.20785773753821848,0.9486905712686479
1772615921266642400,0.624642333984375,-0.1894225016593933,0.25715514467060563,0.8451473408162593
1772615921276710100,0.634710205078125,-0.041510991039872165,0.2696083835303783,0.8704990050200373
1772615921286778000,0.644778076171875,0.08839666085541248,0.2451490650564432,0.998695688278973
1772615921296847400,0.654847412109375,0.17501345255672932,0.25145254911482334,1.111752743138373
1772615921306915300,0.664915283203125,0.21401509112417696,0.2122492504954338,1.1173645916707813
1772615921316983300,0.6749833984375,0.13878595487773418,0.13874211573600767,1.001216585058719
1772615921327051500,0.685051513671875,0.05172609558403492,0.07057634200453758,0.8834989910423755
1772615921337119200,0.695119140625,-0.03645779930353164,-0.03566109596788883,0.7223899990670383
1772615921347187200,0.705187255859375,-0.05794131683707237,-0.06910393136441707,0.5508024658383801
1772615921357255200,0.715255126953125,-0.10952946525514125,-0.15020225190520287,0.4899525315456092
1772615921367323400,0.725323486328125,-0.1679769780486822,-0.21544132453501225,0.44846503097917884
1772615921377391400,0.735391357421875,-0.21900515449643135,-0.23831074346899986,0.32510270907413213
1772615921387459300,0.745459228515625,-0.2284878531128168,-0.22860475749075412,0.18399452179390935
1772615921397527300,0.75552734375,-0.21394611754119394,-0.2411848376005888,0.07735131603218615
1772615921407595500,0.765595458984375,-0.19212591539919374,-0.2723521292805672,-0.029164902349002656
1772615921417663200,0.775663330078125,-0.06861351749897003,-0.24337737920880317,0.03067030194327235
1772615921427731200,0.785731201171875,0.16827917586565017,-0.24510464139282703,0.3453235131954774
1772615921437799200,0.795799072265625,0.43281332487165924,-0.3772270467281341,0.8720419236131012
1772615921447867400,0.805867431640625,0.6348544850856065,-0.6487368799656629,1.2566565963745115
1772615921457936400,0.815936279296875,0.6662357117772102,-0.8726964419990777,1.2999416113495825
1772615921468004400,0.82600439453125,0.5024070855796336,-1.0698644432187079,1.037659332923591
1772615921478072300,0.836072265625,0.12682371440529822,-1.2430109328597783,0.5313428918804973
1772615921488140300,0.846140380859375,-0.3143599639266729,-1.2551093669325113,-0.10121412991769611
1772615921498208300,0.856208251953125,-0.7755243540138006,-1.1830880868166684,-0.5732469738911837
1772615921508276200,0.866276123046875,-1.1668085676670075,-1.0237029960244894,-0.8156285469956696
1772615921518344400,0.876344482421875,-1.3663029660075903,-0.7329922032326459,-0.8555665165651589
1772615921528412400,0.886412353515625,-1.3493816418230533,-0.3941483709126711,-0.6026755686776712
1772615921538480400,0.89648046875,-1.2302782925367355,-0.04500350933074951,-0.23711773429214952
1772615921548548000,0.906548095703125,-1.0097001896351576,0.2286485966324806,0.2306845594394952
1772615921558616300,0.9166162109375,-0.80764090924263,0.27908815953731536,0.6371171693205833
1772615921568684300,0.926684326171875,-0.6147445939928293,0.392934318947792,0.6754479228891432
1772615921578752300,0.936752197265625,-0.4048962671592831,0.514135517296195,0.4584776352211833
1772615921588820200,0.9468203125,-0.24263795901834964,0.48789516062438487,0.2008335379898548
1772615921598888400,0.956888427734375,-0.1302577805072069,0.40268297502398487,-0.07847337886467576
1772615921608956400,0.966956298828125,-0.004584112919867039,0.34154198536276814,-0.3714758627902716
1772615921619024400,0.9770244140625,0.11305588581562041,0.3394610874354839,-0.5873145891450345
1772615921629093400,0.98709326171875,0.16471885303556918,0.35105683268308635,-0.7539858914226293
1772615921639161300,0.997161376953125,0.13583470385670662,0.4045090214073658,-0.7888232499174773
1772615921649229300,1.007229248046875,0.15789397545158862,0.47903731590807436,-0.6882309051599353
1772615921659297300,1.01729736328125,0.2363730534046888,0.5169558354139328,-0.48226679934859273
1772615921669365500,1.027365478515625,0.3449164302319288,0.534083495825529,-0.28150968759581446
1772615921679433500,1.03743359375,0.4380529790908098,0.5718196445018052,-0.14257007652632891
1772615921689501200,1.047501220703125,0.4536836789429188,0.5058423207253218,-0.07220861938148737
1772615921699569200,1.057569091796875,0.4478992503225803,0.4758364740401506,-0.03979899949021637
1772615921709637400,1.067637451171875,0.4624877476453781,0.3997445834845304,-0.011551540779694914
1772615921719705300,1.077705322265625,0.4619949956923723,0.26551263864934443,-0.004639496368914842
1772615921729773300,1.087773193359375,0.40239305216670035,0.12909984264373778,-0.07378763220123946
1772615921739841300,1.09784130859375,0.283861365288496,-0.01789572217464447,-0.14077661723829804
1772615921749909500,1.107909423828125,0.09130991795361042,-0.16799042205214498,-0.20441979897879062
1772615921759977200,1.117977294921875,-0.1852911009430885,-0.2935106526434421,-0.2613155522856861
1772615921770045400,1.12804541015625,-0.5036489023342728,-0.3305833689749241,-0.26063239232711494
1772615921780114400,1.138114501953125,-0.7886690822690725,-0.33783085588514805,-0.17811996720470488
1772615921790182700,1.1481826171875,-0.9734691848248243,-0.2832417720854282,-0.12437829401455819
1772615921800250600,1.158250732421875,-1.037787927739322,-0.16542729356586933,-0.08591646141223609
1772615921810318600,1.168318603515625,-1.0026409187734127,0.007539163333177566,0.018441227228194475
1772615921820386300,1.17838623046875,-0.9276397460639476,0.1517383754312992,0.19311741065457463
1772615921830454500,1.18845458984375,-0.8052659968048334,0.302153393304348,0.3266139538872987
1772615921840522500,1.1985224609375,-0.5353454785853624,0.46169045978784556,0.43424050813056525
1772615921850590500,1.208590576171875,-0.1660541932925582,0.5049199451833963,0.5048437381420284
1772615921860658400,1.218658447265625,0.17469664169251917,0.5281617045611143,0.5091294526372104
1772615921870726700,1.2287265625,0.4899249128863215,0.5314058010488748,0.5753109206836671
1772615921880794600,1.238794677734375,0.821436210361123,0.4507505481004715,0.694417119514197
1772615921890862600,1.248862548828125,1.096927806711197,0.4098801930516958,0.7820101358365267
1772615921900930300,1.258930419921875,1.2542998041152953,0.37787586602568624,0.9006404607836157
1772615921910998500,1.26899853515625,1.3080281794324518,0.32090660909116264,0.9799201145298778
1772615921921066500,1.27906640625,1.2638245883077381,0.26131635600328446,0.9448577151075005
1772615921931134500,1.289134521484375,1.101645775143802,0.2307271564722061,0.8413515287298708
1772615921941202400,1.299202392578125,0.891588481734693,0.11486088941097258,0.7344036774657666
1772615921951270700,1.309270751953125,0.6904203049629927,-0.006292962664365768,0.5941906123943627
1772615921961339400,1.31933935546875,0.5565688838779926,-0.08315992924571036,0.421779451290518
1772615921971407400,1.329407470703125,0.4682137240767479,-0.14740063848793505,0.31462833253927525
1772615921981475600,1.3394755859375,0.38776597639918325,-0.22824176939725874,0.31148309331610796
1772615921991543600,1.34954345703125,0.31283406953364606,-0.2919096471875906,0.29637517522908746
1772615922001611500,1.359611572265625,0.2382300794482231,-0.34995500892102716,0.22253201344832776
1772615922011679500,1.369679443359375,0.22109715833961963,-0.3955366104006767,0.09580196867585182
1772615922021747700,1.379747802734375,0.26208207967877384,-0.3716027771055698,0.025833237175643443
1772615922031815400,1.3898154296875,0.322931392917037,-0.35038112537860866,0.058220352974161504
1772615922041883400,1.39988330078125,0.3909697408765554,-0.3294669321656227,0.19418569747321307
1772615922051951400,1.409951416015625,0.36658582572638987,-0.30350889956653115,0.3147791391868144
1772615922062019600,1.42001953125,0.20948329291343687,-0.326120544347167,0.3102471217803657
1772615922072087600,1.430087646484375,0.018158172503113745,-0.3008376345306635,0.18159451144747435
1772615922082155500,1.440155517578125,-0.1264589727461338,-0.24439678538441656,0.09317629634737967
1772615922092223500,1.450223388671875,-0.20406945117115974,-0.2437760231375694,0.06288834478519857
1772615922102291700,1.460291748046875,-0.14283581479042767,-0.19672084197401998,0.04219298195466399
1772615922112359400,1.470359375,0.06252689106166362,-0.13772446312606335,0.11416852323263883
1772615922122428400,1.480428466796875,0.3249035697728395,-0.13557751422524453,0.2587398565787822
1772615922132496600,1.49049658203125,0.5732751040071249,-0.15290858825445175,0.3614551848396659
1772615922142564600,1.500564697265625,0.7687152585208415,-0.17357085253298282,0.37643136630579827
1772615922152632600,1.510632568359375,0.9352478829801082,-0.2236561951726675,0.36586606008447703
1772615922162700300,1.5207001953125,1.0402262608021497,-0.2871276736080646,0.3784514739565551
1772615922172768500,1.5307685546875,1.0261930592745543,-0.31958792770802974,0.39904681047871704
1772615922182836500,1.54083642578125,0.9203004892170429,-0.3502402556031942,0.3749927848700434
1772615922192904400,1.550904541015625,0.7751949759289621,-0.34504970122277734,0.327102029665187
1772615922202972400,1.560972412109375,0.5960434006541967,-0.37248131350576874,0.29327056027725334
1772615922213040600,1.57104052734375,0.4184907850086689,-0.41876083412170406,0.33611630705222484
1772615922223108600,1.581108642578125,0.28732758009433745,-0.4605138172239065,0.5364672491569071
1772615922233176600,1.591176513671875,0.18871932182610035,-0.5096633403182029,0.8325169187586754
1772615922243244300,1.601244384765625,0.03191197256743908,-0.48102469033300876,0.9456443354405463
1772615922253312500,1.6113125,-0.21257249110043047,-0.45232817268073555,0.853229305789247
1772615922263380500,1.62138037109375,-0.5205313558131456,-0.5178238504201174,0.6708321727219969
1772615922273448400,1.631448486328125,-0.8282663486421108,-0.6436421871751546,0.31372568461112676
1772615922283517400,1.641517333984375,-1.084110995236039,-0.5966553950726986,-0.09013196021541953
1772615922293585700,1.651585693359375,-1.3101771741598844,-0.5501648620545864,-0.3751612733047455
1772615922303653400,1.6616533203125,-1.4519658179849386,-0.534538838377595,-0.5809118824958801
1772615922313721300,1.671721435546875,-1.4146654303774238,-0.44236382802724833,-0.7709254088509827
1772615922323789600,1.68178955078125,-1.172018119008839,-0.28830840782523154,-0.8426183337952942
1772615922333857500,1.691857421875,-0.8255714104697108,-0.11586451349556445,-0.6642743485763669
1772615922343925500,1.701925537109375,-0.5407300942331552,0.07733926026821136,-0.3379893343824893
1772615922353993500,1.711993408203125,-0.3113508452385664,0.31650515926182266,0.004277604253962636
1772615922364061700,1.722061767578125,-0.14329992517083884,0.5147252998828887,0.37898901489935816
1772615922374129400,1.73212939453125,-0.06363982073962689,0.6125818630009889,0.7158867546528578
1772615922384197400,1.742197265625,-0.07773878097981214,0.5981809972047806,0.9290855609580874
1772615922394265300,1.752265380859375,-0.20868015983700752,0.48740065510571,0.9533817978247999
1772615922404333600,1.76233349609375,-0.4391080411016941,0.322265622484684,0.7850303604405373
1772615922414401500,1.772401611328125,-0.6937105786800384,0.1802852554798126,0.4818768501829356
1772615922424469500,1.782469482421875,-0.9929512994080781,0.03602057693004608,0.09792034906931221
1772615922434537500,1.792537353515625,-1.2090636550724505,-0.02210895595550537,-0.15365473044663666
1772615922444605700,1.802605712890625,-1.3568109150409697,-0.045987844192981714,-0.19503062386475503
1772615922454674400,1.81267431640625,-1.422997789914906,0.02713350611925125,-0.11156192093081772
1772615922464742400,1.822742431640625,-1.4261331653311848,0.14650164382159708,0.03884948021303862
1772615922474810400,1.832810302734375,-1.32273679600358,0.3267074043244123,0.21378128236830232
1772615922484878600,1.842878662109375,-1.1452280194997786,0.5102361717700958,0.4618883204475045
1772615922494946600,1.852946533203125,-1.0032707411095498,0.6253343770682811,0.7040377652965486
1772615922505014500,1.8630146484375,-0.9191671012729405,0.7664145803630351,0.8029153420254588
1772615922515082200,1.873082275390625,-0.8902633706107735,0.9537345567852258,0.8303527995273471
1772615922525150500,1.883150390625,-0.8745157663807273,1.0333014299750327,0.8992423574887216
1772615922535218400,1.893218505859375,-0.8556266492545604,1.0831892042160034,0.9742590200282633
1772615922545286400,1.903286376953125,-0.8154360931634902,1.1293027206152677,1.0640773842498659
1772615922555354600,1.913354736328125,-0.7499795783907175,1.0983996328294277,1.1599385357670486
1772615922565422600,1.923422607421875,-0.6926449952751398,1.0843243457257747,1.2036894146881998
1772615922575490600,1.933490478515625,-0.6116714701578021,1.0642939496099948,1.2419294212333858
1772615922585558500,1.94355859375,-0.5707049612581729,1.0506652372300624,1.3223673781692982
1772615922595626500,1.95362646484375,-0.5942457035824656,1.028030796095729,1.3825066434420645
1772615922605694500,1.963694580078125,-0.6309878727853298,0.9701783265858888,1.3389730605334043
1772615922615763500,1.973763427734375,-0.6381476814121008,0.9093243371725082,1.2476470682278276
1772615922625831400,1.98383154296875,-0.6569657791286706,0.7928460756927728,1.2037222940444945
1772615922635899600,1.993899658203125,-0.7278589319974184,0.6666887162417173,1.1671563581913709
1772615922645967400,2.00396728515625,-0.8435954351991415,0.562295444831252,1.100034540554881
1772615922656035300,2.014035400390625,-0.9561199906170368,0.3719663497209549,0.9548121959540993
1772615922666103300,2.024103271484375,-0.9788187291592358,0.258085118997097,0.7282925011090934
1772615922676171500,2.034171630859375,-0.966074982920289,0.20334522854983805,0.5436580374438316
1772615922686239500,2.044239501953125,-0.969155997800827,0.19541268198490142,0.45783572058845307
1772615922696307500,2.054307373046875,-0.9094973556518554,0.29293022240698335,0.45248350937291976
1772615922706375400,2.06437548828125,-0.7958049254983663,0.40724166124165057,0.580090811903961
1772615922716443600,2.074443603515625,-0.6527981380552053,0.5045926129251718,0.8044660055335611
1772615922726511400,2.084511474609375,-0.5698632497370243,0.604241320157051,0.9699556237459183
1772615922736579300,2.094579345703125,-0.5673465907409787,0.6835270383179187,1.0494298502162098
1772615922746647600,2.1046474609375,-0.578366289666295,0.7072738246083259,1.0852562197484075
1772615922756715500,2.114715576171875,-0.6140937288686633,0.6275438698112964,1.0317359342239796
1772615922766784300,2.1247841796875,-0.6382867976218461,0.5474263770014047,0.8823688179686665
1772615922776852200,2.134852294921875,-0.6531675558894873,0.43408992067873475,0.6955990227751433
1772615922786921000,2.1449208984375,-0.6440460918009281,0.3299795578628778,0.5764484733462333
1772615922796989200,2.1549892578125,-0.6662807199627161,0.2549912446349859,0.5814828873168677
1772615922807057200,2.16505712890625,-0.7317071318581699,0.18018705580234526,0.6265942409362644
1772615922817125000,2.175125,-0.8094269158765673,0.14581892225444315,0.6029176703378558
1772615922827193000,2.185193115234375,-0.9480299154028295,0.12708382664620876,0.49819366913568225
1772615922837261300,2.19526123046875,-1.0531623147428035,0.1039589716464281,0.34301304429601875
1772615922847329000,2.2053291015625,-1.1031877438887954,0.052315293648838995,0.21896142495255916
1772615922857397000,2.21539697265625,-1.077285533130169,0.053910453885793685,0.15300393838770687
1772615922867465000,2.22546484375,-1.0596084221422672,0.03501578380167484,0.1591407971749082
1772615922877533200,2.235533203125,-0.9984762003093958,0.044595513051748276,0.14244064146038143
1772615922887601200,2.24560107421875,-0.8940829288989305,0.1033580831438303,0.178837065965496
1772615922897669000,2.255669189453125,-0.8045449890539049,0.12672376116216183,0.2635369546622038
1772615922907737000,2.265737060546875,-0.7097980823889374,0.1994435449361801,0.2894242966452613
1772615922917805300,2.275805419921875,-0.5821954925656319,0.26518004569411274,0.2920655318690464
1772615922927873000,2.285873046875,-0.46245793702900406,0.3021785277456045,0.30228220731578764
1772615922937941000,2.29594091796875,-0.3494400451362133,0.29263913050591944,0.23891356820035725
1772615922948009000,2.306009033203125,-0.2491340430393815,0.31898177850842474,0.11984708032570779
1772615922958078200,2.316078125,-0.16912088738679884,0.3562006253123283,0.07631521445009858
1772615922968146200,2.326146240234375,-0.09274550371468067,0.355850496700406,0.11957688508220016
1772615922978214100,2.336214111328125,-0.029327509032189843,0.3384510336101055,0.1713821833822876
1772615922988282000,2.3462822265625,0.008656184664368629,0.3568295708656311,0.13297653794661163
1772615922998350000,2.35635009765625,0.08243921375572681,0.4225654871016741,0.06968852631933986
1772615923008418000,2.36641796875,0.23040333134531973,0.45684535784423347,0.1312662999626249
1772615923018486000,2.376486083984375,0.3520277235418558,0.46246436676979064,0.294310132458061
1772615923028554200,2.38655419921875,0.4206909254014492,0.4621773665219545,0.4935528575925156
1772615923038622200,2.396622314453125,0.4287450525194406,0.3627501930862665,0.6042972881279886
1772615923048690200,2.406690185546875,0.4094137445837259,0.2369371170282364,0.5598100577563047
1772615923058758100,2.416758056640625,0.3947439987182617,0.17281097407639026,0.48275710361618546
1772615923068826000,2.426826171875,0.3430667107120156,0.019176409634947777,0.5510741954518482
1772615923078894000,2.43689404296875,0.3115080816268921,-0.1607137090474367,0.6106928343839944
1772615923088962000,2.446962158203125,0.2522179805293679,-0.2698538827240467,0.48899186981990933
1772615923099030000,2.457030029296875,0.09171966779828071,-0.42257367040812965,0.2664747616797685
1772615923109098200,2.46709814453125,-0.10576339071989059,-0.5887929911345243,0.07753109304588288
1772615923119167000,2.4771669921875,-0.3042690702840686,-0.7311082891821861,-0.10087733571138233
1772615923129235000,2.48723486328125,-0.5195587113887071,-0.8162444869369267,-0.23792185374926775
1772615923139303200,2.49730322265625,-0.6613420945167541,-0.7422545370966196,-0.34972189428489653
1772615923149371100,2.50737109375,-0.7702583963096141,-0.6121791274189948,-0.36865638492275027
1772615923159439000,2.517439208984375,-0.8387021101996303,-0.5036678992956877,-0.27489289980456233
1772615923169507000,2.527507080078125,-0.8921136746525764,-0.3335486485213041,-0.16634342203009872
1772615923179575300,2.5375751953125,-0.912691183257103,-0.21527122866511345,-0.056431113203521815
1772615923189643300,2.547643310546875,-0.9182961636573076,-0.1695329753190279,0.06685828959578648
1772615923199711000,2.5577109375,-0.9442705628693103,-0.16756605916023254,0.1466805805850774
1772615923209779000,2.567779052734375,-0.9445894195601343,-0.15107435856461524,0.11616804475309327
1772615923219847200,2.57784716796875,-0.9596446576118469,-0.19266718266904354,-0.031333058434631675
1772615923229915100,2.5879150390625,-0.9050409607648849,-0.1731874061733484,-0.25748216640157623
1772615923239983000,2.597983154296875,-0.7895674924135208,-0.0900777458101511,-0.43440169004164636
1772615923250051000,2.608051025390625,-0.6191685479149222,0.0025350714355707165,-0.4636537226848304
1772615923260119300,2.618119384765625,-0.4289540190950036,0.1543523573219776,-0.3971433880101889
1772615923270187300,2.628187255859375,-0.20408990943729877,0.3418973746716976,-0.3069629124779254
1772615923280256000,2.638256103515625,0.04702946220040321,0.5482020375490189,-0.17631896393103524
1772615923290324200,2.64832421875,0.32967736004590986,0.7112918280780315,-0.027726540108956393
1772615923300392200,2.65839208984375,0.5942156007051468,0.8449456807643174,0.16682592658372594
1772615923310460200,2.668460205078125,0.8029062819361686,0.8978168547302484,0.32704109325818714
1772615923320528100,2.678528076171875,0.946464273521304,0.9141934045135974,0.42101665022447704
1772615923330596000,2.68859619140625,0.9827543150424957,0.8928624471932649,0.43069351970609276
1772615923340664000,2.6986640625,0.9040408438116312,0.8346352991521357,0.34596126310974357
1772615923350732000,2.70873193359375,0.759954444438219,0.7976718884140253,0.2492858178013004
1772615923360800000,2.718800048828125,0.5765075100570917,0.741953508323431,0.2612315820629708
1772615923370868200,2.7288681640625,0.39412615908086296,0.6999713926404714,0.3595119052847847
1772615923380936200,2.738936279296875,0.2579734753161669,0.6513210512399673,0.44489941091947255
1772615923391004200,2.749004150390625,0.19220336454957723,0.5721586671978235,0.5253840930739417
1772615923401072000,2.759072021484375,0.17448299894183872,0.4633487483888864,0.6719715520154684
1772615923411140000,2.76914013671875,0.13742051174342632,0.31315351074635983,0.7870457188509404
1772615923421208000,2.7792080078125,0.07264175010174513,0.23350831162333488,0.7387881030950695
1772615923431276000,2.789276123046875,-0.07648878091871739,0.169741649633646,0.626848142632097
1772615923441344000,2.799343994140625,-0.3413227896541357,0.05399111790657043,0.5304114562492818
1772615923451413200,2.809413330078125,-0.6712079472318291,-0.05278583377003669,0.3515784819370135
1772615923461481200,2.819481201171875,-0.9201198719531297,-0.04150865295231342,0.11927231264505535
1772615923471549000,2.829548828125,-1.049701945155859,-0.06685761374235152,-0.07595770624931901
1772615923481617200,2.8396171875,-1.0670958552882075,-0.06606441753804683,-0.20299488074220715
1772615923491685000,2.84968505859375,-0.9719038352042436,-0.000962123030424118,-0.19388443123800678
1772615923501753000,2.859753173828125,-0.7415627554401755,0.01675590448975563,0.03504195942254737
1772615923511821000,2.869821044921875,-0.4246943158239126,0.016767010405659675,0.33349341120272874
1772615923521889300,2.87988916015625,-0.13111352055370806,0.04839022915959358,0.5772768139291554
1772615923531957200,2.889957275390625,0.0806231042444706,0.012361468923091888,0.7175659399114549
1772615923542025200,2.900025146484375,0.2234030971944332,-0.08572422677576541,0.6908868995614349
1772615923552093000,2.910093017578125,0.2742185076743364,-0.22222470106482506,0.5068592792155221
1772615923562161200,2.9201611328125,0.2264613157212734,-0.3995715650051832,0.19925300906645133
1772615923572229000,2.93022900390625,0.15335399393439292,-0.5613046802282333,-0.1444749602995813
1772615923582297000,2.940297119140625,0.12836977480351924,-0.710192342403531,-0.4028617656569928
1772615923592365000,2.950364990234375,0.13790332682430742,-0.8299199610680341,-0.565038898320496
1772615923602433300,2.960433349609375,0.1950467712819576,-0.834396229699254,-0.6715482120368629
1772615923612501200,2.970501220703125,0.26117110231369733,-0.7254436875492334,-0.6909293504636734
1772615923622570000,2.980570068359375,0.3390402316749096,-0.5751794763237238,-0.5852186032464728
1772615923632638200,2.99063818359375,0.4098831156611442,-0.38495676419734953,-0.3974340415198356
1772615923642706200,3.0007060546875,0.48888475618362426,-0.14166414066255092,-0.14114371525133027
1772615923652774100,3.010774169921875,0.5710229411661625,0.0473480266302824,0.13249664547517895
1772615923662842000,3.020842041015625,0.6506783694222569,0.15985679995715618,0.35126112308353186
1772615923672910300,3.030910400390625,0.6762514943569898,0.16912030286490917,0.3725011507174
1772615923682978000,3.04097802734375,0.6655956603080034,0.2039829419314861,0.20764256041757762
1772615923693046000,3.0510458984375,0.584819411328435,0.12501345011293888,0.017400120677426457
1772615923703114000,3.061114013671875,0.46118660191893573,0.05449614481925964,-0.12863633505152539
1772615923713182200,3.07118212890625,0.3926148777350783,0.033597733697295185,-0.21066285808682442
1772615923723250200,3.081250244140625,0.348071679392457,-0.019047814819216725,-0.20140421401727943
1772615923733318100,3.091318115234375,0.300157835572958,0.0070423197269439694,-0.18127437611501662
1772615923743386000,3.10138623046875,0.3517632273867726,0.08611118026673793,-0.11772809714404865
1772615923753454300,3.111454345703125,0.48263738622665403,0.11251344950199127,0.03252000319687649
1772615923763522000,3.12152197265625,0.6383405736356973,0.14395137481689452,0.1679293943135999
1772615923773589200,3.13158935546875,0.7371390937790274,0.1939192285567522,0.2522541295549832
1772615923783658200,3.141658203125,0.7700947301805019,0.25521160938739773,0.22641190535528585
1772615923793726200,3.151726318359375,0.7448413387194276,0.3310352043956518,0.19775690702348947
1772615923803794200,3.161794189453125,0.6574567775160074,0.34854864925444123,0.21257102979570627
1772615923813862100,3.171862060546875,0.5663195857807993,0.33386604390740393,0.23546001194668933
1772615923823930400,3.181930419921875,0.4259323331862688,0.24524375760257242,0.22223167879488318
1772615923833998000,3.191998046875,0.24486294159144162,0.1436205354273319,0.11962488894239068
1772615923844066000,3.202066162109375,0.13055442536622286,0.117073889285326,0.013080229918006806
1772615923854134000,3.212134033203125,0.0786748927861452,0.08425999944210052,-0.0013305362177081406
1772615923864202200,3.2222021484375,0.03769114049077034,0.1022334630280733,0.09139985212623142
1772615923874270200,3.232270263671875,-0.04620411729216575,0.11420797846019268,0.26007258475357664
1772615923884338200,3.242338134765625,-0.1078434118643403,0.09078618634045124,0.3985677947901189
1772615923894406100,3.25240625,-0.12659049017131327,-0.004034954604506492,0.40921953718587756
1772615923904474400,3.262474365234375,-0.09048749565482139,-0.18816402603089807,0.22801117551177738
1772615923914542000,3.2725419921875,-0.026006840176880357,-0.29938100598156453,-0.05379173201010562
1772615923924610000,3.282610107421875,0.07550882997065782,-0.4120382478684187,-0.19224351389687508
1772615923934679300,3.29267919921875,0.2293897703886032,-0.5013023392081261,-0.06427849310250021
1772615923944746200,3.302746337890625,0.43041620060205454,-0.5648895529776812,0.26741697443332524
1772615923954815200,3.312815185546875,0.5564718532443046,-0.6672545334309339,0.5871219891823828
1772615923964883200,3.32288330078125,0.5754498176977038,-0.7689858921557664,0.6799057060156017
1772615923974951200,3.332951171875,0.48109980139583347,-0.9092086018383503,0.5774903836145997
1772615923985019100,3.34301904296875,0.240526081430912,-1.1192249787151813,0.3401404480017721
1772615923995087000,3.353087158203125,-0.11029051275551319,-1.2801572989493608,0.05903903067959472
1772615924005155000,3.363155029296875,-0.49479456474930045,-1.38629653724432,-0.23390196884972975
1772615924015223300,3.373223388671875,-0.8556696116134523,-1.3897674282252788,-0.6606970015462488
1772615924025291300,3.383291259765625,-1.1434914049655198,-1.31620944006145,-1.106408313370496
1772615924035359200,3.393359130859375,-1.3159943360060453,-1.0892916127443313,-1.398305977859348
1772615924045427200,3.40342724609375,-1.3110066107213496,-0.7775982376784085,-1.4032273599095642
1772615924055495200,3.4134951171875,-1.091082587814331,-0.4518056101113558,-1.1397112288396805
1772615924065563100,3.423563232421875,-0.6551520077049732,-0.07110065813958645,-0.7361481099803
1772615924075631000,3.433631103515625,-0.18900690659582614,0.266332138338685,-0.2819170262876898
1772615924085699000,3.443698974609375,0.23058161052167414,0.5167331325739621,0.1073308318328578
1772615924095767300,3.453767333984375,0.582756633579731,0.7017144369155168,0.32374048081021756
1772615924105836000,3.4638359375,0.8289554999500512,0.8001315565258265,0.3732344334280118
1772615924115904000,3.473904052734375,0.9355845675885677,0.8470710023552179,0.2556264737986028
1772615924125972200,3.48397216796875,0.9800298585146665,0.8522107033312321,0.0959101965569891
1772615924136040200,3.494040283203125,0.9692308166027068,0.8334183245778083,-0.022007541407644746
1772615924146108200,3.504108154296875,0.8771417309701443,0.8226257124066353,-0.02350464809760451
1772615924156176100,3.514176025390625,0.7233636664047837,0.7819231151401996,0.032717735992372037
1772615924166244400,3.524244384765625,0.5601344674050808,0.7624690576076507,0.09816456962134688
1772615924176312300,3.534312255859375,0.4194447247326374,0.7756453500449657,0.13176787454290315
1772615924186380000,3.544380126953125,0.24599983666688202,0.7662450690150261,0.17764509796826167
1772615924196448000,3.554447998046875,0.09808160404562949,0.7587859851807356,0.1850378203017637
1772615924206516200,3.56451611328125,-0.0089145433396101,0.8265823410779237,0.17111637205295263
1772615924216584200,3.574584228515625,-0.10766571720987558,0.8733768254786729,0.15944299499187617
1772615924226652200,3.584652099609375,-0.18593933571875093,0.8757032225996255,0.1561084254753776
1772615924236720000,3.59472021484375,-0.23881167872846126,0.8885469220817088,0.1324303935722448
1772615924246788400,3.604788330078125,-0.23647914412766693,0.8669903393119573,0.12757171976100654
1772615924256856300,3.614856201171875,-0.21656009943187235,0.8674678936958312,0.19150593860363588
1772615924266925000,3.624925048828125,-0.20237024603784082,0.8527794431298971,0.3557224864065647
1772615924276993300,3.6349931640625,-0.13939824155718086,0.7599024219900369,0.4699219892993569
1772615924287061200,3.645061279296875,-0.1506163856640458,0.6596066490262746,0.5810566977940499
1772615924297129200,3.655129150390625,-0.23023645034581422,0.5272989502519368,0.6072683398280292
1772615924307197200,3.665197265625,-0.36927988711595533,0.4063163630902767,0.6097839759107678
1772615924317265200,3.67526513671875,-0.4764204114079475,0.3169400435477495,0.6187273800186812
1772615924327333000,3.6853330078125,-0.5980810439616442,0.12888473858833313,0.6695844376832246
1772615924337401000,3.695401123046875,-0.8079784706339239,-0.14481705173552034,0.6779257842447608
1772615924347469000,3.705468994140625,-1.0791834757059813,-0.4206231208622455,0.44251978577394036
1772615924357537300,3.715537353515625,-1.3434066590666771,-0.6213122819453477,0.003940015463205054
1772615924367605200,3.725605224609375,-1.5733230836778878,-0.7244862406939268,-0.43565961768086997
1772615924377673200,3.735673095703125,-1.7437495007053017,-0.7210778935551643,-0.813669521882385
1772615924387741200,3.7457412109375,-1.7246166379511356,-0.5894833114862442,-1.1222288367062807
1772615924397809200,3.75580908203125,-1.3971435099512337,-0.42733927737474436,-1.1092246859654784
1772615924407877000,3.765877197265625,-0.8066682648181914,-0.26076456733942033,-0.7018374787732958
1772615924417945000,3.775945068359375,-0.15243337195813655,-0.029672084686160085,-0.1051244900281541
1772615924428013000,3.786012939453125,0.3614616145804524,0.23357962329387663,0.3875098827462643
1772615924438082300,3.796082275390625,0.7767986117333173,0.47807870000898833,0.7575371541634202
1772615924448150300,3.806150390625,1.0668664304465054,0.6652911244034767,1.035931997674331
1772615924458218000,3.816218017578125,1.1863123095601797,0.7913520377427339,1.1936409719478338
1772615924468286200,3.8262861328125,1.1966536708325146,0.8473650168657302,1.2454893056720495
1772615924478354200,3.836354248046875,1.106049270799756,0.7977157275557517,1.1845066483777016
1772615924488422100,3.846422119140625,0.9010425387784838,0.6856342397302388,1.0578365901641547
1772615924498490000,3.856489990234375,0.668724021461606,0.5954828441619873,0.9788944978091865
1772615924508558300,3.866558349609375,0.43429041168689725,0.42467444207966326,0.9326182651288807
1772615924518626300,3.876626220703125,0.21107845315039156,0.30206337693333624,0.8797505982942879
1772615924528694300,3.8866943359375,0.0020899580165743828,0.1807780074328184,0.8387211802262813
1772615924538762000,3.896761962890625,-0.16845745504200457,0.03587327741384506,0.7854224284980446
1772615924548830200,3.906830322265625,-0.30399755986630916,-0.07036708316802978,0.6519501429237425
1772615924558898200,3.916898193359375,-0.4393465260326862,-0.1521656609326601,0.4555642319925129
1772615924568966100,3.926966064453125,-0.5625824450790882,-0.2552057641685009,0.28765093029718847
1772615924579034000,3.9370341796875,-0.6447568704187869,-0.32242227435112,0.17894586010221392
1772615924589103000,3.94710302734375,-0.6921423064500093,-0.33600831663310526,0.14907533023450523
1772615924599171000,3.957171142578125,-0.7147720714092254,-0.2880646621972322,0.20592497937735169
1772615924609239000,3.967239013671875,-0.7161515430688857,-0.2008370451211929,0.33408750463835896
1772615924619307300,3.977307373046875,-0.6683014121353625,-0.1081155068039894,0.48645533707961436
1772615924629375200,3.987375244140625,-0.6005488953799009,-0.04627425991892815,0.5766588646939024
1772615924639443200,3.997443115234375,-0.5620820943415165,-0.02551613405048847,0.6069671649243682
1772615924649511200,4.00751123046875,-0.5419570056796074,0.0007727379381656646,0.6684806411597878
1772615924659579400,4.017579345703125,-0.541006573086977,-0.08286065403819083,0.710326490177214
1772615924669647000,4.027647216796875,-0.5802431894540786,-0.18059739016890525,0.574371374811232
1772615924679715000,4.037715087890625,-0.5556269268527627,-0.1489846928089857,0.37944190976601094
1772615924689783000,4.047782958984375,-0.5054822552412748,-0.1927116063326597,0.3139979987464845
1772615924699851300,4.057851318359375,-0.43616175851672884,-0.20651333719193934,0.31758773033414034
1772615924709919200,4.067919189453125,-0.34558950718790293,-0.18107728264033793,0.32076953870803115
1772615924719987200,4.0779873046875,-0.2133382147759199,-0.15856442205905913,0.40866544696707274
1772615924730055200,4.08805517578125,-0.023625497998297215,-0.17121698288321494,0.6446156353171915
1772615924740123400,4.098123291015625,0.17104513344764707,-0.26725042222738266,0.9047577599093317
1772615924750192000,4.108192138671875,0.28107904109358783,-0.40300913823843,0.9863579655576497
1772615924760260000,4.118260009765625,0.36120734755843875,-0.5240209514945745,0.89060107813254
1772615924770328600,4.12832861328125,0.3613920564755797,-0.6714701052993536,0.6540455808330327
1772615924780396500,4.138396484375,0.19744009615927932,-0.796441469836235,0.33333157170452177
1772615924790464500,4.148464599609375,-0.040159868691861625,-0.7863485303670168,0.10713146420270205
1772615924800532200,4.1585322265625,-0.30765871272236106,-0.7800023762106895,0.011788052949309348
1772615924810600400,4.168600341796875,-0.546642533147335,-0.6855038913488387,-0.03065064739473164
1772615924820668400,4.17866845703125,-0.7290379126489162,-0.5096376213550567,0.05176544121373444
1772615924830736400,4.188736328125,-0.9303004897058009,-0.37054245439767836,0.27403843839969483
1772615924840804400,4.198804443359375,-1.1120987800970672,-0.23712065690159798,0.5212213108386844
1772615924850872600,4.20887255859375,-1.2824746359810233,-0.1866384238988161,0.6551875174097717
1772615924860940500,4.2189404296875,-1.382234110110998,-0.15857202084362507,0.6379417105112224
1772615924871008500,4.229008544921875,-1.4281854216858745,-0.18769874660670757,0.4832396264361217
1772615924881076200,4.239076171875,-1.3971248052507639,-0.28011165736615656,0.24460217176340518
1772615924891144400,4.24914453125,-1.2650927085474133,-0.35903029578030105,-0.10545319225955754
1772615924901213400,4.25921337890625,-1.063495200447738,-0.36802433409690855,-0.4074679442781955
1772615924911281400,4.269281494140625,-0.8419117198958992,-0.3639361880004406,-0.5616966386878862
1772615924921349600,4.279349609375,-0.6026160570427775,-0.2617471486359835,-0.6494980735965072
1772615924931417300,4.289417236328125,-0.353521176970005,-0.08020809370279312,-0.6441418072603643
1772615924941485300,4.2994853515625,-0.117875853317976,0.08094225319623946,-0.6131989719860256
1772615924951553300,4.30955322265625,0.13644377566576002,0.28196751436591144,-0.6038054860230535
1772615924961621500,4.31962158203125,0.3859598037600517,0.48785015243887897,-0.609610701703094
1772615924971689500,4.329689453125,0.6289823781818151,0.6687292821586132,-0.6052726724987849
1772615924981757400,4.33975732421875,0.9402870461910963,0.8210346438229084,-0.5985354366656392
1772615924991825400,4.349825439453125,1.2849918794989585,0.9816501531928777,-0.5186708957035094
1772615925001893600,4.3598935546875,1.5190782832711933,1.0599831006735563,-0.3143288381360471
1772615925011961300,4.36996142578125,1.589583898127079,1.0361258397459983,-0.12350315514784306
1772615925022029300,4.380029296875,1.533698929297924,1.018981812721491,-0.039752091608569025
1772615925032097300,4.39009716796875,1.379677119104564,1.0178636223465203,-0.061456348353857174
1772615925042165500,4.40016552734375,1.1260422575145959,0.9638251581668853,-0.02914328417223878
1772615925052233500,4.4102333984375,0.7787985533788799,0.8706471082538366,0.13378379920888692
1772615925062302500,4.420302490234375,0.3529313943833112,0.7499608736902474,0.29099457816928626
1772615925072370400,4.430370361328125,-0.07953647805154324,0.6612175913542508,0.3093860479716211
1772615925082438400,4.4404384765625,-0.49279988380074496,0.5550426972240209,0.2465978025600314
1772615925092506400,4.45050634765625,-0.8596224408924579,0.3830401169210672,0.22175764980865642
1772615925102574300,4.46057421875,-1.1722697556823491,0.12961422190666197,0.13833495970722287
1772615925112642600,4.470642578125,-1.4119295756727457,-0.14939093552231789,-0.06491310121160931
1772615925122710500,4.48071044921875,-1.586821739937365,-0.38920273120403287,-0.34959085178375243
1772615925132778500,4.490778564453125,-1.6535773546099661,-0.544098693883419,-0.7319340724818408
1772615925142846500,4.500846435546875,-1.6582763260811566,-0.5761895301491021,-1.0382464851617812
1772615925152914400,4.51091455078125,-1.5386942533671855,-0.5636228940427302,-1.1507456138774752
1772615925162982400,4.520982421875,-1.3193755028769374,-0.47805707269906994,-1.099945108705759
1772615925173050400,4.53105029296875,-0.9852727276042104,-0.20145956093370912,-0.9494668163381517
1772615925183118300,4.541118408203125,-0.5506307260006665,0.03210895644426345,-0.6002816958110779
1772615925193186600,4.5511865234375,-0.09155454036444426,0.19652970331609249,-0.2723996582167223
1772615925203254500,4.561254638671875,0.37623803569078446,0.3310048092573881,-0.09948360719750635
1772615925213322500,4.571322509765625,0.7545406026959419,0.42146775499284267,-0.010982485887198709
1772615925223391500,4.5813916015625,0.9959978274971246,0.44073008934557434,0.030493548003723843
1772615925233459500,4.59145947265625,1.1332456130221484,0.4299515056997537,-0.023337913228571414
1772615925243527400,4.60152734375,1.2180176536396146,0.407127094951272,-0.1258437451909296
1772615925253595400,4.611595458984375,1.2316209393173456,0.33501521394252776,-0.2167152717272751
1772615925263663600,4.62166357421875,1.1860980822876095,0.24488895281553266,-0.3097106768161058
1772615925273731600,4.631731689453125,1.112060201652348,0.18155308345854282,-0.3904340996298939
1772615925283799300,4.64179931640625,1.007248704829812,0.10992694014012813,-0.3792793030828237
1772615925293867300,4.6518671875,0.8699988734781742,0.03291676569581031,-0.33625403502248224
1772615925303935500,4.661935546875,0.7462886149182916,-0.014432429978251456,-0.34689876315556467
1772615925314003500,4.67200341796875,0.622152824422717,-0.010580430725216866,-0.41648108915407206
1772615925324071400,4.682071533203125,0.44417438458055253,-0.03433890745341778,-0.437037591503188
1772615925334139400,4.692139404296875,0.18778554810732603,-0.09012450756132602,-0.4535171632695943
1772615925344207600,4.70220751953125,-0.10711392854601144,-0.10239128393828868,-0.514776007156819
1772615925354275600,4.712275634765625,-0.4327610101625323,-0.12273264569938182,-0.6872307882066816
1772615925364343300,4.72234326171875,-0.6964017174601554,-0.07241174073815346,-0.923922917497903
1772615925374411300,4.732411376953125,-0.8124100233405828,0.011858780097961425,-1.0714194906409829
1772615925384480500,4.74248046875,-0.7227163084119558,0.07713233951926231,-1.0046086386498063
1772615925394548500,4.752548583984375,-0.4713064293950796,0.18416940343677995,-0.8003508983649313
1772615925404616400,4.762616455078125,-0.08985650427490473,0.32168168511688705,-0.5461589143488556
1772615925414684400,4.772684326171875,0.30011019703894853,0.4070949462473392,-0.3123819053193554
1772615925424752400,4.78275244140625,0.5815615785762668,0.4714163195103407,-0.16871639823913573
1772615925434820400,4.7928203125,0.7518839507073164,0.5060585938245058,-0.12722260492923668
1772615925444888300,4.802888427734375,0.8046011031553149,0.48630526108443733,-0.15365270288633182
1772615925454956500,4.81295654296875,0.8096376360177994,0.4393161308944225,-0.18120622451594098
1772615925465024500,4.8230244140625,0.8152811948627233,0.38181028286516666,-0.17795447444468734
1772615925475092500,4.833092529296875,0.7964759566277265,0.2928098108977079,-0.133377300767228
1772615925485160400,4.843160400390625,0.7570704134345054,0.2558756262540817,-0.0908590232477989
1772615925495228400,4.853228515625,0.7430632231310009,0.18468144461214542,-0.049939627725793974
1772615925505296400,4.86329638671875,0.7293538467302918,0.04938917706906795,-0.02271582439102931
1772615925515364400,4.8733642578125,0.750599756115675,-0.029312603724002836,0.004175522985821589
1772615925525432300,4.883432373046875,0.8367892623156309,-0.11832535065114498,0.05315199106815271
1772615925535500500,4.89350048828125,0.9071142599076032,-0.2374760462105274,0.07224212892544456
1772615925545569500,4.903569580078125,0.9183183754891157,-0.3796329388260841,-0.0014542607787880115
1772615925555637200,4.91363720703125,0.8950058889627456,-0.4535714507400989,-0.14314082561898975
1772615925565705500,4.92370556640625,0.8734855465501546,-0.5164677596360445,-0.2492651951383799
1772615925575773400,4.9337734375,0.8684212488979101,-0.5429600452423096,-0.2222436797599308
1772615925585841400,4.94384130859375,0.8702095936194062,-0.5462631784409284,-0.03284277801099233
1772615925595909400,4.953909423828125,0.8756210972741245,-0.5779857659161091,0.26653721419041976
1772615925605977600,4.9639775390625,0.8882514462664722,-0.6891466317653656,0.5689259688869118
1772615925616045600,4.974045654296875,0.9083487701386213,-0.8115922772169113,0.7048271621085703
1772615925626113500,4.984113525390625,0.8001847480177879,-0.8573474816977977,0.6625441637828946
1772615925636181200,4.99418115234375,0.5481967768520116,-0.9920780237048864,0.6212001998730003
1772615925646249500,5.00424951171875,0.2568202136278152,-1.172279108032584,0.5478324370516464
1772615925656317400,5.0143173828125,-0.08072013487815856,-1.325008248066902,0.275612610647548
1772615925666385400,5.024385498046875,-0.4667728776186704,-1.3697118976682423,-0.11418801338439806
1772615925676453400,5.034453369140625,-0.8667477627277373,-1.3985153828263281,-0.4956603512657806
1772615925686521600,5.044521484375,-1.1320458818435668,-1.3854910660803317,-0.7573942385613918
1772615925696590300,5.05459033203125,-1.260971536964178,-1.303217856541276,-0.9596236878890544
1772615925706658300,5.064658203125,-1.2351119963034987,-1.0808943712770938,-1.1440665014397353
1772615925716726500,5.0747265625,-1.0903680098041892,-0.761301182872057,-1.1148771587692201
1772615925726794500,5.08479443359375,-0.833844148774445,-0.48478901130259033,-0.7576273166649043
1772615925736862500,5.094862548828125,-0.46029403699338434,-0.20345570318698883,-0.29845581742804494
1772615925746930400,5.104930419921875,-0.11753010862022638,0.09818623346388339,0.06428513290584087
1772615925756998700,5.11499853515625,0.18273790932893752,0.32985622374415396,0.27577614891249685
1772615925767066400,5.12506640625,0.4155488863378763,0.4924854110240936,0.34641017592102286
1772615925777134000,5.135134033203125,0.5945087384328246,0.6161714119255542,0.27372323497068135
1772615925787202000,5.1452021484375,0.7315326520740986,0.7419996855527162,0.15920443699564785
1772615925797270300,5.155270263671875,0.7858151541426778,0.8385241232842207,0.14290526329744607
1772615925807338200,5.165338134765625,0.7856570409715176,0.9110323101341724,0.1673571656499058
1772615925817406200,5.17540625,0.7444236978292464,0.9778595287382602,0.2079612709779292
1772615925827474200,5.18547412109375,0.6718044518202543,1.0611287635773419,0.31731928865630177
1772615925837542400,5.19554248046875,0.6281885974556207,1.086675292766094,0.4603226055007428
1772615925847611100,5.205611083984375,0.6003922435134649,1.0772481237292288,0.5658593843905255
1772615925857679000,5.21567919921875,0.5669897401273251,0.9948580098122358,0.5677626972611993
1772615925867747000,5.2257470703125,0.5318310407236219,0.8612006499946117,0.4968727227302268
1772615925877815300,5.235815185546875,0.4562485609948635,0.771761786609888,0.3737632796077057
1772615925887883300,5.24588330078125,0.35339842737317084,0.6444441512078046,0.23919494242500514
1772615925897951200,5.255951171875,0.20863164452016353,0.5198527258992195,0.09049535016771405
1772615925908019200,5.266019287109375,0.023289105650782585,0.49004737022221084,-0.024048107324540612
1772615925918087200,5.276087158203125,-0.12999825278818605,0.5238707293689251,0.0006330737391486763
1772615925928155100,5.286155029296875,-0.26633973712325093,0.5513607938408851,0.17874971647560595
1772615925938223000,5.29622314453125,-0.3567918692037463,0.5860381394684314,0.41932427669074385
1772615925948291300,5.306291259765625,-0.4246235886752605,0.5941483806878328,0.6454316278751939
1772615925958359300,5.316359375,-0.464436835886538,0.5621604202747345,0.8639293443061411
1772615925968427300,5.32642724609375,-0.49159606096893543,0.4460784646362066,1.0784350684914736
1772615925978494200,5.336494140625,-0.5647942759096622,0.2907441105395555,1.2349467227391897
1772615925988562200,5.346562255859375,-0.6880392550453543,0.175092363011837,1.3722852552875875
1772615925998630400,5.35663037109375,-0.8445251172646879,-0.03874211084842682,1.4539881175927818
1772615926008699100,5.36669921875,-1.0109820461392403,-0.3181237003743648,1.4276368478924035
1772615926018767000,5.37676708984375,-1.2327718629181383,-0.6293389365345239,1.2335302800700068
1772615926028835300,5.38683544921875,-1.4841577765375376,-0.8715829277992247,0.858088217062503
1772615926038903300,5.3969033203125,-1.745578761959076,-0.986176106184721,0.4275590210726484
1772615926048971300,5.40697119140625,-2.0380638709470627,-1.0906184774339198,-0.009339129993808456
1772615926059039200,5.417039306640625,-2.1485475681871176,-1.0562123499631881,-0.43245672998633233
1772615926069107200,5.427107177734375,-1.975979462955892,-0.8977999035954475,-0.654239788230881
1772615926079175200,5.437175048828125,-1.5221259804040193,-0.677222969737649,-0.5967276565913111
1772615926089243100,5.4472431640625,-0.8619327636614441,-0.40328561709225175,-0.28374840643331406
1772615926099311000,5.45731103515625,-0.13076836037784814,-0.13406535609662532,0.1528543007839471
1772615926109379300,5.46737939453125,0.5872708961337805,0.057851884987950325,0.6047363736649974
1772615926119447300,5.477447265625,1.1287006630688905,0.2730681685954332,0.9202226747404784
1772615926129515300,5.487515380859375,1.4607880068659782,0.49439972021281714,1.0476139599006622
1772615926139583200,5.497583251953125,1.6998387550473213,0.5709241569668054,1.0769736176367848
1772615926149651200,5.507651123046875,1.7729583517938852,0.6531453440576791,1.0365053405828772
1772615926159720200,5.51772021484375,1.6940069801539182,0.6806319013983011,1.002295831662789
1772615926169788200,5.5277880859375,1.5105512779444454,0.6436608918756246,1.0297514824084937
1772615926179856400,5.5378564453125,1.2981754784598947,0.5985527531266213,1.0545475585561246
1772615926189924400,5.54792431640625,1.0395125595748425,0.535208115941286,1.0203878801271318
1772615926199992000,5.557991943359375,0.8016118582114576,0.5007593183726072,1.0045212526272982
1772615926210060000,5.56806005859375,0.6060697046279907,0.4066740904867649,0.9837023364823311
1772615926220128300,5.578128173828125,0.4654769925892353,0.36749943343997,0.9362643665462732
1772615926230196200,5.5881962890625,0.35042525678128,0.2920703907072544,0.8646281402252614
1772615926240264200,5.59826416015625,0.25063714107871055,0.17307751605808733,0.7485317907352
1772615926250332200,5.608332275390625,0.20848288369923829,0.054610126587748525,0.5617212616724893
1772615926260400400,5.618400390625,0.16849895609617233,-0.03966507091224193,0.31978235430158675
1772615926270468400,5.62846826171875,0.12124620653390884,-0.07652034510076046,0.13006996631752699
1772615926280536000,5.6385361328125,0.03404723103046417,-0.08598667710423469,0.07919387515895068
1772615926290604000,5.64860400390625,-0.09288929609954356,-0.08003565974533558,0.11046600631973706
1772615926300672300,5.65867236328125,-0.24534604893326759,-0.05734218190014362,0.1501009652215056
1772615926310740200,5.668740234375,-0.4259633128464222,-0.006709726771712303,0.15802162041924894
1772615926320809200,5.678809326171875,-0.5674731397300958,0.021935352954268454,0.18764953717011956
1772615926330877200,5.688877197265625,-0.6717004069238901,0.03202770790159702,0.24036650695502756
1772615926340945200,5.698945068359375,-0.7456243057906627,0.004787234276533127,0.2236677029473707
1772615926351013000,5.70901318359375,-0.7242687985509634,0.031032267123460768,0.13859481621980665
1772615926361081000,5.7190810546875,-0.5954989185139536,-0.002478372812271118,0.04087622766713612
1772615926371149300,5.7291494140625,-0.3610170856833458,-0.07764847234785556,-0.028043816764047366
1772615926381217300,5.73921728515625,-0.08612345522642136,-0.1804594430029392,0.04223027262459509
1772615926391286000,5.7492861328125,0.17006372119486332,-0.29181495464146134,0.23554052983699364
1772615926401354000,5.75935400390625,0.33500732289701696,-0.39355625023841856,0.34503954515494406
1772615926411422200,5.769422119140625,0.4592971349105239,-0.43874213039875026,0.21236714125405995
1772615926421490200,5.779490234375,0.5169698639392852,-0.47062896852493286,-0.039388455061102286
1772615926431558100,5.78955810546875,0.4802817630112171,-0.5510650257647037,-0.13556980584282427
1772615926441626000,5.799626220703125,0.3778606684565544,-0.6070201372206211,-0.05378441635333001
1772615926451694300,5.8096943359375,0.21772797416746614,-0.6247036779493094,0.1328258408969268
1772615926461763000,5.81976318359375,0.005372925209999084,-0.6518962207794189,0.3275563493039459
1772615926471831000,5.8298310546875,-0.3214645352348685,-0.7971978411614894,0.4444137462943792
1772615926481899300,5.839899169921875,-0.72471332744807,-0.9443570721089839,0.3217553348749876
1772615926491967200,5.84996728515625,-1.1983178046524523,-0.9433329897582531,0.06655312350359745
1772615926502035200,5.86003515625,-1.6788941666960715,-0.9833686475485562,-0.2817061052170582
1772615926512103200,5.870103271484375,-1.9666028550624846,-1.0105974307358265,-0.5253382446382194
1772615926522171100,5.880171142578125,-2.217285004326701,-0.8870867864012718,-0.7014503060866147
1772615926532239000,5.890239013671875,-2.3093051163762808,-0.6917120983392,-0.933930809032172
1772615926542307000,5.90030712890625,-2.1545155366808175,-0.3618564591169357,-1.0635122977130114
1772615926552375000,5.910375,-1.8293407487511635,-0.03493336621522903,-1.0520353565394878
1772615926562443300,5.920443359375,-1.3831383654743432,0.239968447548151,-0.9564290565662086
1772615926572511200,5.93051123046875,-0.7721124997437,0.5076064077883958,-0.8129617389392108
1772615926582579200,5.9405791015625,-0.2233499057024717,0.6896972513854503,-0.6945839274484664
1772615926592647200,5.950647216796875,0.19621756862699985,0.8429980538278817,-0.7121924301795661
1772615926602715100,5.960715087890625,0.5225818586021661,0.9450520686358213,-0.8642558728467673
1772615926612784000,5.9707841796875,0.8240724040836095,1.0976356627196073,-0.9752470812175422
1772615926622852000,5.98085205078125,1.147017533265054,1.168812308704853,-0.8778989790782332
1772615926632920300,5.99092041015625,1.4955758271306752,1.1554355252593755,-0.5967800078330561
1772615926642988300,6.00098828125,1.792365939836204,1.154871461635828,-0.2565090653194114
1772615926653056300,6.01105615234375,1.9507699106365441,1.0998112531930209,0.09453163821278139
1772615926663124000,6.0211240234375,1.9552222138702868,1.0133218872636556,0.3078837901825085
1772615926673192200,6.031192138671875,1.8170993990764022,0.8922925383508205,0.33420367836393416
1772615926683260200,6.04126025390625,1.5608739364713429,0.7059189028680324,0.23632820961596443
1772615926693328100,6.051328125,1.2031921326905488,0.4763876781821251,0.08826035765726119
1772615926703396000,6.06139599609375,0.7747732433855533,0.31175708795189855,-0.05723362522544339
1772615926713464300,6.07146435546875,0.31755612961947915,0.18747955089807508,-0.21328767189877107
1772615926723532300,6.0815322265625,-0.1548120837882161,0.07885492552816867,-0.42127420518212016
1772615926733600300,6.091600341796875,-0.5718652372092008,0.012568389672040938,-0.6047445935040712
1772615926743668000,6.10166796875,-0.9470835744634271,-0.06461188064217567,-0.7009159069489688
1772615926753736200,6.111736083984375,-1.2326280705332755,-0.09291267697513103,-0.672564403342083
1772615926763804200,6.12180419921875,-1.3891449124127626,-0.05808686278760433,-0.5976162029288709
1772615926773874000,6.1318740234375,-1.4050205269366502,-0.012851882788538932,-0.4447270865598693
1772615926783941600,6.141941650390625,-1.277158117133379,-0.004988894328474998,-0.322824644606933
1772615926794009900,6.152009765625,-1.0294231272369623,-0.02809679819345474,-0.2929778974736109
1772615926804077800,6.162077880859375,-0.7144377248883247,-0.04800678279995918,-0.3640935705192387
1772615926814145800,6.172145751953125,-0.3691878249183297,-0.055253100666403765,-0.4547251873524859
1772615926824213800,6.1822138671875,-0.053093292284011835,-0.10935995390713214,-0.5415294279173016
1772615926834282000,6.192281982421875,0.18870120164752005,-0.15783493874073026,-0.6300991803172975
1772615926844350000,6.202349853515625,0.32045886532366274,-0.12093524088859557,-0.705047453795746
1772615926854418000,6.21241796875,0.3807333012834191,-0.05947334870994091,-0.6815940974939614
1772615926864485600,6.222485595703125,0.42643151488006115,-0.011331541353464127,-0.6424784040927887
1772615926874553900,6.232553955078125,0.4929477678388357,0.05162321973145008,-0.6366062971889972
1772615926884621800,6.242621826171875,0.6134183138251305,0.14189794941842554,-0.6031998117474838
1772615926894689800,6.252689697265625,0.7721855649799108,0.19390753811895847,-0.5099356909861787
1772615926904757800,6.2627578125,0.94470018645823,0.2776233476817608,-0.3759348514931276
1772615926914826800,6.27282666015625,1.121383618053794,0.38030280091166496,-0.20982048897854982
1772615926924894700,6.282894775390625,1.2202478969097137,0.4229308132827282,-0.011689122619479894
1772615926934962700,6.292962646484375,1.2137655491530894,0.4364630795508623,0.09027177054490894
1772615926945031000,6.303031005859375,1.1119655091062188,0.44281566344797607,0.0743958454937674
1772615926955099000,6.313098876953125,0.9036331397935747,0.38242578441500663,0.0466695428468287
1772615926965166800,6.323166748046875,0.6126499598011375,0.27287586089372634,-0.015810531664732844
1772615926975234800,6.33323486328125,0.37298517137467857,0.2606909175813198,-0.06751806867877021
1772615926985303000,6.343302978515625,0.201152102419734,0.2489619013428688,-0.024902696593571454
1772615926995370800,6.353370849609375,0.0927133550107479,0.2355728429377079,0.13409377847351134
1772615927005438700,6.363438720703125,0.05366086303889751,0.19585516505539416,0.21805921541582793
1772615927015506700,6.373506591796875,0.11878712294399738,0.19258242699503897,0.23403436305774375
1772615927025575000,6.383574951171875,0.2448223173201084,0.19051205046176908,0.30417865205425765
1772615927035643000,6.393642822265625,0.3317021438717842,0.07800503070056437,0.3879854643687606
1772615927045710800,6.4037109375,0.3739005326539278,-0.04884206458032131,0.3436079779818654
1772615927055778800,6.41377880859375,0.4215595249295234,-0.1352156951755285,0.24360167121766133
1772615927065847800,6.423847900390625,0.48843233624100685,-0.29230887563824653,0.20357032427629454
1772615927075915800,6.433915771484375,0.5753922422915697,-0.4386106129735708,0.1970003895677626
1772615927085983700,6.443983642578125,0.7030033076822757,-0.5739385363519192,0.18140375638203696
1772615927096051700,6.4540517578125,0.8182692707628011,-0.6646756228536367,0.18273063933793454
1772615927106120000,6.464119873046875,0.8202712582349777,-0.745914813169837,0.15815145734399555
1772615927116188000,6.47418798828125,0.6985235319197177,-0.7859422876536846,0.05040653741806745
1772615927126255900,6.484255859375,0.5366542230963707,-0.7476333075255155,-0.10219616322498767
1772615927136323800,6.49432373046875,0.37357963013648987,-0.7074263848215341,-0.17174774702535942
1772615927146391800,6.504391845703125,0.25663258210122586,-0.6786871970713139,-0.18386901398440822
1772615927156459800,6.514459716796875,0.22170623014867305,-0.624077655005455,-0.14244526283657177
1772615927166527700,6.52452783203125,0.29765374379754067,-0.6091600718587636,-0.04257692150464281
1772615927176596000,6.534595947265625,0.3568991289705038,-0.6468038660764693,0.10033745668102055
1772615927186664000,6.544663818359375,0.35501346135437484,-0.6583101794749499,0.0204261539677158
1772615927196732000,6.55473193359375,0.31649756047725675,-0.6461223135530948,-0.010476732888724654
1772615927206800000,6.5647998046875,0.31639000844955445,-0.6731698949545621,0.04917999129779636
1772615927216868900,6.574868896484375,0.10630465798974037,-0.7081412550926208,-0.17699616907285526
1772615927226936800,6.584936767578125,-0.18288813145458696,-0.8338912027865648,-0.6755600780267268
1772615927237004800,6.5950048828125,-0.36216976284980773,-0.9246610225141048,-1.3473979206599294
1772615927247072800,6.60507275390625,-0.37016952943205833,-0.902403597998619,-1.7907067744523286
1772615927257141000,6.61514111328125,-0.28071663752198217,-0.7922925334632396,-1.7661625541739165
1772615927267208700,6.625208740234375,-0.08381810089349746,-0.6024830783128738,-1.5143677674926816
1772615927277276700,6.635276611328125,0.24206337400078773,-0.3748579795092344,-1.2062693481788038
1772615927287344600,6.6453447265625,0.46753509416282174,-0.16385785229206085,-0.741507810382545
1772615927297412900,6.655412841796875,0.5085843129098415,0.07480944952964783,-0.2696718041554093
1772615927307480800,6.665480712890625,0.3709364221513271,0.20367723698318002,-0.09800236479695885
1772615927317548800,6.675548828125,0.24693945560455322,0.037405893808603284,-0.22771948082251472
1772615927327617000,6.685616943359375,-0.19912205789685247,-0.22841069622337817,-0.3595163987968117
1772615927337685000,6.69568505859375,-0.7957499804407357,-0.374366396600008,-0.566452564510703
1772615927347752700,6.705752685546875,-0.9735434191048145,-0.1613151820719242,-0.6768713067557662
1772615927357820700,6.715820556640625,-1.1789660384505987,-0.007401216167211532,-0.6635197308167815
1772615927367890000,6.725889892578125,-1.2386579983472823,0.13796177901327608,-0.6316960941199213
1772615927377958000,6.7359580078125,-1.094872043225169,0.31401451148986814,-0.520742550878413
1772615927388025900,6.74602587890625,-0.8393114742696285,0.42174306480288504,-0.48493908729776736
1772615927398093800,6.75609375,-0.5536994659215212,0.5017173497498035,-0.46584275716170664
1772615927408161800,6.766161865234375,-0.2932727522343397,0.5654729058235883,-0.3934679143678397
1772615927418229800,6.776229736328125,-0.001803250029683113,0.6487158371776341,-0.30000996980117633
1772615927428297700,6.786297607421875,0.31624153988957404,0.7241390346914529,-0.1716629000198096
1772615927438365700,6.79636572265625,0.5541349347293376,0.6960989351212978,-0.024172391291335225
1772615927448434000,6.806433837890625,0.6642021601229906,0.6261959623336791,0.02090021948656067
1772615927458502000,6.816501953125,0.6699924339622259,0.6019079087734222,0.0016185959114693104
1772615927468569900,6.82656982421875,0.573082796305418,0.5744435632646083,0.040881369633134455
1772615927478637600,6.836637451171875,0.31208383568823334,0.5140729734539985,0.09423512121792882
1772615927488705800,6.846705810546875,-0.067076809450984,0.5864420440942049,0.16636731436233967
1772615927498773800,6.856773681640625,-0.37587329403162,0.35939328387379643,-0.0697822142184712
1772615927508841700,6.866841796875,-0.586505172458291,0.2584814248383045,-0.3026037856866605
1772615927518911000,6.876910888671875,-0.6621931583881377,0.22330665108263492,-0.3306558131566271
1772615927528979000,6.88697900390625,-0.6428817241966724,0.15163199244737624,-0.21901624214602633
1772615927539046700,6.897046630859375,-0.5351286209642887,0.15012801762521266,-0.08095770649369806
1772615927549114600,6.907114501953125,-0.40327918735146523,0.1506400588005781,0.06387443321309984
1772615927559182800,6.917182861328125,-0.36209494404792786,0.11283610558509825,0.17441406189147382
1772615927569250800,6.927250732421875,-0.42581133715510366,0.14046061009168623,0.18585412338702006
1772615927579318800,6.93731884765625,-0.5480769498646259,0.19584639722704886,0.14673223770707844
1772615927589386800,6.94738671875,-0.7437146727770566,0.22387539088129996,0.10241417162353172
1772615927599455000,6.957455078125,-0.9026590340644121,0.28554186572134493,0.06271651361593976
1772615927609523000,6.96752294921875,-0.9489040678888558,0.36581191874444485,0.00961839902633801
1772615927619590700,6.977590576171875,-0.9182885648727417,0.3847895909368992,0.028260190327931194
1772615927629658600,6.98765869140625,-0.8510358143329619,0.32411154261231423,0.0912469083205331
1772615927639726800,6.997726806640625,-0.7310965987443924,0.32417817810773847,0.15263085815845986
1772615927649794800,7.007794921875,-0.5575134712517261,0.3180757695794105,0.21120744982492176
1772615927659862800,7.01786279296875,-0.3930085532277822,0.30928748296797276,0.2884682014968246
1772615927669931800,7.027931884765625,-0.27436463814675804,0.3546843755304813,0.38399960960298773
1772615927679999700,7.037999755859375,-0.25542905153036116,0.386574720788002,0.4136572639049962
1772615927690067700,7.048067626953125,-0.33401685055494307,0.32226269987523554,0.3001366831870749
1772615927700135700,7.0581357421875,-0.3385679379880428,0.27981296668052674,0.136063233649265
1772615927710204000,7.068203857421875,-0.4250637336581945,0.3119330290406942,0.11113370384769514
1772615927720272000,7.07827197265625,-0.4879325700253248,0.28494039269685745,0.0400523531967774
1772615927730339800,7.08833984375,-0.40560383090674873,0.3896066358298063,-0.022297464264929293
1772615927740407800,7.09840771484375,-0.2954816604554653,0.4420651373416185,0.028803535390435717
1772615927750475800,7.108475830078125,-0.1576291870355606,0.4044382942587137,0.1363731672481168
1772615927760543700,7.118543701171875,0.049558688417077064,0.42439854774773117,0.26879191604834046
1772615927770611200,7.128611083984375,0.22825345983505246,0.48038230077624317,0.38717787431292233
1772615927780679200,7.13867919921875,0.34436785643845796,0.512570752197504,0.4880437022496015
1772615927790747100,7.1487470703125,0.4552987129241228,0.4804074352174997,0.5452836658842861
1772615927800815400,7.1588154296875,0.5456438774988055,0.3914420345634222,0.5259245566261932
1772615927810883300,7.16888330078125,0.5549193631052971,0.23097791636288165,0.4730483776915818
1772615927820952000,7.1789521484375,0.41115445077121254,0.03413490931391716,0.403130791856721
1772615927831020000,7.18902001953125,0.1636421637147665,-0.11074468626379966,0.31833325147181746
