time,seconds_elapsed,z,y,x
1772615920702831600,0.06083154296875,-0.05333269387483597,0.12262111157178879,0.14974871277809143
1772615920712899600,0.070899658203125,-0.06464420258998871,0.09214149415493011,0.10172101110219955
1772615920722967600,0.080967529296875,-0.08072753995656967,0.07596392184495926,0.03929726406931877
1772615920733035500,0.091035400390625,-0.08831647783517838,0.07857329398393631,-0.038483817130327225
1772615920743103500,0.101103515625,-0.08997942507266998,0.09970992058515549,-0.12661884725093842
1772615920753171700,0.111171630859375,-0.090733103454113,0.13514940440654755,-0.19518274068832397
1772615920763239400,0.121239501953125,-0.10011321306228638,0.16661715507507324,-0.21606551110744476
1772615920773307400,0.131307373046875,-0.1062973365187645,0.1797177791595459,-0.20322002470493317
1772615920783375400,0.141375244140625,-0.10581517219543457,0.18640567362308502,-0.1735638827085495
1772615920793443300,0.151443359375,-0.09280882775783539,0.20110471546649933,-0.1373949497938156
1772615920803512300,0.16151220703125,-0.07520968466997147,0.19524997472763062,-0.10250099003314972
1772615920813580300,0.171580322265625,-0.03991800546646118,0.16412454843521118,-0.0877838283777237
1772615920823648300,0.181648193359375,-0.0005793545278720558,0.1378765106201172,-0.09917126595973969
1772615920833716500,0.191716552734375,0.03810146078467369,0.13012884557247162,-0.1166410744190216
1772615920843784400,0.201784423828125,0.07320878654718399,0.12466033548116684,-0.1295517086982727
1772615920853852200,0.21185205078125,0.10576113313436508,0.10966434329748154,-0.1308947205543518
1772615920863920000,0.221920166015625,0.13005754351615906,0.09024452418088913,-0.12441524118185043
1772615920873988400,0.23198828125,0.1523924022912979,0.08680238574743271,-0.08984953910112381
1772615920884056300,0.242056396484375,0.17112882435321808,0.07980025559663773,-0.04507702216506004
1772615920894124300,0.252124267578125,0.19021756947040558,0.06824373453855515,-0.005554378032684326
1772615920904192300,0.262192138671875,0.20607726275920868,0.06851360201835632,0.03116099163889885
1772615920914260500,0.272260498046875,0.21713204681873322,0.06864409148693085,0.05373900383710861
1772615920924328400,0.282328369140625,0.22701488435268402,0.07400628179311752,0.06033296510577202
1772615920934396200,0.292396240234375,0.223765030503273,0.0952412560582161,0.07280748337507248
1772615920944464100,0.302464111328125,0.21074993908405304,0.08759652078151703,0.09969598054885864
1772615920954532400,0.312532470703125,0.2189554125070572,0.05523432418704033,0.1314280778169632
1772615920964600300,0.322600341796875,0.24438267946243286,0.04233930632472038,0.15095289051532745
1772615920974669300,0.33266943359375,0.2676112949848175,0.050474733114242554,0.15014009177684784
1772615920984737300,0.3427373046875,0.2682100236415863,0.0635337308049202,0.1435316652059555
1772615920994805200,0.35280517578125,0.23568670451641083,0.07485562562942505,0.13672515749931335
1772615921004873200,0.362873291015625,0.18686875700950623,0.08719992637634277,0.14004036784172058
1772615921014941200,0.372941162109375,0.13862106204032898,0.10078923404216766,0.14484551548957825
1772615921025009400,0.383009521484375,0.10185781121253967,0.12564191222190857,0.15729936957359314
1772615921035077400,0.393077392578125,0.08444073796272278,0.12950164079666138,0.17126071453094482
1772615921045145300,0.403145263671875,0.08657415211200714,0.11687517911195755,0.17784948647022247
1772615921055213300,0.41321337890625,0.10891887545585632,0.10427124053239822,0.16253790259361267
1772615921065281300,0.42328125,0.14311541616916656,0.0862935483455658,0.13281205296516418
1772615921075349200,0.433349365234375,0.17987263202667236,0.0608060322701931,0.10059633105993271
1772615921085417200,0.443417236328125,0.20143944025039673,0.035265352576971054,0.05297871306538582
1772615921095485200,0.453485107421875,0.2095538228750229,0.022160202264785767,0.012266701087355614
1772615921105553400,0.463553466796875,0.2094215452671051,0.015473742038011551,-0.0405452698469162
1772615921115621400,0.473621337890625,0.212083637714386,0.02737833932042122,-0.10826173424720764
1772615921125689300,0.483689453125,0.20603728294372559,0.04394565522670746,-0.18155235052108765
1772615921135758300,0.49375830078125,0.2119910567998886,0.0682736337184906,-0.25798481702804565
1772615921145826300,0.503826416015625,0.21571815013885498,0.10735861212015152,-0.33348381519317627
1772615921155894300,0.513894287109375,0.22135686874389648,0.14233604073524475,-0.37222880125045776
1772615921165962200,0.523962158203125,0.21486850082874298,0.1582900732755661,-0.38592711091041565
1772615921176030500,0.534030517578125,0.20174604654312134,0.1685914397239685,-0.3704104721546173
1772615921186098400,0.544098388671875,0.19774377346038818,0.17832893133163452,-0.3250740170478821
1772615921196166400,0.55416650390625,0.19757546484470367,0.18543317914009094,-0.25853201746940613
1772615921206234000,0.564234130859375,0.2088322937488556,0.19011417031288147,-0.1883208006620407
1772615921216302300,0.57430224609375,0.22399073839187622,0.19396217167377472,-0.12030179798603058
1772615921226370300,0.584370361328125,0.24064978957176208,0.20437800884246826,-0.06399761140346527
1772615921236438300,0.594438232421875,0.26046237349510193,0.23260246217250824,-0.017319852486252785
1772615921246506200,0.60450634765625,0.26685112714767456,0.2661627531051636,0.011722560971975327
1772615921256574500,0.614574462890625,0.25702884793281555,0.3141787350177765,0.038796521723270416
1772615921266642400,0.624642333984375,0.2432519644498825,0.3504137694835663,0.06227244436740875
1772615921276710100,0.634710205078125,0.24137789011001587,0.3568229377269745,0.08126024901866913
1772615921286778000,0.644778076171875,0.2484564632177353,0.34012654423713684,0.09941445291042328
1772615921296847400,0.654847412109375,0.26249557733535767,0.309561163187027,0.11385943740606308
1772615921306915300,0.664915283203125,0.27367591857910156,0.2887631952762604,0.1311548501253128
1772615921316983300,0.6749833984375,0.2808917462825775,0.2775406241416931,0.15225107967853546
1772615921327051500,0.685051513671875,0.27207377552986145,0.2581685483455658,0.17735552787780762
1772615921337119200,0.695119140625,0.25632891058921814,0.21826772391796112,0.2119675725698471
1772615921347187200,0.705187255859375,0.23206780850887299,0.1487090140581131,0.25317198038101196
1772615921357255200,0.715255126953125,0.21890433132648468,0.10402383655309677,0.2912155091762543
1772615921367323400,0.725323486328125,0.2077169418334961,0.10004673898220062,0.32196617126464844
1772615921377391400,0.735391357421875,0.18354129791259766,0.11662837862968445,0.3398929834365845
1772615921387459300,0.745459228515625,0.14685888588428497,0.1557914763689041,0.35022348165512085
1772615921397527300,0.75552734375,0.10456469655036926,0.19843773543834686,0.3819478452205658
1772615921407595500,0.765595458984375,0.028216874226927757,0.2017471045255661,0.41352319717407227
1772615921417663200,0.775663330078125,-0.03410802036523819,0.15664167702198029,0.4258035719394684
1772615921427731200,0.785731201171875,-0.03555254265666008,0.107862189412117,0.397103488445282
1772615921437799200,0.795799072265625,0.03971078619360924,0.06384973227977753,0.30588993430137634
1772615921447867400,0.805867431640625,0.14351600408554077,0.040619559586048126,0.16865971684455872
1772615921457936400,0.815936279296875,0.22904208302497864,0.014623111113905907,0.012829897925257683
1772615921468004400,0.82600439453125,0.2823471128940582,0.02252853475511074,-0.11498977243900299
1772615921478072300,0.836072265625,0.27263668179512024,0.050121281296014786,-0.19577568769454956
1772615921488140300,0.846140380859375,0.22478832304477692,0.1042264997959137,-0.21900780498981476
1772615921498208300,0.856208251953125,0.16267701983451843,0.1948898285627365,-0.18270066380500793
1772615921508276200,0.866276123046875,0.10701605677604675,0.27047640085220337,-0.09148190170526505
1772615921518344400,0.876344482421875,0.04960309714078903,0.30194327235221863,0.06280726939439774
1772615921528412400,0.886412353515625,-0.0049097915180027485,0.27158576250076294,0.2643373906612396
1772615921538480400,0.89648046875,0.0026487922295928,0.15818223357200623,0.45393288135528564
1772615921548548000,0.906548095703125,0.07923311740159988,0.05411239340901375,0.6219913363456726
1772615921558616300,0.9166162109375,0.1831696331501007,-0.01584724709391594,0.7501985430717468
1772615921568684300,0.926684326171875,0.2657987177371979,-0.04364820197224617,0.8285365104675293
1772615921578752300,0.936752197265625,0.31806033849716187,-0.04563784971833229,0.8665360808372498
1772615921588820200,0.9468203125,0.3355473279953003,-0.017336029559373856,0.8604187965393066
1772615921598888400,0.956888427734375,0.32312580943107605,0.028108950704336166,0.8122499585151672
1772615921608956400,0.966956298828125,0.2807559370994568,0.10498667508363724,0.7400541305541992
1772615921619024400,0.9770244140625,0.22142015397548676,0.194766104221344,0.6572545766830444
1772615921629093400,0.98709326171875,0.1524561643600464,0.2673398554325104,0.6002171039581299
1772615921639161300,0.997161376953125,0.08528536558151245,0.2779237926006317,0.5626875758171082
1772615921649229300,1.007229248046875,0.03630507364869118,0.2453451305627823,0.5342295169830322
1772615921659297300,1.01729736328125,0.013344095088541508,0.18718674778938293,0.5149780511856079
1772615921669365500,1.027365478515625,0.004378843121230602,0.10712586343288422,0.4888830780982971
1772615921679433500,1.03743359375,0.0011127421166747808,0.002089190762490034,0.4536944627761841
1772615921689501200,1.047501220703125,0.008810012601315975,-0.07034105807542801,0.41018015146255493
1772615921699569200,1.057569091796875,0.02560204267501831,-0.12261438369750977,0.3302975594997406
1772615921709637400,1.067637451171875,0.045884475111961365,-0.1391407996416092,0.2188664823770523
1772615921719705300,1.077705322265625,0.058577898889780045,-0.11548208445310593,0.08672362565994263
1772615921729773300,1.087773193359375,0.0667257085442543,-0.08095666766166687,-0.0521375946700573
1772615921739841300,1.09784130859375,0.06727086007595062,-0.044881220906972885,-0.175821453332901
1772615921749909500,1.107909423828125,0.054281704127788544,-0.011258790269494057,-0.27222099900245667
1772615921759977200,1.117977294921875,0.03489841893315315,0.026672346517443657,-0.3146249055862427
1772615921770045400,1.12804541015625,0.02731909789144993,0.05651139095425606,-0.32664090394973755
1772615921780114400,1.138114501953125,0.026654640212655067,0.1081431582570076,-0.2986127436161041
1772615921790182700,1.1481826171875,0.031020572409033775,0.17901897430419922,-0.2595013976097107
1772615921800250600,1.158250732421875,0.034454189240932465,0.2500896751880646,-0.1984279304742813
1772615921810318600,1.168318603515625,0.048226647078990936,0.2915889620780945,-0.12127786129713058
1772615921820386300,1.17838623046875,0.06440216302871704,0.32837042212486267,-0.02471749484539032
1772615921830454500,1.18845458984375,0.08260999619960785,0.35639169812202454,0.06689585745334625
1772615921840522500,1.1985224609375,0.10615793615579605,0.3633129894733429,0.1293374001979828
1772615921850590500,1.208590576171875,0.12344042211771011,0.3786088526248932,0.16395018994808197
1772615921860658400,1.218658447265625,0.13831256330013275,0.39345782995224,0.1637299358844757
1772615921870726700,1.2287265625,0.15335586667060852,0.4241373538970947,0.12557478249073029
1772615921880794600,1.238794677734375,0.1740611493587494,0.44432011246681213,0.05625908821821213
1772615921890862600,1.248862548828125,0.1989787518978119,0.4685755968093872,-0.02892986312508583
1772615921900930300,1.258930419921875,0.2293073683977127,0.46792900562286377,-0.11580564081668854
1772615921910998500,1.26899853515625,0.26543131470680237,0.45996424555778503,-0.20341764390468597
1772615921921066500,1.27906640625,0.30502960085868835,0.47408461570739746,-0.2801041603088379
1772615921931134500,1.289134521484375,0.3416023254394531,0.47360655665397644,-0.31356069445610046
1772615921941202400,1.299202392578125,0.3671976923942566,0.4531058073043823,-0.3238101303577423
1772615921951270700,1.309270751953125,0.38318148255348206,0.4361943304538727,-0.31185075640678406
1772615921961339400,1.31933935546875,0.3933526277542114,0.43206775188446045,-0.2838976979255676
1772615921971407400,1.329407470703125,0.40496665239334106,0.4273817241191864,-0.26152950525283813
1772615921981475600,1.3394755859375,0.4228748083114624,0.44412529468536377,-0.2473401576280594
1772615921991543600,1.34954345703125,0.4393291473388672,0.4905834496021271,-0.2337189018726349
1772615922001611500,1.359611572265625,0.4372271001338959,0.5444805026054382,-0.22662530839443207
1772615922011679500,1.369679443359375,0.42534515261650085,0.5943747162818909,-0.21904593706130981
1772615922021747700,1.379747802734375,0.4078995883464813,0.6346601247787476,-0.21149639785289764
1772615922031815400,1.3898154296875,0.39760956168174744,0.654076099395752,-0.2106248289346695
1772615922041883400,1.39988330078125,0.40691280364990234,0.6696332097053528,-0.20609000325202942
1772615922051951400,1.409951416015625,0.4231153130531311,0.6876850128173828,-0.1915523111820221
1772615922062019600,1.42001953125,0.43189042806625366,0.7210128903388977,-0.15263047814369202
1772615922072087600,1.430087646484375,0.42457854747772217,0.7615450024604797,-0.07924063503742218
1772615922082155500,1.440155517578125,0.41474828124046326,0.7900387048721313,0.011255437508225441
1772615922092223500,1.450223388671875,0.396685928106308,0.8094605207443237,0.11396802216768265
1772615922102291700,1.460291748046875,0.379202276468277,0.8195427060127258,0.20480230450630188
1772615922112359400,1.470359375,0.3732507526874542,0.8047104477882385,0.2747947573661804
1772615922122428400,1.480428466796875,0.3737189471721649,0.7872622013092041,0.3105740547180176
1772615922132496600,1.49049658203125,0.369729220867157,0.7760606408119202,0.31806480884552
1772615922142564600,1.500564697265625,0.3577694892883301,0.7608599066734314,0.3048398196697235
1772615922152632600,1.510632568359375,0.34916257858276367,0.7403788566589355,0.25910449028015137
1772615922162700300,1.5207001953125,0.3357306718826294,0.7340807318687439,0.19983930885791779
1772615922172768500,1.5307685546875,0.3220233619213104,0.7423954606056213,0.1443481147289276
1772615922182836500,1.54083642578125,0.3071860671043396,0.755430281162262,0.09068302810192108
1772615922192904400,1.550904541015625,0.2870998680591583,0.7718100547790527,0.05517555773258209
1772615922202972400,1.560972412109375,0.2586224377155304,0.801911473274231,0.033292897045612335
1772615922213040600,1.57104052734375,0.24059879779815674,0.8149363398551941,0.02179878205060959
1772615922223108600,1.581108642578125,0.2631560266017914,0.8073782920837402,0.006636074744164944
1772615922233176600,1.591176513671875,0.317084401845932,0.7974681854248047,0.006506587378680706
1772615922243244300,1.601244384765625,0.3696317672729492,0.743958592414856,0.03533264249563217
1772615922253312500,1.6113125,0.41304001212120056,0.6539230942726135,0.09979834407567978
1772615922263380500,1.62138037109375,0.43813738226890564,0.5761262774467468,0.176208958029747
1772615922273448400,1.631448486328125,0.42612501978874207,0.5500693917274475,0.25227320194244385
1772615922283517400,1.641517333984375,0.3961002826690674,0.5702316164970398,0.32643744349479675
1772615922293585700,1.651585693359375,0.3519236147403717,0.6159791946411133,0.3945416808128357
1772615922303653400,1.6616533203125,0.28797125816345215,0.6878565549850464,0.44081491231918335
1772615922313721300,1.671721435546875,0.2160622775554657,0.7819932103157043,0.46302253007888794
1772615922323789600,1.68178955078125,0.14578892290592194,0.8534727096557617,0.44733572006225586
1772615922333857500,1.691857421875,0.09961750358343124,0.9007474780082703,0.4037531912326813
1772615922343925500,1.701925537109375,0.0889587327837944,0.9423889517784119,0.3476070761680603
1772615922353993500,1.711993408203125,0.10184311866760254,0.9570263624191284,0.28120434284210205
1772615922364061700,1.722061767578125,0.14301186800003052,0.9251182079315186,0.22117725014686584
1772615922374129400,1.73212939453125,0.19817090034484863,0.844931960105896,0.17141570150852203
1772615922384197400,1.742197265625,0.2604145407676697,0.7434064149856567,0.12745144963264465
1772615922394265300,1.752265380859375,0.312905490398407,0.6681799292564392,0.08409730345010757
1772615922404333600,1.76233349609375,0.3450027108192444,0.6180954575538635,0.04731053486466408
1772615922414401500,1.772401611328125,0.3390662968158722,0.6155755519866943,0.017945298925042152
1772615922424469500,1.782469482421875,0.31156837940216064,0.653923749923706,-0.016864880919456482
1772615922434537500,1.792537353515625,0.2879134714603424,0.7236210703849792,-0.05012441799044609
1772615922444605700,1.802605712890625,0.26923060417175293,0.7941935062408447,-0.07013434171676636
1772615922454674400,1.81267431640625,0.2589893937110901,0.8715579509735107,-0.08411091566085815
1772615922464742400,1.822742431640625,0.25426122546195984,0.9361225962638855,-0.08842550963163376
1772615922474810400,1.832810302734375,0.2655228078365326,0.9711803197860718,-0.08511311560869217
1772615922484878600,1.842878662109375,0.2946261167526245,0.9901092648506165,-0.0883169025182724
1772615922494946600,1.852946533203125,0.33204033970832825,1.0262422561645508,-0.10105054080486298
1772615922505014500,1.8630146484375,0.3749637007713318,1.0926506519317627,-0.121163010597229
1772615922515082200,1.873082275390625,0.41379496455192566,1.161129117012024,-0.13634884357452393
1772615922525150500,1.883150390625,0.45290589332580566,1.2163676023483276,-0.14227624237537384
1772615922535218400,1.893218505859375,0.49386632442474365,1.265386700630188,-0.14351825416088104
1772615922545286400,1.903286376953125,0.5372292995452881,1.3023594617843628,-0.14319388568401337
1772615922555354600,1.913354736328125,0.5755522847175598,1.3037253618240356,-0.13148947060108185
1772615922565422600,1.923422607421875,0.6038097143173218,1.2603625059127808,-0.10557105392217636
1772615922575490600,1.933490478515625,0.6327497959136963,1.2014532089233398,-0.07744362950325012
1772615922585558500,1.94355859375,0.6716939806938171,1.1677114963531494,-0.06356296688318253
1772615922595626500,1.95362646484375,0.7120001316070557,1.166220784187317,-0.05726012587547302
1772615922605694500,1.963694580078125,0.7394618391990662,1.186531662940979,-0.06803101301193237
1772615922615763500,1.973763427734375,0.7568798065185547,1.2071285247802734,-0.08261778950691223
1772615922625831400,1.98383154296875,0.7753171324729919,1.2245255708694458,-0.1023813784122467
1772615922635899600,1.993899658203125,0.7916408181190491,1.2419017553329468,-0.11140970140695572
1772615922645967400,2.00396728515625,0.7916163206100464,1.2440900802612305,-0.11168001592159271
1772615922656035300,2.014035400390625,0.765767514705658,1.2252973318099976,-0.10336584597826004
1772615922666103300,2.024103271484375,0.7143973112106323,1.196585774421692,-0.08657781034708023
1772615922676171500,2.034171630859375,0.6528195142745972,1.1705260276794434,-0.06428709626197815
1772615922686239500,2.044239501953125,0.5882863402366638,1.1660242080688477,-0.053618207573890686
1772615922696307500,2.054307373046875,0.5465349555015564,1.185611605644226,-0.05166333541274071
1772615922706375400,2.06437548828125,0.5305914282798767,1.210878610610962,-0.06951797008514404
1772615922716443600,2.074443603515625,0.5348979830741882,1.2178539037704468,-0.08904576301574707
1772615922726511400,2.084511474609375,0.547172486782074,1.2020238637924194,-0.09786668419837952
1772615922736579300,2.094579345703125,0.5681137442588806,1.174267053604126,-0.09538285434246063
1772615922746647600,2.1046474609375,0.5862243175506592,1.128166913986206,-0.08649934828281403
1772615922756715500,2.114715576171875,0.5913853049278259,1.0863357782363892,-0.07660815864801407
1772615922766784300,2.1247841796875,0.579573392868042,1.0573776960372925,-0.08834204822778702
1772615922776852200,2.134852294921875,0.5607152581214905,1.0533924102783203,-0.11550493538379669
1772615922786921000,2.1449208984375,0.5470713376998901,1.0606887340545654,-0.13786377012729645
1772615922796989200,2.1549892578125,0.5442379713058472,1.0474638938903809,-0.16126035153865814
1772615922807057200,2.16505712890625,0.5480068325996399,1.0298197269439697,-0.17442889511585236
1772615922817125000,2.175125,0.5441679358482361,1.0147145986557007,-0.17312723398208618
1772615922827193000,2.185193115234375,0.5352088212966919,1.0095973014831543,-0.1573256403207779
1772615922837261300,2.19526123046875,0.5152990221977234,1.0045658349990845,-0.1310274600982666
1772615922847329000,2.2053291015625,0.49002617597579956,0.99857097864151,-0.10229300707578659
1772615922857397000,2.21539697265625,0.4696368873119354,0.9964757561683655,-0.0810394361615181
1772615922867465000,2.22546484375,0.44329530000686646,0.9953141212463379,-0.05691012740135193
1772615922877533200,2.235533203125,0.4221697747707367,0.9847089648246765,-0.03386154770851135
1772615922887601200,2.24560107421875,0.41045907139778137,0.9734006524085999,-0.011071278713643551
1772615922897669000,2.255669189453125,0.4082719385623932,0.9574038982391357,0.009930946864187717
1772615922907737000,2.265737060546875,0.40160229802131653,0.9382699131965637,0.03262374550104141
1772615922917805300,2.275805419921875,0.4019927382469177,0.9155393838882446,0.053431808948516846
1772615922927873000,2.285873046875,0.4009983241558075,0.913123607635498,0.05429280921816826
1772615922937941000,2.29594091796875,0.38966313004493713,0.9245138764381409,0.047606877982616425
1772615922948009000,2.306009033203125,0.3695078194141388,0.9288634061813354,0.04220252484083176
1772615922958078200,2.316078125,0.35100674629211426,0.9025804996490479,0.049150895327329636
1772615922968146200,2.326146240234375,0.33846405148506165,0.8603025674819946,0.06216895952820778
1772615922978214100,2.336214111328125,0.32592475414276123,0.835116982460022,0.07797731459140778
1772615922988282000,2.3462822265625,0.3070506751537323,0.8260989785194397,0.0891314297914505
1772615922998350000,2.35635009765625,0.28313523530960083,0.807981014251709,0.09569373726844788
1772615923008418000,2.36641796875,0.2712170481681824,0.7850536108016968,0.09355814754962921
1772615923018486000,2.376486083984375,0.27708056569099426,0.7427237629890442,0.09120095521211624
1772615923028554200,2.38655419921875,0.2962758243083954,0.6865656971931458,0.09197194129228592
1772615923038622200,2.396622314453125,0.3074832558631897,0.626535177230835,0.08756821602582932
1772615923048690200,2.406690185546875,0.2976181209087372,0.5807495713233948,0.07899976521730423
1772615923058758100,2.416758056640625,0.291951984167099,0.526626706123352,0.06720568984746933
1772615923068826000,2.426826171875,0.3052200973033905,0.4650152623653412,0.04506869614124298
1772615923078894000,2.43689404296875,0.31221073865890503,0.4114329516887665,0.013433422893285751
1772615923088962000,2.446962158203125,0.3081752359867096,0.36074236035346985,-0.02279435656964779
1772615923099030000,2.457030029296875,0.28773149847984314,0.3241572976112366,-0.05002015829086304
1772615923109098200,2.46709814453125,0.2537703514099121,0.26438209414482117,-0.060300491750240326
1772615923119167000,2.4771669921875,0.20802852511405945,0.21440425515174866,-0.06684757769107819
1772615923129235000,2.48723486328125,0.1602010875940323,0.20891867578029633,-0.06885932385921478
1772615923139303200,2.49730322265625,0.12183555960655212,0.24494478106498718,-0.07012560218572617
1772615923149371100,2.50737109375,0.1010245531797409,0.2915208339691162,-0.06862837076187134
1772615923159439000,2.517439208984375,0.09372024983167648,0.3482944667339325,-0.052770745009183884
1772615923169507000,2.527507080078125,0.10042528808116913,0.38760221004486084,-0.018005575984716415
1772615923179575300,2.5375751953125,0.11717889457941055,0.3919813930988312,0.03474884107708931
1772615923189643300,2.547643310546875,0.13583539426326752,0.3681575357913971,0.0977855920791626
1772615923199711000,2.5577109375,0.15564855933189392,0.3337229788303375,0.16432784497737885
1772615923209779000,2.567779052734375,0.16595952212810516,0.30799925327301025,0.22842000424861908
1772615923219847200,2.57784716796875,0.15842118859291077,0.3078646957874298,0.2751336991786957
1772615923229915100,2.5879150390625,0.1311163306236267,0.32865068316459656,0.3080892264842987
1772615923239983000,2.597983154296875,0.09651821851730347,0.35835525393486023,0.3323693871498108
1772615923250051000,2.608051025390625,0.06711665540933609,0.39613884687423706,0.3376235365867615
1772615923260119300,2.618119384765625,0.041250891983509064,0.43661078810691833,0.3323463201522827
1772615923270187300,2.628187255859375,0.02347109653055668,0.47325801849365234,0.32348066568374634
1772615923280256000,2.638256103515625,0.01034934539347887,0.49454692006111145,0.3044126331806183
1772615923290324200,2.64832421875,0.006864598952233791,0.4903433620929718,0.2743668556213379
1772615923300392200,2.65839208984375,0.01183122955262661,0.4674484431743622,0.22580869495868683
1772615923310460200,2.668460205078125,0.027259454131126404,0.44307494163513184,0.15994499623775482
1772615923320528100,2.678528076171875,0.042923979461193085,0.4339664876461029,0.069681815803051
1772615923330596000,2.68859619140625,0.05051984637975693,0.4560092091560364,-0.03498440980911255
1772615923340664000,2.6986640625,0.04875786229968071,0.501152515411377,-0.13932566344738007
1772615923350732000,2.70873193359375,0.04587392508983612,0.5407353639602661,-0.21848945319652557
1772615923360800000,2.718800048828125,0.057756733149290085,0.5588645935058594,-0.2761552333831787
1772615923370868200,2.7288681640625,0.0806383490562439,0.5587072372436523,-0.29519444704055786
1772615923380936200,2.738936279296875,0.1147594004869461,0.5402758717536926,-0.2911551892757416
1772615923391004200,2.749004150390625,0.15993885695934296,0.5022587180137634,-0.28758496046066284
1772615923401072000,2.759072021484375,0.2260715812444687,0.46486714482307434,-0.2855463922023773
1772615923411140000,2.76914013671875,0.300113320350647,0.4451664090156555,-0.2944839596748352
1772615923421208000,2.7792080078125,0.3729951083660126,0.460081547498703,-0.311773419380188
1772615923431276000,2.789276123046875,0.44215232133865356,0.4989517331123352,-0.3211669325828552
1772615923441344000,2.799343994140625,0.5127592086791992,0.5693823099136353,-0.308600515127182
1772615923451413200,2.809413330078125,0.5642343759536743,0.6769969463348389,-0.2663249373435974
1772615923461481200,2.819481201171875,0.5897669792175293,0.7658079862594604,-0.1971653550863266
1772615923471549000,2.829548828125,0.5879765152931213,0.840933620929718,-0.11104245483875275
1772615923481617200,2.8396171875,0.571833074092865,0.8997413516044617,-0.009932092390954494
1772615923491685000,2.84968505859375,0.5642628073692322,0.9265798926353455,0.08842962980270386
1772615923501753000,2.859753173828125,0.5806643962860107,0.9241821765899658,0.17066942155361176
1772615923511821000,2.869821044921875,0.6194746494293213,0.9040225744247437,0.22254300117492676
1772615923521889300,2.87988916015625,0.6779668927192688,0.8768300414085388,0.250672310590744
1772615923531957200,2.889957275390625,0.7396395802497864,0.8453360795974731,0.25918644666671753
1772615923542025200,2.900025146484375,0.7832239866256714,0.8090384006500244,0.2498014122247696
1772615923552093000,2.910093017578125,0.7997006773948669,0.7838185429573059,0.23655912280082703
1772615923562161200,2.9201611328125,0.7856327295303345,0.7737717032432556,0.21835419535636902
1772615923572229000,2.93022900390625,0.7428367733955383,0.7782660126686096,0.19673384726047516
1772615923582297000,2.940297119140625,0.6832315325737,0.7960540056228638,0.16118058562278748
1772615923592365000,2.950364990234375,0.6112428307533264,0.815015971660614,0.1262177973985672
1772615923602433300,2.960433349609375,0.5328778624534607,0.833781361579895,0.08676493912935257
1772615923612501200,2.970501220703125,0.46324363350868225,0.837590217590332,0.06567935645580292
1772615923622570000,2.980570068359375,0.4007704555988312,0.8094716668128967,0.05754295364022255
1772615923632638200,2.99063818359375,0.3596102297306061,0.7665572166442871,0.06115872785449028
1772615923642706200,3.0007060546875,0.34042081236839294,0.7104966640472412,0.07886240631341934
1772615923652774100,3.010774169921875,0.3528689742088318,0.6464009881019592,0.08076895773410797
1772615923662842000,3.020842041015625,0.3762015700340271,0.6050761342048645,0.06649632751941681
1772615923672910300,3.030910400390625,0.38975492119789124,0.5952354669570923,0.040543291717767715
1772615923682978000,3.04097802734375,0.3853241503238678,0.5995602607727051,0.005009728483855724
1772615923693046000,3.0510458984375,0.36189284920692444,0.608076810836792,-0.016613008454442024
1772615923703114000,3.061114013671875,0.32594233751296997,0.6168533563613892,-0.029163792729377747
1772615923713182200,3.07118212890625,0.2912650406360626,0.618797779083252,-0.03343496844172478
1772615923723250200,3.081250244140625,0.2564935088157654,0.6164847016334534,-0.026169640943408012
1772615923733318100,3.091318115234375,0.2259843498468399,0.6118316650390625,-0.015228044241666794
1772615923743386000,3.10138623046875,0.2129865139722824,0.6083869934082031,-0.009679319337010384
1772615923753454300,3.111454345703125,0.20965783298015594,0.6005458831787109,-0.023408712819218636
1772615923763522000,3.12152197265625,0.22348813712596893,0.6032571792602539,-0.05966786667704582
1772615923773589200,3.13158935546875,0.23569899797439575,0.6201762557029724,-0.09619604796171188
1772615923783658200,3.141658203125,0.24111387133598328,0.6408610939979553,-0.13779519498348236
1772615923793726200,3.151726318359375,0.25181499123573303,0.6607666015625,-0.173668771982193
1772615923803794200,3.161794189453125,0.26506367325782776,0.6773161292076111,-0.20024333894252777
1772615923813862100,3.171862060546875,0.2830301523208618,0.6916311979293823,-0.21581536531448364
1772615923823930400,3.181930419921875,0.2935898005962372,0.7042689919471741,-0.2117006927728653
1772615923833998000,3.191998046875,0.28014644980430603,0.7184630632400513,-0.19117705523967743
1772615923844066000,3.202066162109375,0.26852500438690186,0.731872022151947,-0.16587771475315094
1772615923854134000,3.212134033203125,0.2657364010810852,0.749352216720581,-0.12913407385349274
1772615923864202200,3.2222021484375,0.2869768738746643,0.7656711339950562,-0.084579698741436
1772615923874270200,3.232270263671875,0.3280547857284546,0.7796532511711121,-0.036806050688028336
1772615923884338200,3.242338134765625,0.3746286928653717,0.7746127843856812,0.018845193088054657
1772615923894406100,3.25240625,0.4039439558982849,0.7657884359359741,0.0640459656715393
1772615923904474400,3.262474365234375,0.40164583921432495,0.7840527892112732,0.09229275584220886
1772615923914542000,3.2725419921875,0.37053319811820984,0.816728949546814,0.10629644989967346
1772615923924610000,3.282610107421875,0.3353029489517212,0.8307456374168396,0.1096031665802002
1772615923934679300,3.29267919921875,0.32643380761146545,0.8268523812294006,0.09295175224542618
1772615923944746200,3.302746337890625,0.35809192061424255,0.8050730228424072,0.05191105976700783
1772615923954815200,3.312815185546875,0.4077545404434204,0.773490309715271,-0.0018259392818436027
1772615923964883200,3.32288330078125,0.4545261859893799,0.7268995642662048,-0.058729153126478195
1772615923974951200,3.332951171875,0.48367634415626526,0.662785530090332,-0.10371553897857666
1772615923985019100,3.34301904296875,0.4910447895526886,0.6121687889099121,-0.1370740681886673
1772615923995087000,3.353087158203125,0.48620903491973877,0.5848391652107239,-0.1497911959886551
1772615924005155000,3.363155029296875,0.45450639724731445,0.6021779179573059,-0.1464194655418396
1772615924015223300,3.373223388671875,0.38431400060653687,0.6493486166000366,-0.1134500727057457
1772615924025291300,3.383291259765625,0.2874755859375,0.7325466871261597,-0.05248600244522095
1772615924035359200,3.393359130859375,0.19058099389076233,0.8247549533843994,0.030574264004826546
1772615924045427200,3.40342724609375,0.11704821139574051,0.8981147408485413,0.13218232989311218
1772615924055495200,3.4134951171875,0.07859349250793457,0.9289799928665161,0.225745290517807
1772615924065563100,3.423563232421875,0.0795232281088829,0.9396569132804871,0.2964750826358795
1772615924075631000,3.433631103515625,0.12076733261346817,0.9185506105422974,0.3407328128814697
1772615924085699000,3.443698974609375,0.17834943532943726,0.883902370929718,0.35945531725883484
1772615924095767300,3.453767333984375,0.23319163918495178,0.8451321125030518,0.34962719678878784
1772615924105836000,3.4638359375,0.27765926718711853,0.8202385306358337,0.30907735228538513
1772615924115904000,3.473904052734375,0.2991480231285095,0.8083222508430481,0.26085469126701355
1772615924125972200,3.48397216796875,0.3024613857269287,0.8004758358001709,0.19851836562156677
1772615924136040200,3.494040283203125,0.3039865791797638,0.796276330947876,0.13085728883743286
1772615924146108200,3.504108154296875,0.31186166405677795,0.7882136702537537,0.08360084146261215
1772615924156176100,3.514176025390625,0.31838908791542053,0.7631189823150635,0.04187416657805443
1772615924166244400,3.524244384765625,0.3318381905555725,0.739378035068512,0.019016791135072708
1772615924176312300,3.534312255859375,0.3447795510292053,0.7150434255599976,0.006124695762991905
1772615924186380000,3.544380126953125,0.35754355788230896,0.6878341436386108,0.003773922799155116
1772615924196448000,3.554447998046875,0.37023910880088806,0.6785985827445984,0.004503362812101841
1772615924206516200,3.56451611328125,0.37995728850364685,0.6794871687889099,0.0030627544037997723
1772615924216584200,3.574584228515625,0.3950856328010559,0.6772096157073975,0.006244432646781206
1772615924226652200,3.584652099609375,0.4013994634151459,0.6791906952857971,0.01559404470026493
1772615924236720000,3.59472021484375,0.39919915795326233,0.678610622882843,0.019050562754273415
1772615924246788400,3.604788330078125,0.3996613323688507,0.6757767796516418,0.022393634542822838
1772615924256856300,3.614856201171875,0.40991902351379395,0.6722686290740967,0.016914978623390198
1772615924266925000,3.624925048828125,0.4307310879230499,0.6477035880088806,0.0006422654259949923
1772615924276993300,3.6349931640625,0.451714426279068,0.6078358292579651,-0.017476284876465797
1772615924287061200,3.645061279296875,0.47483545541763306,0.5410836935043335,-0.03312395513057709
1772615924297129200,3.655129150390625,0.49228981137275696,0.4827391803264618,-0.05070694535970688
1772615924307197200,3.665197265625,0.5206705927848816,0.4446744918823242,-0.06852137297391891
1772615924317265200,3.67526513671875,0.5583817362785339,0.4093777537345886,-0.09558441489934921
1772615924327333000,3.6853330078125,0.6075324416160583,0.35392120480537415,-0.11507300287485123
1772615924337401000,3.695401123046875,0.6571993231773376,0.30139487981796265,-0.1237165555357933
1772615924347469000,3.705468994140625,0.6726539731025696,0.2704663574695587,-0.1085132509469986
1772615924357537300,3.715537353515625,0.6474298238754272,0.27609628438949585,-0.08529075235128403
1772615924367605200,3.725605224609375,0.5834539532661438,0.33965054154396057,-0.03668752312660217
1772615924377673200,3.735673095703125,0.4832644760608673,0.4416240453720093,0.02753034234046936
1772615924387741200,3.7457412109375,0.3620329797267914,0.5411765575408936,0.09542499482631683
1772615924397809200,3.75580908203125,0.26084351539611816,0.6018633246421814,0.1319398581981659
1772615924407877000,3.765877197265625,0.20745782554149628,0.6263594031333923,0.1333075761795044
1772615924417945000,3.775945068359375,0.20310835540294647,0.6391425728797913,0.09059605747461319
1772615924428013000,3.786012939453125,0.2329365611076355,0.6470707654953003,0.027469821274280548
1772615924438082300,3.796082275390625,0.281469464302063,0.6363193392753601,-0.05530069023370743
1772615924448150300,3.806150390625,0.3365016579627991,0.6048902869224548,-0.1247803270816803
1772615924458218000,3.816218017578125,0.39302191138267517,0.5623098015785217,-0.1846734881401062
1772615924468286200,3.8262861328125,0.4385668933391571,0.5028043389320374,-0.21956966817378998
1772615924478354200,3.836354248046875,0.46322324872016907,0.44196438789367676,-0.24167922139167786
1772615924488422100,3.846422119140625,0.4807284474372864,0.39898577332496643,-0.2419668734073639
1772615924498490000,3.856489990234375,0.4991122782230377,0.36912161111831665,-0.2379138171672821
1772615924508558300,3.866558349609375,0.5123040676116943,0.34286561608314514,-0.22641077637672424
1772615924518626300,3.876626220703125,0.5229556560516357,0.3210926651954651,-0.20693187415599823
1772615924528694300,3.8866943359375,0.5352475643157959,0.2964417636394501,-0.18213745951652527
1772615924538762000,3.896761962890625,0.531203031539917,0.2745806574821472,-0.15599773824214935
1772615924548830200,3.906830322265625,0.5081912279129028,0.27494919300079346,-0.1419835388660431
1772615924558898200,3.916898193359375,0.4817955791950226,0.30109450221061707,-0.12815320491790771
1772615924568966100,3.926966064453125,0.4415700435638428,0.3334111273288727,-0.11901623010635376
1772615924579034000,3.9370341796875,0.39212873578071594,0.36122146248817444,-0.09905823320150375
1772615924589103000,3.94710302734375,0.3557726740837097,0.391245037317276,-0.07514964044094086
1772615924599171000,3.957171142578125,0.3301653265953064,0.41113510727882385,-0.04437921196222305
1772615924609239000,3.967239013671875,0.31749227643013,0.4185155928134918,-0.013209587894380093
1772615924619307300,3.977307373046875,0.3088740110397339,0.4138838052749634,0.019891373813152313
1772615924629375200,3.987375244140625,0.30510810017585754,0.4110257923603058,0.054679565131664276
1772615924639443200,3.997443115234375,0.30671772360801697,0.4156295955181122,0.08993156999349594
1772615924649511200,4.00751123046875,0.31973719596862793,0.407115638256073,0.12581107020378113
1772615924659579400,4.017579345703125,0.32539376616477966,0.3992598354816437,0.15939831733703613
1772615924669647000,4.027647216796875,0.3095398545265198,0.4143070578575134,0.18598121404647827
1772615924679715000,4.037715087890625,0.28229382634162903,0.4319837689399719,0.20824390649795532
1772615924689783000,4.047782958984375,0.25567692518234253,0.4424675703048706,0.23441016674041748
1772615924699851300,4.057851318359375,0.22494137287139893,0.44584232568740845,0.25607338547706604
1772615924709919200,4.067919189453125,0.19543437659740448,0.43986600637435913,0.27560389041900635
1772615924719987200,4.0779873046875,0.17923544347286224,0.41042661666870117,0.2883202135562897
1772615924730055200,4.08805517578125,0.18415915966033936,0.359564870595932,0.27569639682769775
1772615924740123400,4.098123291015625,0.2073286473751068,0.2907245457172394,0.24093018472194672
1772615924750192000,4.108192138671875,0.22927682101726532,0.22710514068603516,0.18060137331485748
1772615924760260000,4.118260009765625,0.22834019362926483,0.17329703271389008,0.08702055364847183
1772615924770328600,4.12832861328125,0.20571576058864594,0.15763652324676514,-0.023643210530281067
1772615924780396500,4.138396484375,0.16062524914741516,0.187008798122406,-0.12451630085706711
1772615924790464500,4.148464599609375,0.11856183409690857,0.2406078428030014,-0.20697766542434692
1772615924800532200,4.1585322265625,0.07836674153804779,0.30779778957366943,-0.25976791977882385
1772615924810600400,4.168600341796875,0.05561510846018791,0.3679367005825043,-0.28747761249542236
1772615924820668400,4.17866845703125,0.06252095103263855,0.4097704589366913,-0.2622250020503998
1772615924830736400,4.188736328125,0.101026251912117,0.4160297214984894,-0.19571329653263092
1772615924840804400,4.198804443359375,0.16907241940498352,0.40563860535621643,-0.0939406007528305
1772615924850872600,4.20887255859375,0.23762547969818115,0.3995177745819092,0.022275306284427643
1772615924860940500,4.2189404296875,0.2961556315422058,0.3945480287075043,0.14982713758945465
1772615924871008500,4.229008544921875,0.3294404149055481,0.3999268412590027,0.26126542687416077
1772615924881076200,4.239076171875,0.32416653633117676,0.4176991581916809,0.34557923674583435
1772615924891144400,4.24914453125,0.29626354575157166,0.4604934751987457,0.39400213956832886
1772615924901213400,4.25921337890625,0.24980950355529785,0.49995142221450806,0.42619919776916504
1772615924911281400,4.269281494140625,0.19533643126487732,0.5417181849479675,0.43676257133483887
1772615924921349600,4.279349609375,0.14511694014072418,0.5698225498199463,0.45258280634880066
1772615924931417300,4.289417236328125,0.09807344526052475,0.573500394821167,0.46116843819618225
1772615924941485300,4.2994853515625,0.05587698891758919,0.5720505714416504,0.4711414575576782
1772615924951553300,4.30955322265625,0.008504878729581833,0.546088695526123,0.47676247358322144
1772615924961621500,4.31962158203125,-0.041294366121292114,0.5194591879844666,0.4668656289577484
1772615924971689500,4.329689453125,-0.09810850769281387,0.5011572241783142,0.4254454970359802
1772615924981757400,4.33975732421875,-0.15205588936805725,0.49229106307029724,0.3413447439670563
1772615924991825400,4.349825439453125,-0.19183868169784546,0.4709140658378601,0.2287357747554779
1772615925001893600,4.3598935546875,-0.2060580998659134,0.44600552320480347,0.08605852723121643
1772615925011961300,4.36996142578125,-0.20731376111507416,0.43675607442855835,-0.06696569174528122
1772615925022029300,4.380029296875,-0.20933349430561066,0.43984320759773254,-0.21066400408744812
1772615925032097300,4.39009716796875,-0.2067657858133316,0.42733028531074524,-0.327910453081131
1772615925042165500,4.40016552734375,-0.18987655639648438,0.3848544657230377,-0.4057820737361908
1772615925052233500,4.4102333984375,-0.14163663983345032,0.3352389633655548,-0.4421059489250183
1772615925062302500,4.420302490234375,-0.0748291164636612,0.2974598705768585,-0.43601369857788086
1772615925072370400,4.430370361328125,-0.007184298243373632,0.25953805446624756,-0.3906691074371338
1772615925082438400,4.4404384765625,0.06720095872879028,0.22499972581863403,-0.31589362025260925
1772615925092506400,4.45050634765625,0.14905069768428802,0.19975979626178741,-0.226552814245224
1772615925102574300,4.46057421875,0.22690528631210327,0.19303451478481293,-0.14141367375850677
1772615925112642600,4.470642578125,0.2857387363910675,0.22450928390026093,-0.0700526311993599
1772615925122710500,4.48071044921875,0.3070083260536194,0.29852041602134705,-0.013068978674709797
1772615925132778500,4.490778564453125,0.2945587635040283,0.39070290327072144,0.03654881939291954
1772615925142846500,4.500846435546875,0.26155900955200195,0.48423975706100464,0.0962371826171875
1772615925152914400,4.51091455078125,0.22283834218978882,0.5510727763175964,0.1576492339372635
1772615925162982400,4.520982421875,0.1898644119501114,0.6007303595542908,0.2278355062007904
1772615925173050400,4.53105029296875,0.1756279468536377,0.6244708299636841,0.2956491708755493
1772615925183118300,4.541118408203125,0.19547249376773834,0.6314994096755981,0.34151414036750793
1772615925193186600,4.5511865234375,0.22935593128204346,0.6224580407142639,0.35414919257164
1772615925203254500,4.561254638671875,0.26533788442611694,0.59525465965271,0.34654852747917175
1772615925213322500,4.571322509765625,0.30110764503479004,0.5364876389503479,0.3236425817012787
1772615925223391500,4.5813916015625,0.32593151926994324,0.47654280066490173,0.2935533821582794
1772615925233459500,4.59145947265625,0.3331742584705353,0.41301119327545166,0.2548704147338867
1772615925243527400,4.60152734375,0.3319273591041565,0.3614571690559387,0.20308388769626617
1772615925253595400,4.611595458984375,0.32060348987579346,0.3238880932331085,0.13437800109386444
1772615925263663600,4.62166357421875,0.3050439953804016,0.30967533588409424,0.058698419481515884
1772615925273731600,4.631731689453125,0.29172515869140625,0.30396151542663574,-0.02433101087808609
1772615925283799300,4.64179931640625,0.27994999289512634,0.2791094183921814,-0.09803053736686707
1772615925293867300,4.6518671875,0.27392303943634033,0.2449158877134323,-0.16225674748420715
1772615925303935500,4.661935546875,0.2623223066329956,0.20941302180290222,-0.21332472562789917
1772615925314003500,4.67200341796875,0.24833354353904724,0.17075985670089722,-0.25466102361679077
1772615925324071400,4.682071533203125,0.2420620620250702,0.13653025031089783,-0.2832135856151581
1772615925334139400,4.692139404296875,0.242316335439682,0.12419584393501282,-0.29784247279167175
1772615925344207600,4.70220751953125,0.23365920782089233,0.13637767732143402,-0.29376596212387085
1772615925354275600,4.712275634765625,0.20714536309242249,0.19350340962409973,-0.266679048538208
1772615925364343300,4.72234326171875,0.16021646559238434,0.26858165860176086,-0.21653145551681519
1772615925374411300,4.732411376953125,0.11237509548664093,0.32409849762916565,-0.14700043201446533
1772615925384480500,4.74248046875,0.065055251121521,0.35425931215286255,-0.08503106981515884
1772615925394548500,4.752548583984375,0.04452534019947052,0.36509883403778076,-0.033098652958869934
1772615925404616400,4.762616455078125,0.044245705008506775,0.3657827377319336,-0.02002652734518051
1772615925414684400,4.772684326171875,0.05629941448569298,0.36219727993011475,-0.03276544064283371
1772615925424752400,4.78275244140625,0.07012548297643661,0.36424604058265686,-0.051034726202487946
1772615925434820400,4.7928203125,0.07387755811214447,0.3604860305786133,-0.07469254732131958
1772615925444888300,4.802888427734375,0.06809290498495102,0.36217421293258667,-0.0898459330201149
1772615925454956500,4.81295654296875,0.05710049346089363,0.3724632263183594,-0.10212427377700806
1772615925465024500,4.8230244140625,0.04830566793680191,0.38352999091148376,-0.10558398813009262
1772615925475092500,4.833092529296875,0.04083556309342384,0.39516451954841614,-0.10113023221492767
1772615925485160400,4.843160400390625,0.03426208347082138,0.3902813494205475,-0.08077383041381836
1772615925495228400,4.853228515625,0.024082252755761147,0.3630784749984741,-0.050634775310754776
1772615925505296400,4.86329638671875,0.00881941057741642,0.33194026350975037,-0.01630476489663124
1772615925515364400,4.8733642578125,-0.0020075435750186443,0.30909913778305054,0.002767762867733836
1772615925525432300,4.883432373046875,-0.006867546588182449,0.2893717586994171,0.0023736150469630957
1772615925535500500,4.89350048828125,-0.010236470960080624,0.28169897198677063,-0.017810460180044174
1772615925545569500,4.903569580078125,-0.02871295064687729,0.2970294654369354,-0.04530493542551994
1772615925555637200,4.91363720703125,-0.06007733941078186,0.315097451210022,-0.07166554033756256
1772615925565705500,4.92370556640625,-0.09834882616996765,0.3374001085758209,-0.09514876455068588
1772615925575773400,4.9337734375,-0.1290796548128128,0.34237828850746155,-0.1141345426440239
1772615925585841400,4.94384130859375,-0.134015291929245,0.32916074991226196,-0.12518958747386932
1772615925595909400,4.953909423828125,-0.11853756755590439,0.28829553723335266,-0.14090324938297272
1772615925605977600,4.9639775390625,-0.07951346784830093,0.24164575338363647,-0.17730547487735748
1772615925616045600,4.974045654296875,-0.03879208862781525,0.20461639761924744,-0.21659621596336365
1772615925626113500,4.984113525390625,-0.0009030296350829303,0.13566157221794128,-0.23208223283290863
1772615925636181200,4.99418115234375,0.03882351890206337,0.05345318838953972,-0.23775672912597656
1772615925646249500,5.00424951171875,0.07757943868637085,-0.0019464206416159868,-0.23614338040351868
1772615925656317400,5.0143173828125,0.09278745949268341,-0.021672701463103294,-0.22799047827720642
1772615925666385400,5.024385498046875,0.07545506954193115,-0.006250603124499321,-0.20000173151493073
1772615925676453400,5.034453369140625,0.04339137300848961,0.03757568821310997,-0.1512516587972641
1772615925686521600,5.044521484375,-0.004090656526386738,0.10986267030239105,-0.10180236399173737
1772615925696590300,5.05459033203125,-0.06230299174785614,0.2137291431427002,-0.047673821449279785
1772615925706658300,5.064658203125,-0.12355995923280716,0.32544928789138794,0.014802340418100357
1772615925716726500,5.0747265625,-0.1627165973186493,0.4031173884868622,0.07781416922807693
1772615925726794500,5.08479443359375,-0.15943878889083862,0.4403209686279297,0.13643433153629303
1772615925736862500,5.094862548828125,-0.12170079350471497,0.4525410532951355,0.1769012063741684
1772615925746930400,5.104930419921875,-0.0662311464548111,0.44350680708885193,0.20401139557361603
1772615925756998700,5.11499853515625,-0.005529904738068581,0.43586161732673645,0.21571555733680725
1772615925767066400,5.12506640625,0.04492394998669624,0.4330913722515106,0.20439261198043823
1772615925777134000,5.135134033203125,0.07518995553255081,0.43831032514572144,0.1776164323091507
1772615925787202000,5.1452021484375,0.09835013002157211,0.4478953182697296,0.14683163166046143
1772615925797270300,5.155270263671875,0.11965862661600113,0.44735345244407654,0.11645427346229553
1772615925807338200,5.165338134765625,0.13894523680210114,0.4450317323207855,0.09787686169147491
1772615925817406200,5.17540625,0.163436159491539,0.43914100527763367,0.09457377344369888
1772615925827474200,5.18547412109375,0.20495937764644623,0.42492878437042236,0.09693492949008942
1772615925837542400,5.19554248046875,0.24756713211536407,0.389394611120224,0.10649120062589645
1772615925847611100,5.205611083984375,0.29150450229644775,0.34298768639564514,0.11265268921852112
1772615925857679000,5.21567919921875,0.3263624608516693,0.29597991704940796,0.10229223221540451
1772615925867747000,5.2257470703125,0.34213611483573914,0.2704585790634155,0.07580363005399704
1772615925877815300,5.235815185546875,0.34200137853622437,0.2601332664489746,0.04237500578165054
1772615925887883300,5.24588330078125,0.32422319054603577,0.2549166679382324,0.0063562854193151
1772615925897951200,5.255951171875,0.2911686897277832,0.267883837223053,-0.035143185406923294
1772615925908019200,5.266019287109375,0.254568874835968,0.30112993717193604,-0.05710095167160034
1772615925918087200,5.276087158203125,0.2291589230298996,0.32632243633270264,-0.07292670011520386
1772615925928155100,5.286155029296875,0.22373859584331512,0.3407517075538635,-0.06334038823843002
1772615925938223000,5.29622314453125,0.23321235179901123,0.33714035153388977,-0.04137641191482544
1772615925948291300,5.306291259765625,0.24756786227226257,0.32269349694252014,-0.012294959276914597
1772615925958359300,5.316359375,0.2795336842536926,0.3120634853839874,0.0014490240719169378
1772615925968427300,5.32642724609375,0.32062092423439026,0.2845042943954468,0.01611318811774254
1772615925978494200,5.336494140625,0.3651638329029083,0.25018778443336487,0.028186488896608353
1772615925988562200,5.346562255859375,0.41871362924575806,0.20365142822265625,0.046076275408267975
1772615925998630400,5.35663037109375,0.47909852862358093,0.15248975157737732,0.05808365345001221
1772615926008699100,5.36669921875,0.5327423214912415,0.11428723484277725,0.05934599041938782
1772615926018767000,5.37676708984375,0.5606008768081665,0.11192017048597336,0.052969008684158325
1772615926028835300,5.38683544921875,0.5579845905303955,0.15934467315673828,0.05721941590309143
1772615926038903300,5.3969033203125,0.5235641598701477,0.24730169773101807,0.08489971607923508
1772615926048971300,5.40697119140625,0.4528793692588806,0.36372923851013184,0.15321725606918335
1772615926059039200,5.417039306640625,0.3475220203399658,0.4670506417751312,0.24639706313610077
1772615926069107200,5.427107177734375,0.24104750156402588,0.5529029965400696,0.3491404950618744
1772615926079175200,5.437175048828125,0.147561177611351,0.5926738381385803,0.42620769143104553
1772615926089243100,5.4472431640625,0.09159910678863525,0.6049832105636597,0.4583224952220917
1772615926099311000,5.45731103515625,0.07910513877868652,0.6000843644142151,0.4310346841812134
1772615926109379300,5.46737939453125,0.09683459997177124,0.5793582797050476,0.3623861074447632
1772615926119447300,5.477447265625,0.12661617994308472,0.5644395351409912,0.2564983367919922
1772615926129515300,5.487515380859375,0.1593722701072693,0.543006956577301,0.13139952719211578
1772615926139583200,5.497583251953125,0.1872493177652359,0.5378988981246948,0.00025424733757972717
1772615926149651200,5.507651123046875,0.2106957882642746,0.5277048945426941,-0.11198334395885468
1772615926159720200,5.51772021484375,0.2237669974565506,0.48436158895492554,-0.1896970570087433
1772615926169788200,5.5277880859375,0.240172877907753,0.41755300760269165,-0.23989124596118927
1772615926179856400,5.5378564453125,0.2578991949558258,0.3595024645328522,-0.25267294049263
1772615926189924400,5.54792431640625,0.2714376449584961,0.2975544333457947,-0.246210515499115
1772615926199992000,5.557991943359375,0.296282559633255,0.2546013593673706,-0.227693110704422
1772615926210060000,5.56806005859375,0.3189796209335327,0.2278299331665039,-0.20344503223896027
1772615926220128300,5.578128173828125,0.34863048791885376,0.1942967176437378,-0.17030654847621918
1772615926230196200,5.5881962890625,0.3665913939476013,0.16287276148796082,-0.13800320029258728
1772615926240264200,5.59826416015625,0.368630975484848,0.13389545679092407,-0.11348483711481094
1772615926250332200,5.608332275390625,0.34795817732810974,0.11944087594747543,-0.10842083394527435
1772615926260400400,5.618400390625,0.30514058470726013,0.12190254777669907,-0.11662158370018005
1772615926270468400,5.62846826171875,0.25781941413879395,0.13048991560935974,-0.12775811553001404
1772615926280536000,5.6385361328125,0.21714666485786438,0.14575563371181488,-0.13584426045417786
1772615926290604000,5.64860400390625,0.19285783171653748,0.16911634802818298,-0.1393769383430481
1772615926300672300,5.65867236328125,0.16892090439796448,0.19918908178806305,-0.11835731565952301
1772615926310740200,5.668740234375,0.14771601557731628,0.2076912224292755,-0.0696968361735344
1772615926320809200,5.678809326171875,0.14016185700893402,0.1868327111005783,0.000533608254045248
1772615926330877200,5.688877197265625,0.1284644454717636,0.1390361487865448,0.09239722043275833
1772615926340945200,5.698945068359375,0.11320175975561142,0.08445560187101364,0.18594229221343994
1772615926351013000,5.70901318359375,0.09101469814777374,0.07702112197875977,0.2543197572231293
1772615926361081000,5.7190810546875,0.05774138867855072,0.08139125257730484,0.28668713569641113
1772615926371149300,5.7291494140625,0.01946271024644375,0.07933209091424942,0.28430867195129395
1772615926381217300,5.73921728515625,0.003253758419305086,0.05517318844795227,0.24872568249702454
1772615926391286000,5.7492861328125,0.013928773812949657,0.018547266721725464,0.1808808445930481
1772615926401354000,5.75935400390625,0.018291348591446877,0.007073439657688141,0.09387153387069702
1772615926411422200,5.769422119140625,-0.005849674344062805,-0.008057576604187489,-0.00882608164101839
1772615926421490200,5.779490234375,-0.05278191342949867,-0.036397483199834824,-0.10437279939651489
1772615926431558100,5.78955810546875,-0.10215771943330765,-0.07488229125738144,-0.19147442281246185
1772615926441626000,5.799626220703125,-0.12243874371051788,-0.10020740330219269,-0.27404657006263733
1772615926451694300,5.8096943359375,-0.10451753437519073,-0.11595360934734344,-0.34970325231552124
1772615926461763000,5.81976318359375,-0.06003614887595177,-0.15275005996227264,-0.4072880744934082
1772615926471831000,5.8298310546875,-0.008113296702504158,-0.17453178763389587,-0.44971781969070435
1772615926481899300,5.839899169921875,0.030938763171434402,-0.15480193495750427,-0.4562993347644806
1772615926491967200,5.84996728515625,0.044428206980228424,-0.09365654736757278,-0.43153512477874756
1772615926502035200,5.86003515625,0.04512215405702591,-0.028326746076345444,-0.37409964203834534
1772615926512103200,5.870103271484375,0.025225408375263214,0.04648064821958542,-0.2775406241416931
1772615926522171100,5.880171142578125,0.0042649609968066216,0.13404163718223572,-0.13933365046977997
1772615926532239000,5.890239013671875,-0.04173501953482628,0.20418797433376312,0.02340865693986416
1772615926542307000,5.90030712890625,-0.08809321373701096,0.26104339957237244,0.19338573515415192
1772615926552375000,5.910375,-0.11322467029094696,0.3059224486351013,0.35075536370277405
1772615926562443300,5.920443359375,-0.12764939665794373,0.31087663769721985,0.4778531789779663
1772615926572511200,5.93051123046875,-0.12402431666851044,0.30768883228302,0.5574196577072144
1772615926582579200,5.9405791015625,-0.1154862642288208,0.3111115097999573,0.6014025807380676
1772615926592647200,5.950647216796875,-0.12613891065120697,0.31312620639801025,0.6082554459571838
1772615926602715100,5.960715087890625,-0.16328085958957672,0.33945170044898987,0.5936435461044312
1772615926612784000,5.9707841796875,-0.20735670626163483,0.3677733540534973,0.5472148060798645
1772615926622852000,5.98085205078125,-0.23637060821056366,0.36913272738456726,0.467436820268631
1772615926632920300,5.99092041015625,-0.2399594932794571,0.3304732143878937,0.3565363883972168
1772615926642988300,6.00098828125,-0.2133401334285736,0.25519126653671265,0.2326730489730835
1772615926653056300,6.01105615234375,-0.16500800848007202,0.16339421272277832,0.10222875326871872
1772615926663124000,6.0211240234375,-0.11009486764669418,0.09456685185432434,-0.03607044741511345
1772615926673192200,6.031192138671875,-0.05977576598525047,0.058963317424058914,-0.1846732497215271
1772615926683260200,6.04126025390625,-0.020360389724373817,0.04248855635523796,-0.33096933364868164
1772615926693328100,6.051328125,0.009397773072123528,0.04332159459590912,-0.43625155091285706
1772615926703396000,6.06139599609375,0.028077464550733566,0.05325726419687271,-0.5122326612472534
1772615926713464300,6.07146435546875,0.03957779332995415,0.08310118317604065,-0.5492008328437805
1772615926723532300,6.0815322265625,0.038688335567712784,0.12117152661085129,-0.5438638925552368
1772615926733600300,6.091600341796875,0.03326001390814781,0.1622486412525177,-0.49217191338539124
1772615926743668000,6.10166796875,0.02493814192712307,0.18568679690361023,-0.40383321046829224
1772615926753736200,6.111736083984375,0.026401016861200333,0.19088982045650482,-0.2818167507648468
1772615926763804200,6.12180419921875,0.04214779660105705,0.17992684245109558,-0.14609521627426147
1772615926773874000,6.1318740234375,0.07311449944972992,0.1742047667503357,-0.024106722325086594
1772615926783941600,6.141941650390625,0.10769440233707428,0.16550320386886597,0.07437041401863098
1772615926794009900,6.152009765625,0.13134407997131348,0.16282352805137634,0.13306303322315216
1772615926804077800,6.162077880859375,0.13967011868953705,0.17412014305591583,0.1511974036693573
1772615926814145800,6.172145751953125,0.13979847729206085,0.18583618104457855,0.13003753125667572
1772615926824213800,6.1822138671875,0.12667901813983917,0.20029282569885254,0.08972669392824173
1772615926834282000,6.192281982421875,0.11271633207798004,0.22753536701202393,0.030529683455824852
1772615926844350000,6.202349853515625,0.10694731026887894,0.2615675628185272,-0.017821434885263443
1772615926854418000,6.21241796875,0.1034628301858902,0.2818227708339691,-0.053272370249032974
1772615926864485600,6.222485595703125,0.10700415074825287,0.29587534070014954,-0.06932958215475082
1772615926874553900,6.232553955078125,0.10174334049224854,0.3031489849090576,-0.07871349900960922
1772615926884621800,6.242621826171875,0.09792810678482056,0.2801051139831543,-0.07917267084121704
1772615926894689800,6.252689697265625,0.09999658167362213,0.24105305969715118,-0.08079267293214798
1772615926904757800,6.2627578125,0.10469669848680496,0.1940586417913437,-0.09400653094053268
1772615926914826800,6.27282666015625,0.1321946382522583,0.15300467610359192,-0.13611963391304016
1772615926924894700,6.282894775390625,0.16893406212329865,0.13635623455047607,-0.19811037182807922
1772615926934962700,6.292962646484375,0.21263040602207184,0.17124390602111816,-0.28067103028297424
1772615926945031000,6.303031005859375,0.25441157817840576,0.22408245503902435,-0.3607020378112793
1772615926955099000,6.313098876953125,0.2804112136363983,0.28657060861587524,-0.4199565649032593
1772615926965166800,6.323166748046875,0.2940016984939575,0.3431520164012909,-0.43975281715393066
1772615926975234800,6.33323486328125,0.29572954773902893,0.3783518075942993,-0.4249075651168823
1772615926985303000,6.343302978515625,0.3024430274963379,0.39217862486839294,-0.37967362999916077
1772615926995370800,6.353370849609375,0.30979520082473755,0.39472195506095886,-0.3187420964241028
1772615927005438700,6.363438720703125,0.3179096579551697,0.3981817960739136,-0.2601928412914276
1772615927015506700,6.373506591796875,0.32993409037590027,0.402660995721817,-0.208006352186203
1772615927025575000,6.383574951171875,0.3548811674118042,0.3989291489124298,-0.16711202263832092
1772615927035643000,6.393642822265625,0.3710942268371582,0.40019121766090393,-0.13978347182273865
1772615927045710800,6.4037109375,0.37664520740509033,0.42654672265052795,-0.1267097443342209
1772615927055778800,6.41377880859375,0.37235164642333984,0.4456533193588257,-0.12095757573843002
1772615927065847800,6.423847900390625,0.36316025257110596,0.4571075141429901,-0.1259421706199646
1772615927075915800,6.433915771484375,0.34741485118865967,0.4642692804336548,-0.15322092175483704
1772615927085983700,6.443983642578125,0.33279773592948914,0.46136781573295593,-0.19421134889125824
1772615927096051700,6.4540517578125,0.3124951124191284,0.4390611946582794,-0.23643124103546143
1772615927106120000,6.464119873046875,0.2937207520008087,0.42985305190086365,-0.264498233795166
1772615927116188000,6.47418798828125,0.26832857728004456,0.43766728043556213,-0.279593288898468
1772615927126255900,6.484255859375,0.23693621158599854,0.45124974846839905,-0.271829754114151
1772615927136323800,6.49432373046875,0.22019211947917938,0.48214828968048096,-0.25653043389320374
1772615927146391800,6.504391845703125,0.21298904716968536,0.5272032618522644,-0.22271519899368286
1772615927156459800,6.514459716796875,0.20907899737358093,0.5339040756225586,-0.19305557012557983
1772615927166527700,6.52452783203125,0.22389191389083862,0.5302457213401794,-0.17758338153362274
1772615927176596000,6.534595947265625,0.2557470500469208,0.4891662001609802,-0.1423468291759491
1772615927186664000,6.544663818359375,0.2707671821117401,0.4288105070590973,-0.10514739155769348
1772615927196732000,6.55473193359375,0.31299400329589844,0.336932510137558,-0.0711396262049675
1772615927206800000,6.5647998046875,0.3616919219493866,0.27002033591270447,-0.04917845502495766
1772615927216868900,6.574868896484375,0.39879322052001953,0.22921617329120636,-0.008781497366726398
1772615927226936800,6.584936767578125,0.3699263036251068,0.20944884419441223,0.07614266127347946
1772615927237004800,6.5950048828125,0.2916104793548584,0.19415058195590973,0.16992907226085663
1772615927247072800,6.60507275390625,0.20082733035087585,0.221274733543396,0.23873554170131683
1772615927257141000,6.61514111328125,0.1463174819946289,0.33545005321502686,0.243356391787529
1772615927267208700,6.625208740234375,0.10470632463693619,0.4574711322784424,0.1783500611782074
1772615927277276700,6.635276611328125,0.08820431679487228,0.5174269080162048,0.07154904305934906
1772615927287344600,6.6453447265625,0.11314741522073746,0.5041187405586243,-0.014588624238967896
1772615927297412900,6.655412841796875,0.13972362875938416,0.412138968706131,-0.062427252531051636
1772615927307480800,6.665480712890625,0.13006140291690826,0.3244895935058594,-0.14899326860904694
1772615927317548800,6.675548828125,0.12949015200138092,0.2832721173763275,-0.22382649779319763
1772615927327617000,6.685616943359375,0.10559361428022385,0.2730887234210968,-0.230523020029068
1772615927337685000,6.69568505859375,0.07200609147548676,0.21130099892616272,-0.19017452001571655
1772615927347752700,6.705752685546875,0.0666300430893898,0.23019659519195557,-0.1173476055264473
1772615927357820700,6.715820556640625,0.07526134699583054,0.2605707347393036,-0.02753889374434948
1772615927367890000,6.725889892578125,0.08523742854595184,0.26983097195625305,0.06368870288133621
1772615927377958000,6.7359580078125,0.10155994445085526,0.29771852493286133,0.13416367769241333
1772615927388025900,6.74602587890625,0.11731994152069092,0.32386064529418945,0.1832788735628128
1772615927398093800,6.75609375,0.12423510104417801,0.3205103874206543,0.2157694399356842
1772615927408161800,6.766161865234375,0.1333915889263153,0.3184996247291565,0.23017796874046326
1772615927418229800,6.776229736328125,0.14589034020900726,0.32896316051483154,0.20341213047504425
1772615927428297700,6.786297607421875,0.17187049984931946,0.34925150871276855,0.14394938945770264
1772615927438365700,6.79636572265625,0.20375919342041016,0.36130496859550476,0.06412354856729507
1772615927448434000,6.806433837890625,0.21976783871650696,0.366227388381958,-0.006176937371492386
1772615927458502000,6.816501953125,0.23843659460544586,0.34956613183021545,-0.05434659868478775
1772615927468569900,6.82656982421875,0.25845351815223694,0.32368478178977966,-0.08113869279623032
1772615927478637600,6.836637451171875,0.3068074584007263,0.34469738602638245,-0.0822865217924118
1772615927488705800,6.846705810546875,0.32312795519828796,0.3248099684715271,-0.05113786458969116
1772615927498773800,6.856773681640625,0.30964890122413635,0.311964750289917,0.013152973726391792
1772615927508841700,6.866841796875,0.289394348859787,0.3312220275402069,0.07351700216531754
1772615927518911000,6.876910888671875,0.2721248269081116,0.3370916247367859,0.11989568173885345
1772615927528979000,6.88697900390625,0.2596384286880493,0.34043189883232117,0.14628659188747406
1772615927539046700,6.897046630859375,0.2519988715648651,0.322620153427124,0.1415586769580841
1772615927549114600,6.907114501953125,0.2577895522117615,0.3099040985107422,0.10151905566453934
1772615927559182800,6.917182861328125,0.259169340133667,0.2966258227825165,0.05444023385643959
1772615927569250800,6.927250732421875,0.2594034969806671,0.28456103801727295,0.007198580540716648
1772615927579318800,6.93731884765625,0.25878405570983887,0.2807311415672302,-0.013246507383883
1772615927589386800,6.94738671875,0.2527718245983124,0.2687550187110901,0.005964251700788736
1772615927599455000,6.957455078125,0.24540975689888,0.26950204372406006,0.03766199201345444
1772615927609523000,6.96752294921875,0.2354930192232132,0.27847468852996826,0.07782656699419022
1772615927619590700,6.977590576171875,0.22762151062488556,0.27595826983451843,0.10439905524253845
1772615927629658600,6.98765869140625,0.21985040605068207,0.28231656551361084,0.1226252019405365
1772615927639726800,6.997726806640625,0.21456989645957947,0.2722841799259186,0.13247568905353546
1772615927649794800,7.007794921875,0.20633459091186523,0.2440192699432373,0.12565188109874725
1772615927659862800,7.01786279296875,0.21246826648712158,0.21601925790309906,0.10751308500766754
1772615927669931800,7.027931884765625,0.23168279230594635,0.20039361715316772,0.07895984500646591
1772615927679999700,7.037999755859375,0.2430235892534256,0.17491967976093292,0.08982314169406891
1772615927690067700,7.048067626953125,0.25806736946105957,0.1653408408164978,0.06807423382997513
1772615927700135700,7.0581357421875,0.2679988145828247,0.20235930383205414,0.05793211609125137
1772615927710204000,7.068203857421875,0.2688148021697998,0.2050250768661499,0.08366113901138306
1772615927720272000,7.07827197265625,0.2484552264213562,0.21138417720794678,0.11407177150249481
1772615927730339800,7.08833984375,0.22781704366207123,0.22050662338733673,0.1384354829788208
1772615927740407800,7.09840771484375,0.20845745503902435,0.23674391210079193,0.14756107330322266
1772615927750475800,7.108475830078125,0.20122557878494263,0.24116136133670807,0.13693174719810486
1772615927760543700,7.118543701171875,0.2024088203907013,0.24411827325820923,0.10817787051200867
1772615927770611200,7.128611083984375,0.204799085855484,0.24132253229618073,0.07882726937532425
1772615927780679200,7.13867919921875,0.21570393443107605,0.23902688920497894,0.03447844460606575
1772615927790747100,7.1487470703125,0.2305191606283188,0.24676159024238586,-0.031746525317430496
1772615927800815400,7.1588154296875,0.23967698216438293,0.27547022700309753,-0.12300746142864227
1772615927810883300,7.16888330078125,0.2421155720949173,0.30601227283477783,-0.21320170164108276
1772615927820952000,7.1789521484375,0.23083148896694183,0.33225905895233154,-0.2795841693878174
1772615927831020000,7.18902001953125,0.21047207713127136,0.33284899592399597,-0.28869178891181946
