time,seconds_elapsed,z,y,x
1772537515635378000,0.0763779296875,-0.02602992879152298,0.05237082322835922,0.23063078342564403
1772537515645446000,0.08644580078125,0.1494552329301834,0.06012976679205894,0.2845636683389544
1772537515655512800,0.096512939453125,0.22588556165993212,-0.008304302486777305,0.3188748840678483
1772537515665581000,0.1065810546875,0.20986381666362283,-0.01030570543706417,0.30552856882587076
1772537515675649000,0.11664892578125,0.23588906928002834,-0.01745908432304859,0.27739706464521585
1772537515685716000,0.126716064453125,0.15354513259232044,-0.0866097774386406,0.22482713864818213
1772537515695784000,0.136783935546875,0.07293430330753325,-0.017881693649291992,0.17776655065715313
1772537515705852000,0.146851806640625,-0.14001988058686254,0.040891397836804386,0.043283407539874315
1772537515715919000,0.156919189453125,-0.3400917865544557,0.11152619203031063,-0.1441273159056902
1772537515725987000,0.166987060546875,-0.39091947199404237,0.14025953456163406,-0.17391170185990631
1772537515736054800,0.1770546875,-0.28862697225511075,0.14574293440878391,-0.0024888942062854767
1772537515746122000,0.1871220703125,-0.0491606290102005,0.17319149782657622,0.3185082427125424
1772537515756189700,0.197189697265625,0.13325813136696815,0.17033786196112632,0.592552489798516
1772537515766258000,0.2072578125,0.28702245966792106,0.18575930297672746,0.7152329669192433
1772537515776324900,0.217324951171875,0.3706231184184551,0.208401342895627,0.7942505356632172
1772537515786392800,0.227392822265625,0.4598632443606853,0.2902443443238735,0.8390892828863113
1772537515796460000,0.2374599609375,0.6115192022055387,0.3334697380661964,0.8410751229412853
1772537515806527700,0.24752783203125,0.6124105980873108,0.2742506563782692,0.7438079040184616
1772537515816595700,0.257595703125,0.4802911153614521,0.20235680203437803,0.49629532470107074
1772537515826663000,0.267662841796875,0.26306875262856483,0.17282032642662523,0.2275629933528602
1772537515836731000,0.27773095703125,0.0072141691625118255,0.07481646379232407,0.003619213410466909
1772537515846798800,0.287798828125,-0.31843583506345746,-0.025590368330478667,-0.15622341189086436
1772537515856865800,0.29786572265625,-0.5037894798487424,0.03840075006484985,-0.16816358666196465
1772537515866933800,0.307933837890625,-0.5159013579249382,0.10419219588041305,0.03239946382343769
1772537515877002000,0.318001953125,-0.4272819942295551,0.13395955763459205,0.233490337575227
1772537515887069000,0.32806884765625,-0.2968371667176485,0.13133563887178898,0.3268558728843927
1772537515897137000,0.338136962890625,-0.09392097723484039,0.1878372782945633,0.44747021125555037
1772537515907204900,0.348204833984375,0.13261807989776134,0.2046457897543907,0.655443391866982
1772537515917271800,0.358271728515625,0.3250321645885706,0.1633580860763788,0.8079917685069143
1772537515927339800,0.36833984375,0.28514731344580646,0.049860886234045027,0.7223546354927122
1772537515937408000,0.378407958984375,0.1984288149356842,-0.004044306954741478,0.47216012361496684
1772537515947475000,0.388474853515625,0.15487725797891616,-0.06040332303643226,0.36532530427128074
1772537515957543000,0.39854296875,0.08394903379678725,-0.24451310524046418,0.2782547774530947
1772537515967609900,0.40860986328125,0.05259761772155761,-0.35180794331133364,0.09728782331943511
1772537515977677800,0.418677734375,-0.0775029263973236,-0.4098895454019308,-0.19266528297290206
1772537515987746000,0.42874609375,-0.1853232496470213,-0.4287731095701456,-0.48868002739176153
1772537515997813000,0.43881298828125,-0.1811795739710331,-0.4185369622379541,-0.6327662806347012
1772537516007881000,0.448880859375,-0.04736147063374519,-0.4167950870066881,-0.557688827818632
1772537516017949000,0.458948974609375,0.2134299847126007,-0.4041974712401628,-0.2617969791270792
1772537516028015900,0.469015869140625,0.46881578162312504,-0.351368967372179,0.16800167409852146
1772537516038083800,0.479083740234375,0.7063917810767889,-0.29559213509261606,0.510159307141602
1772537516048152000,0.489152099609375,0.789192229360342,-0.25153555122315885,0.6633496349468827
1772537516058219000,0.499218994140625,0.7252315061032771,-0.20988018327653407,0.6233015560664236
1772537516068287000,0.509286865234375,0.6048685121446847,-0.20738369028568265,0.4071476993478834
1772537516078355000,0.51935498046875,0.478351671731472,-0.2258475677371025,0.15449965683817862
1772537516088422000,0.529421875,0.39573067166805265,-0.22636486960947513,0.05179828403741121
1772537516098490000,0.539489990234375,0.38751346294283867,-0.2131505832493305,0.045849166374653576
1772537516108557800,0.549557861328125,0.407059874933958,-0.20214286702275275,0.10903013743087649
1772537516118625000,0.559625,0.45719197932481764,-0.19180325931608677,0.18345087990388273
1772537516128693000,0.56969287109375,0.5389858809143304,-0.1937836194783449,0.3281323225609958
1772537516138760700,0.5797607421875,0.6596411358177662,-0.20430325992703435,0.5638496885359287
1772537516148828000,0.589827880859375,0.7938572985619307,-0.2413981880903244,0.7854362378276885
1772537516158895900,0.599895751953125,0.9246931712180375,-0.2666898657351732,0.9638833180949091
1772537516168963000,0.609963134765625,1.057361519998312,-0.3216331698000431,1.0688001749880611
1772537516179030800,0.62003076171875,1.141051610597968,-0.4128109858065843,1.0620568382076918
1772537516189098800,0.6300986328125,1.1134224299162625,-0.5329097758710384,0.9890331030510365
1772537516199165700,0.640165771484375,0.9832850609183311,-0.6637830579280853,0.775547734889388
1772537516209234000,0.65023388671875,0.7782493950635194,-0.7590081034988164,0.5580725664392113
1772537516219302700,0.660302734375,0.5785276177078486,-0.8408855917185545,0.31542364763543007
1772537516229369600,0.67036962890625,0.4780032966852188,-0.9288076207995414,0.07550181570798158
1772537516239437800,0.680437744140625,0.40208734721839423,-0.9872732537716626,-0.08606602595075964
1772537516249505800,0.690505859375,0.3724450731486082,-1.0068693501234054,-0.11032353824228047
1772537516259572700,0.70057275390625,0.39978783810436724,-0.9692378308653831,0.01028086325675249
1772537516269640700,0.710640625,0.5125450332343578,-0.8828852430582046,0.1494863587208092
1772537516279708700,0.720708740234375,0.6260176831573248,-0.8141992448449135,0.30185967105478045
1772537516289775900,0.73077587890625,0.7064256833463907,-0.8029261556804179,0.3631567280605435
1772537516299843800,0.74084375,0.6754395934522152,-0.7632564085930585,0.34128830286264417
1772537516309911800,0.750911865234375,0.6668301705390215,-0.6503063212394714,0.3201008456662297
1772537516319978800,0.760978759765625,0.6467594424128532,-0.629400311332941,0.31287995450198647
1772537516330046700,0.771046630859375,0.5906769051849842,-0.6177718328595161,0.2740044265322387
1772537516340113700,0.78111376953125,0.5259855295658111,-0.5219225179105996,0.23385230275541544
1772537516350182000,0.791181884765625,0.5166016151487827,-0.4135673571318388,0.18202610779777167
1772537516360249900,0.801249755859375,0.505047370955348,-0.3577110298752785,0.1538109439216554
1772537516370316800,0.81131689453125,0.4872960256874561,-0.362775327527523,0.14996084436476229
1772537516380384800,0.821384765625,0.5350251605898142,-0.3784118725985288,0.23106033394932746
1772537516390452700,0.83145263671875,0.530862780213356,-0.47617140508294103,0.3051462915100157
1772537516400520000,0.84152001953125,0.4606698845684528,-0.5406593670845031,0.3045892421491444
1772537516410588000,0.851587890625,0.28270459646880625,-0.6166624103128909,0.16032456359937786
1772537516420655600,0.861655517578125,0.02152911024093628,-0.6834148101150989,-0.13924553521350025
1772537516430722800,0.871722900390625,-0.11964052490293979,-0.6740589527487755,-0.40364948196858164
1772537516440790500,0.88179052734375,-0.11921850009858607,-0.6770984665751457,-0.5005969674177467
1772537516450858800,0.891858642578125,-0.006468319231271743,-0.65601593105793,-0.46813612879589195
1772537516460925700,0.90192578125,0.15188041425049303,-0.5936135431587696,-0.35589229001551864
1772537516470993700,0.91199365234375,0.27704116387963296,-0.5723416225492954,-0.20190920439735055
1772537516481061600,0.9220615234375,0.40111879444718357,-0.5394394699007272,-0.04272913465797901
1772537516491128600,0.932128662109375,0.4999585233837366,-0.49417058763206,0.10058584195151925
1772537516501196500,0.942196533203125,0.5584568895816803,-0.47206104715466496,0.260309078656882
1772537516511264800,0.9522646484375,0.5475520492076873,-0.48593467420637604,0.42023368315324183
1772537516521331700,0.962331787109375,0.3831371475547552,-0.5300602316588163,0.45835313205868006
1772537516531399700,0.972399658203125,0.10512217020690441,-0.5541898797869682,0.2136421661585569
1772537516541466600,0.982466552734375,-0.18378537255525587,-0.5695172127783298,-0.19328005387037991
1772537516551534600,0.99253466796875,-0.5424544338077306,-0.6049339785963297,-0.617516396793723
1772537516561602800,1.002602783203125,-0.9171072461336851,-0.5698983210504055,-1.0901637194037437
1772537516571669800,1.012669677734375,-1.2566636106371878,-0.3784218094706535,-1.508816855367273
1772537516581737700,1.02273779296875,-1.4461433954417704,-0.10839140113592147,-1.6555147524133325
1772537516591805700,1.0328056640625,-1.4064613733947275,0.10336100575327872,-1.4380759704507886
1772537516601872600,1.04287255859375,-1.247026598241925,0.35432080291509627,-1.040024016228318
1772537516611940600,1.052940673828125,-0.9484037171512841,0.6883610343456268,-0.6369216467484832
1772537516622008800,1.0630087890625,-0.6086848555624484,1.0153618686586618,-0.19229864161759613
1772537516632075800,1.07307568359375,-0.2773737568348646,1.2310218043804169,0.2032427910886705
1772537516642143700,1.083143798828125,0.07427636556625365,1.3503665612071751,0.5246158486478031
1772537516652211700,1.093211669921875,0.3412210828453302,1.3769716595381498,0.6581432984754443
1772537516662278700,1.103278564453125,0.4685743740826845,1.3359195181816816,0.6244247148774564
1772537516672347000,1.113346923828125,0.46787645494639873,1.2518483193099499,0.5526622318282723
1772537516682414800,1.123414794921875,0.42743104731142517,1.1097557241022586,0.4650220884285867
1772537516692481800,1.133481689453125,0.3830710965812206,0.94507311142385,0.4416023421354592
1772537516702549800,1.1435498046875,0.3193675629556179,0.8193424529522657,0.4571259283512831
1772537516712617700,1.15361767578125,0.2743716524094343,0.7244535074681043,0.45570422498509283
1772537516722684700,1.1636845703125,0.271604525783658,0.6301064137756824,0.4660086152479052
1772537516732753000,1.1737529296875,0.25184943947792054,0.5610246942430734,0.4679381220057606
1772537516742819800,1.18381982421875,0.1941980454981327,0.46520694347620006,0.4192442337244749
1772537516752887800,1.1938876953125,-0.00020107553005218505,0.26880992662906644,0.29162922281101344
1772537516762955800,1.203955810546875,-0.3167524120211601,0.02543430098593235,-0.01846753071323037
1772537516773022700,1.214022705078125,-0.6741033764123916,-0.20878186664581297,-0.5344096590399742
1772537516783091000,1.224091064453125,-0.9719611183494329,-0.35128596526384354,-1.079690402314812
1772537516793158700,1.23415869140625,-1.1492682348012924,-0.39944121662378307,-1.4577986157916485
1772537516803225900,1.244225830078125,-1.1285428421586752,-0.326541984629631,-1.6195435675829648
1772537516813293600,1.25429345703125,-0.8993190759867429,-0.21488193708658218,-1.3907241444282232
1772537516823361500,1.264361572265625,-0.4562321943819523,-0.12036007134914398,-0.8758166198462247
1772537516833428700,1.2744287109375,0.12891571824848652,-0.009065934509038925,-0.3431299852065742
1772537516843496700,1.28449658203125,0.6808066734433174,0.13300211077928542,0.17669161490201948
1772537516853564700,1.294564697265625,1.1487982792019844,0.2909106992781162,0.7113790679700672
1772537516863631600,1.304631591796875,1.4719406845211982,0.4404419200539589,1.1695984906464814
1772537516873699600,1.314699462890625,1.606221729195118,0.4993775086253881,1.478305397247523
1772537516883767800,1.324767822265625,1.5451958903461693,0.5040799872279167,1.6284963971063493
1772537516893834800,1.334834716796875,1.2747855427831412,0.4779869300723076,1.6054348166011272
1772537516903902700,1.34490283203125,0.8803069170027971,0.4070511071056127,1.348215666783601
1772537516913969700,1.3549697265625,0.4219026392787695,0.31587855179607865,1.0481189137481153
1772537516924037600,1.36503759765625,0.058064066433906554,0.24532032997012138,0.8557745332926511
1772537516934105600,1.375105712890625,-0.24873627589344977,0.15407061777114867,0.7095404543660581
1772537516944172500,1.385172607421875,-0.50599488093853,0.08472352530062198,0.5612627407826483
1772537516954240800,1.39524072265625,-0.6931845089793205,0.016152677899599073,0.506790269099921
1772537516964308700,1.405308837890625,-0.8126455856621265,-0.06621931583881378,0.47475452402234075
1772537516974375700,1.415375732421875,-0.8684685951709746,-0.08833236344754695,0.43213966339379545
1772537516984443600,1.425443603515625,-0.8567354872792958,-0.05332534747421741,0.41133492190465326
1772537516994512000,1.435511962890625,-0.7637175963640213,0.009102759388089179,0.4577493209466338
1772537517004578800,1.445578857421875,-0.6129851831048727,0.04493804287910461,0.5285157786957919
1772537517014646800,1.455646728515625,-0.43746670363545415,0.07940612967014313,0.5660198721818626
1772537517024714800,1.46571484375,-0.24546646044254303,0.10597557216584681,0.5509679951310158
1772537517034781700,1.47578173828125,-0.08058744840919971,0.11537526867389679,0.500330571566522
1772537517044849700,1.485849609375,0.036004794839024544,0.12080839963853358,0.44784532817825673
1772537517054918000,1.49591796875,0.16212065323591232,0.141999656227231,0.4851923314064741
1772537517064984800,1.50598486328125,0.298231251424551,0.16029694494009017,0.5942847204186021
1772537517075052800,1.516052734375,0.43872459474205966,0.16014964542388915,0.7406359959840774
1772537517085120800,1.526120849609375,0.533378562426567,0.13374620714485644,0.8298562481820583
1772537517095187700,1.536187744140625,0.5679132847130298,0.0741132839590311,0.8780459863334894
1772537517105256000,1.546255859375,0.49179918232560155,0.007776479220390319,0.8412539866395294
1772537517115323000,1.556322998046875,0.35053836176693437,-0.045746436652541154,0.7772232668861746
1772537517125390800,1.566390869140625,0.23438918611109255,-0.12462649662196636,0.7528532341308891
1772537517135458800,1.576458740234375,0.1306505792170763,-0.2355027003109455,0.7329553783535957
1772537517145525800,1.58652587890625,0.07652326771020888,-0.3189139739692211,0.6512456479161978
1772537517155593700,1.59659375,0.0171101247549057,-0.46199265760481356,0.5708301950730383
1772537517165661700,1.60666162109375,-0.10752397065162658,-0.5945066926062107,0.44158495260924097
1772537517175729000,1.61672900390625,-0.3178793702244758,-0.690678663638234,0.21757526782378553
1772537517185796900,1.626796875,-0.45613983992338175,-0.7680307833880186,0.10111512652263045
1772537517195864600,1.636864501953125,-0.48758711758852,-0.8157114029735326,0.14479060212001205
1772537517205931800,1.646931884765625,-0.39521629240512846,-0.8402911329567432,0.2474896368332207
1772537517215999500,1.65699951171875,-0.2513105102956295,-0.894712458974123,0.3021799890503287
1772537517226067200,1.667067138671875,-0.0767845489948988,-0.9582558336019515,0.3697891518123448
1772537517236134400,1.677134521484375,0.13332593590617178,-1.0578992801368237,0.5220218866318463
1772537517246202400,1.687202392578125,0.32986557609438893,-1.1087667130649088,0.7196512217529117
1772537517256269600,1.69726953125,0.39899347285628317,-1.1176759957075117,0.7880202629715204
1772537517266337300,1.707337158203125,0.31292145555615425,-1.150669333770871,0.6917930546209216
1772537517276405200,1.7174052734375,0.07494447408616542,-1.2103770757585763,0.5035211843013763
1772537517286472400,1.727472412109375,-0.2568529468536377,-1.1971411620885133,0.2761792863532901
1772537517296540200,1.7375400390625,-0.6172235513269901,-1.108921611365676,-0.0197767136156559
1772537517306608400,1.7476083984375,-0.9803875859111547,-0.9379781847268343,-0.3405073816180229
1772537517316675300,1.75767529296875,-1.3197113107025622,-0.6830097364455461,-0.6613010318540036
1772537517326743300,1.767743408203125,-1.551028249761462,-0.45785716523528097,-0.9059740038312971
1772537517336811300,1.777811279296875,-1.653874291729927,-0.2541343355447054,-0.9963111312299966
1772537517346878200,1.787878173828125,-1.6545651966035364,0.04247077598273754,-0.9472091005392372
1772537517356946400,1.797946533203125,-1.5308447089105843,0.4053448877096176,-0.8673616568423808
1772537517367014400,1.808014404296875,-1.299560503077507,0.7620838576823472,-0.6803947316415607
1772537517377081300,1.818081298828125,-1.011592286992073,1.0242840107828377,-0.4202585253335535
1772537517387149300,1.8281494140625,-0.7254740826874971,1.2119091076314448,-0.14189663424417376
1772537517397216300,1.83821630859375,-0.47247547317445276,1.3597855469375848,0.11853855501040815
1772537517407284200,1.8482841796875,-0.28496318905055523,1.4106804523944854,0.25804434859529135
1772537517417352400,1.8583525390625,-0.10538462053537369,1.3699983133941889,0.2774514982461929
1772537517427419400,1.86841943359375,0.05205401236414909,1.2737614604324101,0.22234774292260406
1772537517437487400,1.8784873046875,0.07001520099043845,1.1033902807235718,0.12265446589663624
1772537517447555300,1.888555419921875,0.009468085569143294,0.9125783705323934,-0.055404053444415326
1772537517457622300,1.898622314453125,-0.05316343491077423,0.7189215923041105,-0.22987565420940517
1772537517467690500,1.9086904296875,-0.17963409809470177,0.510780361649394,-0.38368250647783275
1772537517477758500,1.918758544921875,-0.34444296750128267,0.3944301104635,-0.5360917669080197
1772537517487825400,1.928825439453125,-0.5300421114802361,0.31980887698233124,-0.6339413157634437
1772537517497893400,1.938893310546875,-0.6906821707695722,0.20581249544620514,-0.6522741141811013
1772537517507961300,1.94896142578125,-0.8689479031205177,0.1780728401273489,-0.6982216263636947
1772537517518028300,1.9590283203125,-1.0298404758661985,0.25817805797755716,-0.7915688953638076
1772537517528096500,1.969096435546875,-1.071798626151681,0.3506903374582529,-0.7856224080495536
1772537517538163500,1.97916357421875,-0.9860229614496231,0.4191688304007053,-0.6064532971180975
1772537517548231400,1.9892314453125,-0.8483458445966243,0.5060591783463955,-0.31173472998961804
1772537517558299400,1.99929931640625,-0.6739943630799651,0.6335130073487758,-0.05300590626150369
1772537517568366300,2.009366455078125,-0.4593108711749315,0.8137257821142673,0.10293825029656291
1772537517578434600,2.0194345703125,-0.21703034729212523,0.9410971935302018,0.22166122196316718
1772537517588502500,2.02950244140625,-0.017460253366827962,0.997114264306426,0.35407764180898665
1772537517598569500,2.039569580078125,0.12429624175429344,1.0453110167205333,0.48463045974001284
1772537517608637400,2.049637451171875,0.24133798233568668,1.0596242042332886,0.6168601248420774
1772537517618705200,2.059705078125,0.28408786752074955,0.9797837747991085,0.8035447259701788
1772537517628772400,2.0697724609375,0.31041970186829565,0.9019920945882797,0.9372427100591361
1772537517638840300,2.07984033203125,0.2716489494472742,0.7884042938530444,0.9180990336500108
1772537517648908300,2.089908203125,0.16775193712115286,0.702180300861597,0.8014477536909281
1772537517658975500,2.0999755859375,0.057871758732199664,0.6646995882511139,0.7230857262462377
1772537517669043200,2.110043212890625,0.019274024790525434,0.6435767207235098,0.7033120813705027
1772537517679111200,2.120111083984375,0.016561258700489998,0.595399257531762,0.7304229372665285
1772537517689178400,2.130178466796875,-0.00803308432996273,0.5172258845269679,0.7855911361284553
1772537517699246300,2.140246337890625,-0.12301555429399012,0.4528618411660194,0.7720169304147362
1772537517709313300,2.150313232421875,-0.3010416326701641,0.41294951749444003,0.6293411284916103
1772537517719381200,2.16038134765625,-0.47382688778340815,0.3465712117016315,0.4709757361359894
1772537517729449200,2.17044921875,-0.5833633673012256,0.2960276039004326,0.5042978677622973
1772537517739516200,2.18051611328125,-0.6099111824870109,0.2589700851380825,0.6297735285595059
1772537517749584400,2.19058447265625,-0.574158901104331,0.21073066262602805,0.7587621659137308
1772537517759652400,2.20065234375,-0.5256348164319992,0.15329495722353456,0.8466770346015692
1772537517769719300,2.21071923828125,-0.5386676087453961,0.01671323439180851,0.7970720228247344
1772537517779787300,2.220787353515625,-0.5987427227407693,-0.09397066159546374,0.5770845792926848
1772537517789855200,2.230855224609375,-0.6734568952023983,-0.1455038649559021,0.41315585372149943
1772537517799922400,2.24092236328125,-0.7520394335299729,-0.21727029352784155,0.2875203261874616
1772537517809990400,2.250990478515625,-0.7877426150739193,-0.2695955240488052,0.15086363842338324
1772537517820058400,2.261058349609375,-0.7633271357417106,-0.28481939666569234,0.0773462745308876
1772537517830125300,2.271125244140625,-0.6921028512224554,-0.2864022819429636,0.049561026504635806
1772537517840193300,2.281193359375,-0.6110597680002451,-0.2838824080765247,0.0011046002410352229
1772537517850260200,2.29126025390625,-0.4830296004146337,-0.22982757728397846,0.0483748854599893
1772537517860328400,2.301328369140625,-0.31900808199346065,-0.18376783689856527,0.1200179799132049
1772537517870396400,2.311396484375,-0.15400632036328316,-0.1632856053620577,0.18143515616729855
1772537517880463400,2.32146337890625,-0.014426877020299433,-0.18186229553818703,0.161084295925498
1772537517890531300,2.33153125,-0.018206687819957733,-0.2254384024143219,0.073789897223562
1772537517900599300,2.341599365234375,-0.05742693757414818,-0.2288146008491516,-0.03364756418839097
1772537517910666500,2.35166650390625,-0.04203472265303135,-0.23147943614423275,-0.09848097862675785
1772537517920734500,2.361734375,-0.06173106450885534,-0.23645488646924495,-0.11814517177864908
1772537517930802400,2.371802490234375,-0.08669453311264515,-0.17353461217582225,-0.11770429614335298
1772537517940869400,2.381869384765625,-0.06343640712201595,-0.09099193804562092,-0.003456716325134039
1772537517950937300,2.391937255859375,-0.0036120530173182484,-0.037675942921638485,0.19324995099306105
1772537517961005600,2.402005615234375,0.00414659828543663,-0.0018938509225845336,0.3356063117034733
1772537517971072500,2.412072509765625,-0.14290800324380398,0.08584405376315116,0.4467452579818666
1772537517981140500,2.422140380859375,-0.4554933587133884,0.21219430543780327,0.46457010687738653
1772537517991207400,2.43220751953125,-0.7767734772920608,0.28387422477006913,0.29709874026328326
1772537518001275400,2.442275390625,-1.0374755007892846,0.31448037543594837,-0.007512567587196826
1772537518011343400,2.45234326171875,-1.2346762352347374,0.31135727497935295,-0.3189870392054319
1772537518021410600,2.46241064453125,-1.38771341830492,0.337937238869071,-0.621941081368178
1772537518031478500,2.472478515625,-1.440368611432612,0.3972825772851705,-0.8884905157193541
1772537518041546200,2.482546142578125,-1.4307786530494688,0.4002285676091909,-1.0185222323857248
1772537518051613400,2.492613525390625,-1.3459423150241374,0.3898322612792253,-1.0138036794312297
1772537518061681200,2.50268115234375,-1.1550053171485661,0.39906420000493525,-0.8949553278192878
1772537518071749400,2.512749267578125,-0.924682942084968,0.43928281314671036,-0.7013109706811607
1772537518081816300,2.52281640625,-0.7126777294784784,0.5033399825155734,-0.5396428835183382
1772537518091884300,2.53288427734375,-0.5517921709954738,0.5913514434456825,-0.4297722036100924
1772537518101952300,2.5429521484375,-0.48204000485539433,0.7153858193933963,-0.3303201879940927
1772537518112019200,2.553019287109375,-0.52626726911664,0.8068453749507665,-0.22508505893200634
1772537518122087200,2.563087158203125,-0.6432511420309543,0.8878390660732984,-0.10712678802758455
1772537518132155400,2.5731552734375,-0.8392921850472688,0.98054540682137,0.017241349919140336
1772537518142222300,2.583222412109375,-0.9779571438938379,1.1376485241562126,0.16394574977122245
1772537518152290300,2.593290283203125,-1.0003390715718268,1.2893150033950804,0.3470731698743999
1772537518162357200,2.603357177734375,-0.9331944575816392,1.3923627054154872,0.5808365522373468
1772537518172425200,2.61342529296875,-0.8639861890599131,1.4403554596900938,0.7959275289647281
1772537518182493400,2.623493408203125,-0.8015984142079949,1.4088544060111046,0.9096388099491596
1772537518192560400,2.633560302734375,-0.7710235354632139,1.405231539338827,0.9125576200053095
1772537518202628400,2.64362841796875,-0.7486287483036518,1.3686609273105859,0.9787010941289365
1772537518212696000,2.653696044921875,-0.7695508325621485,1.2877987536132336,1.1043588334947825
1772537518222763000,2.663762939453125,-0.7620984707295895,1.241810324898362,1.1827908574357628
1772537518232831200,2.673831298828125,-0.8079197261840104,1.1648247003734111,1.2034748951546848
1772537518242899200,2.683899169921875,-0.9611188218176364,1.0965928756684065,1.2161197110638022
1772537518252966100,2.693966064453125,-1.132114563165605,1.053058854368329,1.216333499944955
1772537518263034000,2.7040341796875,-1.2460451859891415,1.0148059883415699,1.1211463752318174
1772537518273102000,2.71410205078125,-1.3359563430607317,0.9282821356207132,0.9517053890451789
1772537518283169000,2.7241689453125,-1.3611089044958353,0.7575234178990126,0.809436487422511
1772537518293237200,2.7342373046875,-1.302536888539791,0.5698147344201803,0.7164530832987278
1772537518303304200,2.74430419921875,-1.201905015489459,0.3868804257363081,0.5933214283443987
1772537518313372200,2.7543720703125,-1.039580656374991,0.23380992491841315,0.46902562498152256
1772537518323440000,2.764440185546875,-0.8289101995036006,0.14558920515179632,0.40383302184194325
1772537518333507000,2.774507080078125,-0.5372381604641676,0.10175240151286125,0.47277255642488597
1772537518343575300,2.7845751953125,-0.30762802532315253,0.10759645136594771,0.6409520713083445
1772537518353643300,2.794643310546875,-0.20274901622235775,0.150754040569067,0.7615249086253345
1772537518363710200,2.804710205078125,-0.2052586609557271,0.16205401774048805,0.9116665163844824
1772537518373778200,2.814778076171875,-0.3073117989808321,0.13512743237018585,1.0237018269807099
1772537518383846100,2.82484619140625,-0.4458779736280441,0.1313216103464365,1.0559522377222776
1772537518393913000,2.8349130859375,-0.6279515738293528,0.11051789177060127,1.1325126225724815
1772537518403981300,2.844981201171875,-0.7957312757402658,0.08767360727787017,1.1745996599346398
1772537518414049000,2.855049072265625,-0.9217676391601562,0.09397066159546374,1.1408305151931941
1772537518424116200,2.8651162109375,-0.9929296720981597,0.09607026422321796,1.0735884321779012
1772537518434184200,2.87518408203125,-0.9520178159952163,0.11106851139068603,1.0049642471544444
1772537518444251100,2.885251220703125,-0.8291846325308084,0.14484043261110782,0.9716856624089181
1772537518454319400,2.8953193359375,-0.6041746846616268,0.20346797814667222,0.9918006680682301
1772537518464387000,2.905386962890625,-0.38325639002025125,0.24391864647865294,1.0506735666669904
1772537518474454300,2.915454345703125,-0.20744564960598944,0.2566822664618492,1.0759832183599471
1772537518484522000,2.92552197265625,-0.1256780515015125,0.2394938157737255,1.0566394893340765
1772537518494590000,2.93558984375,-0.12995908982157706,0.1616249786734581,0.9831469676218927
1772537518504657200,2.9456572265625,-0.19022914186716078,0.06270107858479022,0.9229748229928314
1772537518514725000,2.95572509765625,-0.31982582811713217,-0.0005254851788282394,0.8379046762116253
1772537518524793000,2.96579296875,-0.43762160193622107,0.025087679505348202,0.7343121997900307
1772537518534860000,2.975860107421875,-0.48478491964936254,0.036057986330986024,0.669724576806277
1772537518544928000,2.985927978515625,-0.4988374103993177,0.05369768791794777,0.6421085478670895
1772537518554996200,2.995996337890625,-0.4822358196884393,0.10296703799962997,0.6259457869648933
1772537518565063200,3.006063232421875,-0.4198328472673893,0.14570552500784395,0.6710162240520119
1772537518575131100,3.016131103515625,-0.3031464959949255,0.19331892457604408,0.743672148809582
1772537518585198000,3.026197998046875,-0.19100538693666458,0.17901392036974428,0.7801900077372789
1772537518595266000,3.03626611328125,-0.12523089225590228,0.13249708386659623,0.699525548569113
1772537518605334000,3.046333984375,-0.12371639603972434,0.12969371688365935,0.5883255197532474
1772537518615401200,3.056401123046875,-0.16214637219905853,0.14209493329524994,0.5712864144079387
1772537518625469200,3.06646923828125,-0.23438509445786473,0.09236264187693595,0.5681574687324464
1772537518635537200,3.076537109375,-0.3601636837244034,0.023446342039108274,0.4751613512575626
1772537518645604000,3.08660400390625,-0.46173546797335147,-0.03002747399508953,0.4028114237092435
1772537518655672000,3.096672119140625,-0.5176251129776239,-0.09234919787347316,0.3470828144855797
1772537518665740300,3.106740234375,-0.4431389040529728,-0.14256956506967544,0.264904589753598
1772537518675807200,3.11680712890625,-0.30284196009039877,-0.17554361391067505,0.28401275645792484
1772537518685875200,3.126875244140625,-0.17132219682335853,-0.1744213318824768,0.3559615558594465
1772537518695943200,3.136943115234375,-0.002715104177594185,-0.1363221951127052,0.4048958287678659
1772537518706010000,3.147010009765625,0.06085691202282905,-0.13335107034742832,0.41927725921124215
1772537518716078000,3.157078125,0.03890051628053188,-0.09431085333526133,0.38863092266544697
1772537518726145300,3.167145263671875,-0.07529460269808769,-0.02578326055407524,0.32074645009338854
1772537518736213200,3.177213134765625,-0.2591401810079813,0.013574936366081237,0.23354338293671606
1772537518746281200,3.18728125,-0.5118418534010648,0.011634908214211464,0.13011910268887877
1772537518756348200,3.19734814453125,-0.7769570171654224,-0.06283201148808003,-0.020031126768141984
1772537518766416100,3.207416015625,-1.0171902531296013,-0.1599082378834486,-0.22309154702723025
1772537518776484400,3.217484375,-1.254371115785837,-0.2961310642749071,-0.3853217981174588
1772537518786551300,3.22755126953125,-1.5372802949160336,-0.4469464796423912,-0.5815219772182405
1772537518796619300,3.237619384765625,-1.8053969785839319,-0.5380570756316184,-0.8429394555084407
1772537518806687200,3.247687255859375,-2.0649591843962667,-0.6120546242564916,-1.1015390998989343
1772537518816754200,3.257754150390625,-2.2077374237805603,-0.6206839209139347,-1.3804958881415426
1772537518826822100,3.267822265625,-2.1717308753758666,-0.5727957960575819,-1.6818064008809626
1772537518836890000,3.27789013671875,-1.9279864164203404,-0.47044893578290936,-1.936043320017308
1772537518846957300,3.287957275390625,-1.5262895298242567,-0.2411532734185457,-2.0670755920283495
1772537518857025000,3.29802490234375,-0.9935212082505226,-0.012341010656952858,-1.9197332595989107
1772537518867092200,3.30809228515625,-0.44660336529314515,0.21097733086347578,-1.4765680520609021
1772537518877160200,3.31816015625,-0.02186579484939575,0.4628735320925712,-0.9392454281836747
1772537518887228200,3.328228271484375,0.29191432336270806,0.6849860049545764,-0.5228488389752804
1772537518897295400,3.33829541015625,0.5310860675752163,0.8415022623121738,-0.1864695701379329
1772537518907363000,3.348363037109375,0.7121475681245326,0.9296914178967476,0.05818067855089903
1772537518917431000,3.35843115234375,0.8838046959906816,0.9547089547753334,0.16221454206444322
1772537518927498000,3.368498046875,0.9564595978349447,0.9294161080867052,0.1874504709340632
1772537518937566000,3.37856591796875,0.9820862065225839,0.8884908079802989,0.13373897368647159
1772537518947634200,3.38863427734375,0.9890881942391395,0.8510574416428804,0.12227942203916609
1772537518957701000,3.398701171875,0.857093214675784,0.7754770077407359,0.22474004488661883
1772537518967769000,3.40876904296875,0.6928662368103862,0.7242384034126996,0.3851119547590613
1772537518977837000,3.418837158203125,0.5969193067058921,0.6665683047324419,0.43899296335466204
1772537518987904000,3.428904052734375,0.4439195330366492,0.6215186181724072,0.4421766348920762
1772537518997972200,3.43897216796875,0.2766296604692936,0.6127332541704178,0.40510903312712904
1772537519008040200,3.449040283203125,0.1427151110202074,0.602410013076663,0.33893757501803334
1772537519018107100,3.459107177734375,0.032366146075725556,0.5743675754189491,0.28260128222480413
1772537519028175000,3.469175048828125,-0.04206453326940536,0.49587271537482736,0.29360505292862654
1772537519038242000,3.479241943359375,-0.10620791961699723,0.43289223532676696,0.29301687777712937
1772537519048310000,3.48931005859375,-0.06737403883188962,0.3958113356888294,0.3141896488610655
1772537519058378200,3.499378173828125,0.05344166733026504,0.3150812639385462,0.380340940964967
1772537519068445200,3.509445068359375,0.18529753068387508,0.20006956788003444,0.4727477873098105
1772537519078513200,3.51951318359375,0.2893038486033678,0.06609305911064148,0.5414082857556641
1772537519088581000,3.5295810546875,0.32858634993880986,-0.0649023880213499,0.47093423508182164
1772537519098648000,3.53964794921875,0.29906799450963734,-0.22163550300002097,0.30219796309843655
1772537519108716300,3.54971630859375,0.2384346621096134,-0.350184726023674,0.11897504673153161
1772537519118784300,3.5597841796875,0.20736527784615755,-0.42156595467031,0.01849500324204564
1772537519128851200,3.569851318359375,0.21813713949024677,-0.4809042788237333,-0.06686696609258651
1772537519138919200,3.579919189453125,0.26668139016777276,-0.532436897662282,-0.11702566622942685
1772537519148987100,3.589987060546875,0.34530396824479104,-0.5488713151127099,-0.186733700966835
1772537519159054000,3.60005419921875,0.3924512116059661,-0.5227969626575708,-0.22214842095822093
1772537519169122300,3.610122314453125,0.3904612068325281,-0.44465340026915073,-0.17074118206501007
1772537519179189200,3.620189208984375,0.3459311602324247,-0.3180132257372141,-0.10488836145102977
1772537519189257200,3.63025732421875,0.35797961768358944,-0.20818623884022236,-0.06478636042624712
1772537519199325200,3.6403251953125,0.4010270245105028,-0.13621581212878225,-0.0235889653801918
1772537519209392000,3.65039208984375,0.46139644527733326,-0.05086918649375438,0.01905336777716875
1772537519219460000,3.660460205078125,0.5578630153417588,0.01435293500125408,0.11449629388228058
1772537519229528000,3.670528076171875,0.6675234135001897,0.04174012362062931,0.28720161562711
1772537519239595300,3.68059521484375,0.7734715131372213,0.07820669075250625,0.4176449818342924
1772537519249663200,3.690663330078125,0.9328279623568058,0.08818155680000782,0.5000571614526212
1772537519259731000,3.70073095703125,1.092951304295659,0.06034662441313266,0.5482051062889397
1772537519269798100,3.710798095703125,1.2399649892926214,0.017899813827872275,0.6067318217985331
1772537519279866000,3.7208662109375,1.286281627048552,-0.07883037560880184,0.643076369985938
1772537519289934000,3.73093408203125,1.264155135436356,-0.1821855361431837,0.6458019955575466
1772537519300001000,3.7410009765625,1.2193337046742438,-0.2349222700744867,0.6557645866453647
1772537519310069000,3.751069091796875,1.0623767178118229,-0.2904027497559786,0.6532204551205039
1772537519320136200,3.76113623046875,0.836550192862749,-0.33825288068950177,0.5857151911243796
1772537519330204000,3.771203857421875,0.6744856537282466,-0.34529753850400446,0.40612887769415973
1772537519340272000,3.781272216796875,0.5553682759165763,-0.3718161275953054,0.24471111203059553
1772537519350339000,3.791339111328125,0.5011433492541313,-0.47045653456747527,0.07885989396423101
1772537519360407000,3.801406982421875,0.49749768622815604,-0.5273574024409056,-0.07432488088309765
1772537519370475000,3.81147509765625,0.39503070670515295,-0.5644073224186897,-0.12086714408844709
1772537519380542000,3.8215419921875,0.23765841704010962,-0.6133534318953752,-0.030633623194694516
1772537519390610200,3.831610107421875,0.13473404913842676,-0.6808785696357488,0.1507534560471773
1772537519400678100,3.84167822265625,0.029105390714108944,-0.6648118164539337,0.3693669808775186
1772537519410745000,3.8517451171875,-0.011877484798431396,-0.5801636944770813,0.413598629052937
1772537519420813000,3.86181298828125,-0.07469897489249706,-0.5171294384151697,0.22273849580585955
1772537519430881000,3.871881103515625,-0.14928396801650523,-0.4246364481568336,0.0704834030240774
1772537519440948000,3.881947998046875,-0.17959756547659633,-0.35663492507636546,-0.0035315351270139217
1772537519451016200,3.89201611328125,-0.269707752251625,-0.28811259299218656,-0.12560922404900193
1772537519461083100,3.902083251953125,-0.41344285396933556,-0.19392215116620062,-0.16750249240472911
1772537519471151000,3.912151123046875,-0.541124061986804,-0.1038981813699007,-0.20080811128765344
1772537519481219000,3.922218994140625,-0.751936849938333,-0.08436462886035442,-0.35078926778808234
1772537519491286000,3.9322861328125,-0.905029562588036,-0.05429097763597965,-0.5027797182843089
1772537519501354200,3.942354248046875,-0.942228827908635,-0.03250233967602253,-0.5914687862150371
1772537519511422200,3.952422119140625,-0.8176286347717047,-0.05546586663424968,-0.6022931086987257
1772537519521489200,3.9624892578125,-0.644376346668601,-0.09795885444879532,-0.6182363816313445
1772537519531557000,3.97255712890625,-0.4726613511353731,-0.048880058503150935,-0.6089882224231958
1772537519541625000,3.982625,-0.38734950455278155,-0.022878771284222603,-0.5104889774873852
1772537519551692000,3.992692138671875,-0.4128849278256297,0.013867197310924529,-0.45284313646554947
1772537519561760300,4.00276025390625,-0.40546559147983785,0.18197335469722747,-0.40932971956208347
1772537519571828200,4.012828125,-0.3792567989900708,0.37579263001084323,-0.3364854326255619
1772537519581895200,4.022895263671875,-0.3280222863152623,0.6587199293196201,-0.2647149124003947
1772537519591963100,4.032963134765625,-0.294730549827218,0.9113163877725601,-0.23645503259971737
1772537519602030000,4.043030029296875,-0.27742548702210185,0.9953963544726371,-0.08800693088546395
1772537519612098300,4.053098388671875,-0.2943511951208114,0.975524948310852,0.1242204000391066
1772537519622166300,4.063166259765625,-0.1958689013198018,0.9260475084364413,0.32509543908312916
1772537519632233200,4.073233154296875,-0.11703969475477934,0.7979004364728927,0.3874498961873352
1772537519642301200,4.08330126953125,-0.08122837666124105,0.7246247723817825,0.29711291491910813
1772537519652369000,4.093368896484375,-0.06000117197632789,0.7560247037738561,0.2813236635044217
1772537519662436000,4.10343603515625,-0.09181319130063056,0.7351297997832298,0.27970585304424167
1772537519672504000,4.113504150390625,-0.11278116052746773,0.6685685386389494,0.22616101760044693
1772537519682572000,4.123572021484375,-0.1251385377973318,0.5497790776073932,0.14574877962768076
1772537519692639200,4.13363916015625,-0.1717588346749544,0.42890871864855284,0.05558671653494238
1772537519702707000,4.14370703125,-0.33084172765016556,0.42924248064756393,-0.08458572426512836
1772537519712775000,4.15377490234375,-0.6338397550851106,0.5451017334461212,-0.25589739969447256
1772537519722842000,4.163842041015625,-1.0513310076624154,0.5957236671805382,-0.44786096413880583
1772537519732910000,4.17391015625,-1.3413900585472582,0.6367407372236251,-0.3961332611195743
1772537519742977000,4.18397705078125,-1.3745406329989434,0.690606182923913,-0.12753931532874702
1772537519753045000,4.194044921875,-1.2140502113133669,0.6768605661660433,0.14097133609279988
1772537519763113000,4.204113037109375,-1.009436570262909,0.5713514424681663,0.2599178873822093
1772537519773180000,4.214179931640625,-0.7849597063571214,0.4906225397616625,0.2941037962310016
1772537519783248100,4.224248046875,-0.4099135107994079,0.3788958567231893,0.4021576359756291
1772537519793316000,4.234316162109375,-0.0024836335092782973,0.15636720427572726,0.565527558620274
1772537519803383000,4.244383056640625,0.37662908083498475,0.028905776488780975,0.6895218948185443
1772537519813451000,4.254450927734375,0.7312845225319266,-0.03766191439628601,0.8324830895543098
1772537519823519000,4.26451904296875,1.0528607014477251,-0.13578092784285545,1.1030861832104624
1772537519833586200,4.274586181640625,1.3332725108042358,-0.16551730993688105,1.316158878917992
1772537519843654100,4.284654052734375,1.483537306551635,-0.14406535658538341,1.4178791317269206
1772537519853721000,4.29472119140625,1.471333074016869,-0.16130933685302734,1.4563766201645134
1772537519863789000,4.3047890625,1.2853393777623772,-0.18866262320280075,1.386537798654288
1772537519873857000,4.31485693359375,0.9513795180916785,-0.14002397224009036,1.2417376980535686
1772537519883924000,4.324924072265625,0.5958978547036647,-0.045833530414104456,1.1045043794453144
1772537519893992200,4.3349921875,0.31991818257570265,0.037089667466282845,1.1199135455012321
1772537519904060200,4.34506005859375,0.1608089861154556,0.09671440734565258,1.2573992314353584
1772537519914127000,4.355127197265625,0.10744564471840858,0.1135007069736719,1.405848356062919
1772537519924195000,4.365195068359375,0.14960019435882568,0.139142513230443,1.5290039033494889
1772537519934263000,4.375262939453125,0.1578513053536415,0.055415597751736635,1.630620111262053
1772537519944330200,4.385330322265625,-0.021139818662405014,-0.11150924089550972,1.5372192123785615
1772537519954398200,4.395398193359375,-0.2796019542783499,-0.18857903657257555,1.330898913540691
1772537519964466200,4.405466064453125,-0.6391121425300836,-0.3009925328314304,1.0953855457052588
1772537519974533000,4.415533203125,-1.0225497343361376,-0.44200200897753233,0.8686629486992955
1772537519984601000,4.42560107421875,-1.237206045973301,-0.522018964022398,0.732487614711374
1772537519994669300,4.43566943359375,-1.330935300028324,-0.5479477705270052,0.7120933537192642
1772537520004736300,4.445736328125,-1.342742642199993,-0.5680459711819886,0.7554952730722725
1772537520014804200,4.45580419921875,-1.3585761711478233,-0.5743734206378459,0.8039272955469786
1772537520024871200,4.46587109375,-1.2563386164665222,-0.5589537331879139,1.0008426371797918
1772537520034939100,4.475939208984375,-1.0422639041095971,-0.5666507174313068,1.223259061424434
1772537520045007000,4.486007080078125,-0.8314198442369699,-0.4898538934767246,1.3120396070308982
1772537520055074300,4.49607421875,-0.6498626691251993,-0.36298283279836174,1.30312637886554
1772537520065142300,4.506142333984375,-0.49162031862735744,-0.2721703429728746,1.3588577645681799
1772537520075210000,4.5162099609375,-0.30394378385245796,-0.2420738953948021,1.427578395703435
1772537520085277200,4.526277099609375,-0.09452537286877631,-0.264355285307765,1.4437268358193338
1772537520095345000,4.536344970703125,0.06488485236465931,-0.2958171760201454,1.4004706085473297
1772537520105413000,4.5464130859375,0.13333645730018615,-0.2742927419543266,1.297832510241121
1772537520115480000,4.55647998046875,0.09413608129024505,-0.2508130821675062,1.1073197291269898
1772537520125548000,4.566548095703125,-0.03620177871584892,-0.19505027841329572,0.8391559914469718
1772537520135615200,4.576615234375,-0.2154208662688732,-0.1710533167541027,0.6482248387902975
1772537520145683000,4.586682861328125,-0.4319973323136568,-0.17012041981816292,0.45123102509379387
1772537520155751000,4.5967509765625,-0.7120283256590366,-0.1095534306526184,0.14767624055892228
1772537520165818000,4.606818115234375,-1.071975736284256,0.011680500921607016,-0.23062661870718001
1772537520175886000,4.616885986328125,-1.3906857121139764,0.142331664660573,-0.5140355640530586
1772537520185954000,4.6269541015625,-1.6006968282938003,0.2103624138355255,-0.625361703466624
1772537520196021000,4.63702099609375,-1.669090565562248,0.276211142796278,-0.5934864096477628
1772537520206089000,4.6470888671875,-1.6582359940707683,0.34467911434471604,-0.49136707451865075
1772537520216157000,4.657156982421875,-1.6127181054770945,0.3306587722986936,-0.4340564568005502
1772537520226223900,4.667223876953125,-1.496096636134386,0.33347266067564485,-0.5499377753004432
1772537520236292000,4.6772919921875,-1.283458094060421,0.34909751530885696,-0.6394274920895695
1772537520246360000,4.687360107421875,-1.027838488394022,0.3193552879959345,-0.6056925418786704
1772537520256427000,4.697427001953125,-0.7273685181319713,0.3024409780740738,-0.4578834687203169
1772537520266495000,4.707494873046875,-0.3863929344803095,0.3407721700340509,-0.280847570425272
1772537520276563000,4.71756298828125,-0.028060850097239017,0.44066170028448104,-0.010149345831573009
1772537520286630000,4.7276298828125,0.30726416044682264,0.5229857632279395,0.3316631270356476
1772537520296698000,4.737697998046875,0.5606964852020144,0.5533879157543182,0.6461505167342722
1772537520306765000,4.74776513671875,0.6659907971054315,0.5263976174980401,0.8809006451122462
1772537520316833000,4.7578330078125,0.6161223120868206,0.4707154777646064,1.027115288686007
1772537520326901000,4.76790087890625,0.4095446774870157,0.4287374537348747,1.1448369743555784
1772537520336968000,4.777968017578125,0.10199497809708118,0.3787216692000627,1.1766959015615284
1772537520347036200,4.7880361328125,-0.23824469249546526,0.3034329117208719,1.0861819562911987
1772537520357104000,4.798104248046875,-0.5376771364033222,0.19792612611055374,0.948344388179481
1772537520367171000,4.808171142578125,-0.7799217121899128,0.08363748362958431,0.8393601357169449
1772537520377239000,4.818239013671875,-0.9700883102148771,0.014320786297321319,0.73830448429659
1772537520387307000,4.82830712890625,-1.0965385151326656,-0.03937397901117801,0.5522272014118731
1772537520397374000,4.8383740234375,-1.1703081002205609,-0.07350070501863956,0.33619200263693927
1772537520407442200,4.848442138671875,-1.2901000162929295,-0.09875848039388656,0.09599149989858269
1772537520417510100,4.85851025390625,-1.3800012364923953,-0.0903437032699585,-0.10519581996500492
1772537520427577000,4.8685771484375,-1.3835481153190134,-0.07850655048191547,-0.18854542656391857
1772537520437645000,4.87864501953125,-1.3061632623434065,-0.01801028846502304,-0.251983733382076
1772537520447712000,4.8887119140625,-1.1088760186582802,0.13251403500139713,-0.2879420587308705
1772537520457780200,4.8987802734375,-0.8430009764373302,0.262009014442563,-0.18351400826796888
1772537520467848000,4.908847900390625,-0.5613590407639741,0.3312386180132627,-0.031035335863381624
1772537520477915100,4.9189150390625,-0.25461598158180715,0.4442442349463701,0.09467676403820514
1772537520487983000,4.928983154296875,-0.018975918626785278,0.5456698887228966,0.228381177867949
1772537520498050800,4.93905078125,0.13669190520793198,0.5777671547293662,0.41781683126986024
1772537520508118000,4.949117919921875,0.14704174204766748,0.591208820104599,0.5491079003475606
1772537520518186000,4.95918603515625,0.055419689404964445,0.626170243370533,0.5225339278072119
1772537520528254000,4.96925390625,-0.0457926138818264,0.6687532475560903,0.47062356169745323
1772537520538321000,4.97932080078125,-0.09178630329370498,0.6815852566003799,0.5467717124849557
1772537520548388900,4.989388916015625,-0.12578443448543547,0.6640560296505689,0.7067937860064208
1772537520558457000,4.99945703125,-0.16447101575434206,0.650713732996583,0.8371285772725939
1772537520568524000,5.00952392578125,-0.15850246273875235,0.6439280183792114,0.9756476979076861
1772537520578592000,5.019592041015625,-0.14428221420645712,0.631843612831831,1.0744292669162154
1772537520588659000,5.029658935546875,-0.16933131526708603,0.6529430994838475,1.1012081143788992
1772537520598727000,5.039726806640625,-0.20990181058645246,0.6714227590262889,1.1607244254477322
1772537520608795000,5.049794921875,-0.28997955590784547,0.6318786841452121,1.1591995539680122
1772537520618861800,5.05986181640625,-0.43288639010787006,0.5569570064127445,1.0279654757745564
1772537520628930000,5.069929931640625,-0.6003279461055994,0.4456874194920063,0.7840120502434671
1772537520638998000,5.079998046875,-0.7629454429477452,0.33098259742558,0.5583449536398053
1772537520649065000,5.09006494140625,-0.8368915536463261,0.18272972602248191,0.32661651117056606
1772537520659133000,5.1001328125,-0.8385574410319327,0.04749240353703499,0.15947408424988388
1772537520669201200,5.110201171875,-0.8144552654325962,-0.04117489095330238,0.14469766313955187
1772537520679268000,5.12026806640625,-0.7630886508107185,-0.08166939842700958,0.2098021496042609
1772537520689336000,5.130336181640625,-0.7639145802408457,-0.11166355467438698,0.23225670412704347
1772537520699404000,5.140404052734375,-0.7612164271980524,-0.12157295427024364,0.2305800030864775
1772537520709471000,5.150470947265625,-0.7179390110075473,-0.08079144654870032,0.22449849121570586
1772537520719539000,5.1605390625,-0.6658043346226215,-0.03421031263768673,0.17700477250441907
1772537520729606000,5.17060595703125,-0.6575912175506353,-0.02065583453774452,0.0322442732617259
1772537520739674000,5.180674072265625,-0.6004197160422802,-0.032357378247380254,-0.055913464271277184
1772537520749742000,5.1907421875,-0.48932490116655825,-0.01782148789465427,-0.13987740337625146
1772537520759809000,5.20080908203125,-0.38835342089831826,0.02790039883852005,-0.19103242107406257
1772537520769877000,5.210876953125,-0.29142683210670944,0.06247662217915058,-0.13696867632269857
1772537520779945200,5.2209453125,-0.16244214027523993,0.07210077509284019,0.02073109173104167
1772537520790012200,5.23101220703125,-0.015606149932742118,0.0514390953361988,0.18329641999453306
1772537520800080100,5.241080078125,0.02204056689441204,0.014609540110826491,0.23000761002600192
1772537520810148000,5.251148193359375,-0.06851064164638519,0.023645079481601713,0.18278379429727792
1772537520820215000,5.261215087890625,-0.23861469485163686,0.07411211491525173,0.09338555518388747
1772537520830283000,5.271282958984375,-0.4558072469681501,0.15628244860172272,-0.06612403877079487
1772537520840351200,5.281351318359375,-0.6966454630881548,0.24956220532357692,-0.25922157568112014
1772537520850418200,5.291418212890625,-0.9738257431775331,0.35187574785053727,-0.47198915096223354
1772537520860486100,5.301486083984375,-1.1609101572781801,0.4851613517463207,-0.6493656793884932
1772537520870553000,5.311552978515625,-1.2162024209111928,0.5996767887204885,-0.7419112766169011
1772537520880621000,5.32162109375,-1.1007014800310135,0.6589344488531351,-0.6656944445073604
1772537520890689000,5.33168896484375,-0.8683458455741405,0.7071218489170074,-0.473557569322735
1772537520900756200,5.341756103515625,-0.5541852036118508,0.7041969013810158,-0.23251374762803315
1772537520910824000,5.351823974609375,-0.2465647770732641,0.6665688892543316,0.04755567803159356
1772537520920891100,5.36189111328125,-0.011043956583738326,0.6291670870989561,0.2605634918093681
1772537520930959000,5.371958984375,0.07008417457342148,0.604787848123908,0.35806554240137334
1772537520941026000,5.382026123046875,-0.02424129180908203,0.6207791979819536,0.3153096658669412
1772537520951094000,5.392093994140625,-0.22221827132403849,0.6793535520255565,0.16747005143985152
1772537520961162000,5.402161865234375,-0.4185901537299156,0.7071615964055061,0.04570376655459404
1772537520971229200,5.412229248046875,-0.5118114582628012,0.714722387048602,0.05691986483484506
1772537520981297000,5.422296875,-0.46730771514773367,0.7073387065380812,0.1633444959424436
1772537520991364900,5.43236474609375,-0.3450339191317558,0.6607347762733697,0.33772096576988697
1772537521001432000,5.44243212890625,-0.2030868698745966,0.6002975509673356,0.5309826072007418
1772537521011500000,5.4525,-0.09323357949256897,0.5450111325532198,0.7140317744359373
1772537521021568000,5.462568115234375,-0.07738426845371722,0.46087388270795343,0.8531843706689775
1772537521031635000,5.472635009765625,-0.0978372738957405,0.3560083176106214,0.9564610591396688
1772537521041703000,5.482702880859375,-0.18623451927304266,0.2597533444702625,1.0191060236230491
1772537521051771000,5.49277099609375,-0.3321925577372312,0.14940496404767037,1.0180420476533472
1772537521061837800,5.502837890625,-0.49083121407628055,0.018663199415802953,0.9573517243690788
1772537521071906000,5.512906005859375,-0.5753197615772485,-0.09895371070504189,0.7888168201766907
1772537521081974000,5.52297412109375,-0.5827250693976879,-0.23589374545514583,0.6858944981016218
1772537521092041000,5.533041015625,-0.5789455508589745,-0.3784089499890804,0.6015365912429989
1772537521102109000,5.54310888671875,-0.550409776726365,-0.47130759843885894,0.434133321429044
1772537521112175900,5.55317578125,-0.4803074819743633,-0.5058586873382329,0.2988732025898993
1772537521122244000,5.563244140625,-0.40054654751718044,-0.5215244585037231,0.2688845993004739
1772537521132312000,5.57331201171875,-0.278432325977087,-0.4713181198328733,0.2142063759125769
1772537521142379000,5.58337890625,-0.10540683236718178,-0.3346960649907589,0.11768106139823793
1772537521152447000,5.593447021484375,0.09744885910004376,-0.15723814189136026,0.09327420376390218
1772537521162515000,5.603514892578125,0.3304571122467518,-0.0053904608666896815,0.24187398890852926
1772537521172582000,5.613581787109375,0.5369660655245184,0.10809095688462257,0.5057810920573771
1772537521182650000,5.623650146484375,0.6514309413552284,0.20072715500593183,0.7383898244924842
1772537521192718000,5.633718017578125,0.7371712424829602,0.2543482705563307,0.9199266874685883
1772537521202785000,5.643784912109375,0.7819269145324825,0.3132926269561052,1.0997640530504285
1772537521212853000,5.65385302734375,0.7861977237194776,0.31868893304169177,1.2319728214949368
1772537521222921700,5.663921630859375,0.779574506187439,0.2973486233711243,1.3497032749928533
1772537521232988700,5.67398876953125,0.7127087091386318,0.2572083361625671,1.4593443839289246
1772537521243056600,5.684056640625,0.6309954715698957,0.2377759059399366,1.4363153905190527
1772537521253123600,5.69412353515625,0.5552502024948597,0.2171820307224989,1.3046303536877035
1772537521263191800,5.70419189453125,0.5159656553328037,0.13353168761134146,1.1969351181223988
1772537521273259500,5.714259521484375,0.47478375011682505,0.06962298680245876,1.1304453147791325
1772537521283327500,5.724327392578125,0.42522038552463054,0.022658406531810758,1.0590545876517892
1772537521293395500,5.7343955078125,0.3723457044273615,-0.04244797962903976,0.9788188752897083
1772537521303463700,5.744463623046875,0.3050374243080616,-0.10044131891429424,0.9254648862428962
1772537521313530600,5.754530517578125,0.17836334750652313,-0.1342097330033779,0.891909384252131
1772537521323598600,5.7645986328125,0.05135375514030456,-0.1695195313155651,0.8169679789058863
1772537521333665500,5.77466552734375,-0.10112754761278629,-0.2939256631851196,0.6754033530950546
1772537521343733500,5.7847333984375,-0.28181963032782076,-0.3947872533380985,0.5161961030878126
1772537521353801500,5.794801513671875,-0.40011926201581954,-0.3981383173316717,0.40053573386222124
1772537521363868700,5.80486865234375,-0.4641431136369705,-0.39269349592924113,0.35482203043550253
1772537521373936600,5.8149365234375,-0.505026912689209,-0.39485038170218467,0.2966362373180687
1772537521384004600,5.825004638671875,-0.562558479681611,-0.39618952135145663,0.123684393466264
1772537521394071600,5.835071533203125,-0.6056862582683563,-0.42065000886917114,0.0012027999185025692
1772537521404139500,5.845139404296875,-0.6108429103791714,-0.4789607435405254,-0.06160773039013147
1772537521414207700,5.855207763671875,-0.5705903949677944,-0.5154027607530355,-0.18898381798118352
1772537521424274700,5.865274658203125,-0.4814367782652378,-0.5287228455752134,-0.27809505684673785
1772537521434342700,5.8753427734375,-0.3248097540095448,-0.5522247171938419,-0.17727540613934398
1772537521444410600,5.88541064453125,-0.1010229181945324,-0.6091209088921546,0.012759674460440873
1772537521454477600,5.8954775390625,0.050236149287223815,-0.6422381655961275,0.14345803834199905
1772537521464545500,5.905545654296875,0.05506517687886953,-0.6719459061175584,0.14689678061902522
1772537521474612700,5.91561279296875,-0.026965163815021512,-0.702814507111907,0.08235577325597405
1772537521484680700,5.9256806640625,-0.09407061483860016,-0.73578212621212,0.0420553270496428
1772537521494748700,5.935748779296875,-0.24352993942201137,-0.7744143469452858,-0.026612989376485346
1772537521504815600,5.945815673828125,-0.43507191745340823,-0.7488608034938573,-0.10951470607742667
1772537521514883600,5.955883544921875,-0.6295674845933914,-0.6415455071568489,-0.24474106877744195
1772537521524951800,5.965951904296875,-0.7875567371129989,-0.447155738478899,-0.41289588761106133
1772537521535018800,5.976018798828125,-0.8836281703799963,-0.21212474733293055,-0.5209573261402547
1772537521545086700,5.986086669921875,-0.8734674263715744,0.005319733718037605,-0.5185214772954583
1772537521555154700,5.99615478515625,-0.8265174591481685,0.19355097976624966,-0.3804860485240817
1772537521565221600,6.0062216796875,-0.7174690554082394,0.33543723874688147,-0.24190949861332772
1772537521575289600,6.01628955078125,-0.6010515842050314,0.44494741477966304,-0.18527838759198784
1772537521585357600,6.026357666015625,-0.46672319325804706,0.5340940172195434,-0.1593905706848949
1772537521595424800,6.0364248046875,-0.35410277625024317,0.5878922429025173,-0.21003668901249764
1772537521605492500,6.046492431640625,-0.17909984508752821,0.6674748981833457,-0.3057558747757226
1772537521615559700,6.0565595703125,0.07808920185267924,0.6909300080507993,-0.3565468084014952
1772537521625627400,6.06662744140625,0.417192561891675,0.6696598410069942,-0.3707661801509559
1772537521635695600,6.076695556640625,0.8250164069354534,0.6537877336144446,-0.37207755501046774
1772537521645762600,6.086762451171875,1.1505199884280561,0.6057032094031573,-0.35001207287050784
1772537521655830500,6.09683056640625,1.3692290825873612,0.5488362437993288,-0.3257303759858012
1772537521665898500,6.1068984375,1.469887843644619,0.5095855989068746,-0.2681614726576954
1772537521675965400,6.11696533203125,1.4281547342866658,0.44094343983531,-0.15155834268927573
1772537521686033700,6.12703369140625,1.2124679105579852,0.3428548215270042,-0.0931791458915919
1772537521696101600,6.1371015625,0.8318751867890357,0.28861235920786854,-0.1148291790984571
1772537521706168600,6.14716845703125,0.4079635457754135,0.21702479433417318,-0.16579079311601816
1772537521716236500,6.157236572265625,0.01930208184123039,0.13420330326259136,-0.2583756263762712
1772537521726304500,6.167304443359375,-0.2773486223936081,0.09775076465606689,-0.25802549776434897
1772537521736371500,6.177371337890625,-0.48889761566519735,0.07137187629640102,-0.19257132107913494
1772537521746439700,6.187439697265625,-0.5586012664884329,0.039305589950084686,-0.14477971539981663
1772537521756507600,6.197507568359375,-0.5450327598631381,0.00561667083799839,-0.11326076073795556
1772537521766574600,6.20757470703125,-0.48419162993133064,-0.037198973059654236,-0.17376695962697267
1772537521776642600,6.217642578125,-0.3585843055784702,-0.07484802797436714,-0.27214462400972844
1772537521786709500,6.22770947265625,-0.1352560271859169,-0.1382628077864647,-0.2997649637978524
1772537521796777700,6.23777783203125,0.14469897831380366,-0.19002631277143955,-0.28036680117100476
1772537521806845700,6.247845703125,0.41577334274351596,-0.1728390311270952,-0.2081886499930173
1772537521816912600,6.25791259765625,0.6648615008145571,-0.15248422536253928,-0.13482654972746969
1772537521826980600,6.267980712890625,0.8591869720846415,-0.16756547463834284,-0.1386598442800343
1772537521837048600,6.278048583984375,0.9591998364537954,-0.17516542824804782,-0.20782325074672697
1772537521847115500,6.288115478515625,0.934821182000637,-0.1643079341471195,-0.2573093123190105
1772537521857183700,6.298183837890625,0.9082529085487127,-0.13178864333629609,-0.2754929115243256
1772537521867251700,6.308251708984375,0.8693325185239315,-0.12587620442211628,-0.20040289148762822
1772537521877318700,6.318318603515625,0.8047697377204894,-0.09036182344853877,-0.09002017040401697
1772537521887386600,6.32838671875,0.7317185300350189,0.004339490509033203,0.023503186792880295
1772537521897454600,6.33845458984375,0.6207587397158145,0.07749532761275768,0.12604191637784243
1772537521907521800,6.348521728515625,0.5263999555855989,0.14519991357326506,0.19987273013368248
1772537521917589800,6.35858984375,0.4993547122716903,0.1668973661184311,0.2827143872104585
1772537521927656700,6.36865673828125,0.48254152463674543,0.13963760327100752,0.3969568524621427
1772537521937724700,6.378724609375,0.4867331311076879,0.1238753859937191,0.44873380145058034
1772537521947792600,6.388792724609375,0.5360276156306266,0.11367664806246756,0.5093051745302974
1772537521957859600,6.398859619140625,0.66992872107625,0.07649462613761425,0.6011491993606091
1772537521967927800,6.408927734375,0.817963565814495,-0.015881459742784498,0.6680709643803536
1772537521977995500,6.41899560546875,0.9173597595900297,-0.07860182754993439,0.6791612443238496
1772537521988062700,6.429062744140625,0.9520201540827751,-0.10865677407383918,0.5787196331486105
1772537521998130400,6.43913037109375,0.8826695544809102,-0.1568932739764452,0.39455739010497926
1772537522008198400,6.449198486328125,0.7645604769289494,-0.21343290732204911,0.23768778926506637
1772537522018265600,6.459265625,0.6895768398761749,-0.25878479169905183,0.17680968832373617
1772537522028333600,6.46933349609375,0.6854553760319948,-0.2772287954062223,0.19428090147599578
1772537522038401500,6.479401611328125,0.7350853761196136,-0.26590719092488285,0.30276772581040856
1772537522048468500,6.489468505859375,0.8146288684338331,-0.26392449267506596,0.4772831657171249
1772537522058536400,6.499536376953125,0.9153893362998962,-0.2707598916530609,0.6331761766098439
1772537522068604700,6.509604736328125,0.9780459912210703,-0.3079021660894155,0.7416732300773262
1772537522078671600,6.519671630859375,0.9728145203083753,-0.32650106809735296,0.7882996644347906
1772537522088739600,6.529739501953125,0.8840887736290692,-0.3537883034735918,0.845306623031199
1772537522098806500,6.539806640625,0.7064011334270238,-0.4051140015631914,0.8344435759723186
1772537522108874500,6.54987451171875,0.5276373884260654,-0.4394043936997652,0.8436823828302323
1772537522118942500,6.5599423828125,0.34836160224974155,-0.5342331334292888,0.8790463955476879
1772537522129009700,6.570009765625,0.16345336314439773,-0.5826771386027336,0.9449332645617425
1772537522139077600,6.58007763671875,-0.04810965865254402,-0.5906272208243608,0.9543314997650683
1772537522149145600,6.5901455078125,-0.2477496029436588,-0.5813070192933082,0.8534883220516145
1772537522159212500,6.600212646484375,-0.3671194942116737,-0.6136188048332929,0.7310191495940089
1772537522169280500,6.610280517578125,-0.4066740904867649,-0.7352911278247832,0.8069280847981571
1772537522179348700,6.6203486328125,-0.33091771549582477,-0.8473042265892028,1.0094233454551547
1772537522189415700,6.630415771484375,-0.27692659758925436,-0.9081289899080991,1.1425558776810765
1772537522199483600,6.640483642578125,-0.2199871512711048,-0.9165800073891878,1.1525208799216895
1772537522209551600,6.650551513671875,-0.28393092339336873,-1.0389712923049925,1.155122367656976
1772537522219618000,6.6606181640625,-0.46413609937429423,-1.169753973469138,1.1010501473382115
1772537522229686000,6.67068603515625,-0.7210650340735912,-1.2598843262493609,0.9486096149869263
1772537522239753000,6.6807529296875,-1.0219739802747965,-1.1518898154765367,0.7154606381952762
1772537522249821000,6.690821044921875,-1.4089070129811763,-0.9452508060783147,0.42757206321731206
1772537522259889200,6.70088916015625,-1.7952134382218121,-0.7346697810560464,0.030108722537755966
1772537522269956000,6.7109560546875,-2.06116797541976,-0.5659276638537645,-0.3977054788723588
1772537522280024000,6.721024169921875,-2.301651971274614,-0.41259237461984155,-0.8199581006325781
1772537522290092000,6.731092041015625,-2.3085563438355923,-0.23177520422041414,-1.049813588836789
1772537522300159000,6.741158935546875,-2.024102273350954,-0.04756722233891487,-0.9616102585963904
1772537522310227000,6.75122705078125,-1.5870669468700884,0.150313895586133,-0.686119831290096
1772537522320295200,6.761295166015625,-1.0638912140280008,0.36747605256438254,-0.31662915096767247
1772537522330362000,6.771362060546875,-0.5252426022440195,0.6305500658899545,0.05877886363975703
1772537522340430000,6.78143017578125,-0.13178513620495796,0.8698270240426063,0.40288258924931286
1772537522350498000,6.791498046875,0.07850304335057735,1.1426561231851577,0.698210666578263
1772537522360565000,6.80156494140625,0.08440846800208092,1.3733552226066588,0.8103361396759748
1772537522370633200,6.81163330078125,-0.026342063480615616,1.567567296630144,0.8511332833580673
1772537522380701200,6.821701171875,-0.07362637722492217,1.6870003162622451,0.824441310461238
1772537522390768000,6.83176806640625,-0.16494272491931913,1.6211954264432191,0.8028195535007864
1772537522400836000,6.841836181640625,-0.3347743909239769,1.4531915603876113,0.7346241152834146
1772537522410903000,6.851903076171875,-0.5421779549539089,1.3573480906575917,0.6891744696203619
1772537522420971000,6.861970947265625,-0.7591086412638426,1.3283014443933963,0.6560991523619741
1772537522431039000,6.8720390625,-0.7553554262101649,1.3043816396236418,0.6300993995130062
1772537522441106200,6.882106201171875,-0.5805775359749794,1.2004472178965806,0.7351900786031037
1772537522451174100,6.892174072265625,-0.3908215645775199,1.0753449204564094,0.9007230975657701
1772537522461241900,6.902241943359375,-0.18397884930074213,1.065226262024045,1.0856610742222517
1772537522471309000,6.91230908203125,0.04962532391250133,1.0243553224533797,1.2170310537550597
1772537522481377000,6.922376953125,0.1779284632205963,0.8851578641653061,1.3002636829107999
1772537522491445000,6.932445068359375,0.10802490591108799,0.6997732397198677,1.3270835930362344
1772537522501512000,6.942511962890625,-0.09520897121876477,0.5578653534293174,1.167288752399385
1772537522511580000,6.952579833984375,-0.49091012453138827,0.4272264646500349,0.9431282609663904
1772537522521647000,6.962647216796875,-0.9810238379880786,0.39501463235318657,0.5504391489513218
1772537522531714800,6.97271484375,-1.531596696321666,0.46534430612027644,-0.013176146306842565
1772537522541783000,6.982782958984375,-1.879023063547909,0.5503074853956699,-0.45699952549263834
1772537522551850000,6.99285009765625,-1.9501538245648145,0.5820540382683277,-0.5559786628998815
1772537522561918000,7.00291796875,-1.7574828425034879,0.6380646793037653,-0.3247968945279717
1772537522571986000,7.01298583984375,-1.3289859195262193,0.7070160504549742,0.13282741179950536
1772537522582052900,7.023052978515625,-0.6943652431964874,0.7742471736848354,0.6487088959801942
1772537522592121000,7.03312109375,-0.08449789985120296,0.8547679865986109,1.1849844950225203
1772537522602189000,7.04318896484375,0.3767430626034736,0.8678758899748324,1.623057128661871
1772537522612256000,7.053256103515625,0.5300350972175598,0.7539157487958669,1.8573451924860476
1772537522622324000,7.063323974609375,0.3186445093780756,0.6148954006403684,1.830786855906248
1772537522632392000,7.073391845703125,-0.004226677784323692,0.49673605420589445,1.5709059395335614
1772537522642459000,7.083458984375,-0.3159334968537092,0.3191179721087217,1.2982345151707528
1772537522652527000,7.093527099609375,-0.5841933883845806,0.1753752716064453,1.0848889938712118
1772537522662595000,7.103594970703125,-0.7491805369675159,0.06957914766073227,0.8404393092557787
1772537522672662000,7.113662109375,-0.8394640344828367,-0.005846387940645218,0.6388241193689406
1772537522682730000,7.12372998046875,-0.9540285712957381,-0.11623042419850825,0.4707838668256998
1772537522692797000,7.133796875,-1.0848287881165741,-0.19428280117213725,0.3325824338376522
1772537522702865200,7.143865234375,-1.18825116866827,-0.286131063786149,0.20811478103920816
1772537522712933000,7.15393310546875,-1.2242314135879278,-0.3564496316373348,0.13172683014646172
1772537522723000000,7.164,-1.1789596087098122,-0.41494039905071256,0.09414411846622824
1772537522733068000,7.174068115234375,-1.1092162103980778,-0.4078980793237686,0.12531301758140326
1772537522743136000,7.184135986328125,-0.998777813604474,-0.39810383054018017,0.16051964778006075
1772537522753203000,7.194202880859375,-0.9898439810425043,-0.4608984326273203,0.1506096636623144
1772537522763271200,7.204271240234375,-1.0215671530395745,-0.4301572574049234,0.03502645132616162
1772537522773339100,7.214339111328125,-1.027894017973542,-0.31957156109511853,-0.09462138058915734
1772537522783406000,7.224406005859375,-0.996321652624011,-0.23586276579499243,-0.21555837504342198
1772537522793474000,7.23447412109375,-0.9117410429254174,-0.1431979261010885,-0.27273499111831184
1772537522803542000,7.2445419921875,-0.7347802556931972,-0.008627543091773986,-0.21234321238920092
1772537522813609200,7.254609130859375,-0.5546650960832834,0.08054360926747321,-0.016845774730294943
1772537522823677200,7.26467724609375,-0.43190790046453476,0.18948913715481758,0.1339354461066425
1772537522833744100,7.274744140625,-0.32893677081167694,0.3935363764941692,0.22175328416079282
1772537522843812000,7.28481201171875,-0.18655922118276358,0.5085919116944074,0.3815937175050378
1772537522853879800,7.2948798828125,0.0011164368093013763,0.44742344950437546,0.5562748693674803
1772537522863947000,7.304947021484375,0.2745911403790116,0.29081776029765605,0.7822364188730716
1772537522874015000,7.315014892578125,0.5043915373951197,0.05659574744701385,0.969829074756801
1772537522884083000,7.3250830078125,0.5200657841280102,-0.14859423218667506,0.8134151087298989
1772537522894150100,7.335150146484375,0.40871845579594374,-0.16798983753025531,0.38784357168003913
1772537522904217900,7.3452177734375,0.1592918595507741,-0.2168763257741928,-0.03620017128065228
1772537522914286000,7.3552861328125,-0.11687222923338413,-0.2631739665687084,-0.24371947064474223
1772537522924353000,7.36535302734375,-0.3307131328344345,-0.27887130191624165,-0.17412614832818507
1772537522934421000,7.3754208984375,-0.5029229261472821,-0.22477789267897605,-0.061994537750631566
1772537522944489000,7.385489013671875,-0.5915560261070728,-0.06408405737578869,0.1128282145395875
1772537522954556000,7.395555908203125,-0.6372226755216718,0.0693903470903635,0.30872575743198394
1772537522964624000,7.405623779296875,-0.7281465167671441,0.19496961439251898,0.45937356114760036
1772537522974690800,7.41569091796875,-0.8471794311657548,0.29483927089869977,0.5675292538315058
1772537522984759000,7.425759033203125,-1.0488763079866765,0.3716927934765816,0.6154707163102925
1772537522994827000,7.435826904296875,-1.3914870916247366,0.42041795367896556,0.5470587127327918
1772537523004894000,7.44589404296875,-1.7705705798745155,0.4810825580000877,0.3814307089630514
1772537523014962000,7.4559619140625,-2.0627511529579756,0.5153273574292659,0.1314917792815715
1772537523025030100,7.466030029296875,-2.142009690850973,0.5616244137018919,-0.1321924748968333
1772537523035097000,7.47609716796875,-1.9250708212345837,0.661045741918683,-0.308751768656075
1772537523045165000,7.4861650390625,-1.4647370367527006,0.7388058579474687,-0.3782437494900077
1772537523055233000,7.49623291015625,-0.8778431572377681,0.7909200760662555,-0.29833902264796197
1772537523065300000,7.506300048828125,-0.2841381364032626,0.8016027981221675,-0.07215849662944675
1772537523075368000,7.516367919921875,0.21929536961466073,0.7426251239746808,0.15614435530528425
1772537523085436200,7.526436279296875,0.5547726481109857,0.6868477071732282,0.32367190908603366
1772537523095503000,7.536503173828125,0.7882435503333807,0.5937193416208029,0.36746282775662836
1772537523105571000,7.546571044921875,0.915589242786169,0.4925976392269134,0.37779841687530274
1772537523115638000,7.556637939453125,0.9381196390241384,0.37655133942365643,0.3745298435334116
1772537523125706000,7.5667060546875,0.7674889315962791,0.21056991910636425,0.27898747564181686
1772537523135774200,7.576774169921875,0.475123357334733,0.04599602749943733,0.17566132200621068
1772537523145841200,7.586841064453125,0.13706103078126908,-0.1082031850874424,0.03970679116211831
1772537523155909000,7.5969091796875,-0.2780427421376109,-0.26892800005078316,-0.1260329293537885
1772537523165977000,7.60697705078125,-0.6707867992103099,-0.3352250573009252,-0.2514667968358844
1772537523176044000,7.6170439453125,-0.9433657229840755,-0.29316227759718894,-0.2724259251691401
1772537523186112000,7.627112060546875,-1.1252011305153369,-0.30148586930632587,-0.21413864443860947
1772537523196180200,7.63718017578125,-1.134542959356308,-0.35285774462521075,-0.1720377246815711
1772537523206247200,7.6472470703125,-0.995223043732345,-0.41589843042790886,-0.2239127272170037
1772537523216315100,7.657315185546875,-0.7908382430016994,-0.4003782052129507,-0.24492051699757575
1772537523226382800,7.6673828125,-0.6295797595530748,-0.2773509604811668,-0.118421358371526
1772537523236450000,7.677449951171875,-0.5636100345611572,-0.18823416865766046,-0.12281477102488278
1772537523246518000,7.68751806640625,-0.5952671555846929,-0.10582125838696955,-0.3030067221980542
1772537523256585000,7.6975849609375,-0.5972820025384425,-0.04919628484547138,-0.48320473778583106
1772537523266653200,7.707653076171875,-0.47820904839038847,-0.030419688183069227,-0.6090870796877891
1772537523276721000,7.717720947265625,-0.45640930451452727,-0.02450315761566162,-0.5874479332011193
1772537523286788000,7.7277880859375,-0.46201837656795974,0.08994564386308193,-0.5075957402639091
1772537523296855800,7.737855712890625,-0.38178397938013076,0.22350538852512836,-0.33886640947796404
1772537523306923800,7.747923828125,-0.2152151145637035,0.37902620510458945,-0.23734891269952058
1772537523316991000,7.757990966796875,-0.01664309176504612,0.47694238945543765,-0.04600969069860875
1772537523327059000,7.768058837890625,0.16303133834004402,0.4670750754356384,0.0594915419537574
1772537523337127000,7.778126953125,0.29478315679728984,0.5178682740837335,0.017806947912648318
1772537523347193900,7.78819384765625,0.4717664481222629,0.5896914012789726,0.0560910858605057
1772537523357261800,7.79826171875,0.6505225943386554,0.5334259086996317,0.16973521989285945
1772537523367330000,7.808330078125,0.794583859270811,0.5053875626951456,0.2430022622860968
1772537523377397000,7.81839697265625,0.900340820249915,0.5485013127565384,0.3041531888194382
1772537523387465000,7.82846484375,0.9714654437869786,0.5610246942430734,0.3162321144741028
1772537523397533000,7.838532958984375,0.9859598330855369,0.6045686524152756,0.25941958247125146
1772537523407599900,7.848599853515625,0.7487807239949703,0.6254962896317243,0.06072663670666516
1772537523417667800,7.858667724609375,0.33723347451388835,0.6773468883782625,-0.21049568482637404
1772537523427735000,7.868735107421875,-0.01644435432255268,0.6733873370975255,-0.5340815230641514
1772537523437803000,7.878802978515625,-0.15441197855472563,0.6261480315387249,-0.6902564196381717
1772537523447871000,7.88887109375,-0.12957505894005297,0.5100993936479091,-0.6523560933761299
1772537523457938000,7.89893798828125,-0.0037082068681716916,0.36607261550724507,-0.656818625742942
1772537523468006000,7.909005859375,0.2137140623509884,0.30340543919205665,-0.6634806409154087
1772537523478074000,7.91907421875,0.44662499260306354,0.2823573904663324,-0.6235293004076927
1772537523488141000,7.92914111328125,0.7436445301502943,0.2526923200428486,-0.5466740242641419
1772537523498209000,7.939208984375,0.9997861138641834,0.24789164176285267,-0.44980194213874636
1772537523508277000,7.949277099609375,1.161445579329133,0.25911855369806286,-0.4303616208706051
1772537523518344000,7.959343994140625,1.2488047138303517,0.24023615857362746,-0.43221265556477007
1772537523528412000,7.969411865234375,1.2139859139055014,0.20061258871555326,-0.4097605121947825
1772537523538480000,7.979480224609375,1.0792331600666045,0.19421441211104393,-0.42520906041301787
1772537523548547000,7.989547119140625,0.9301485140144824,0.20110475614666937,-0.4188005816102028
1772537523558615000,7.999614990234375,0.820701466345787,0.20775369264185428,-0.3040343847453594
1772537523568682000,8.009681884765625,0.7882663466870784,0.16236381434202193,-0.20229228543080388
1772537523578750000,8.01975,0.7850701809942722,0.09764379715025424,-0.12150018129497765
1772537523588818200,8.029818115234375,0.744419021654129,0.02634790869951248,-0.054145066359266636
1772537523598885000,8.039885009765625,0.6250327637732028,-0.0742699358254671,-0.08694434315524995
1772537523608953000,8.049953125,0.5611199713110924,-0.14036357945799827,-0.21406645598523316
1772537523619021000,8.06002099609375,0.5148381126075983,-0.1853612435698509,-0.31587862486131485
1772537523629088000,8.070087890625,0.48185821854770183,-0.26043957316875455,-0.36361141302548344
1772537523639156000,8.080156005859376,0.557549127086997,-0.3677285660207271,-0.41038616981245574
1772537523649224000,8.090223876953125,0.6653916621685028,-0.4824526773095131,-0.5123720878202468
1772537523659291100,8.100291015625,0.7164326980978251,-0.48367432805895805,-0.5902705894064157
1772537523669358800,8.11035888671875,0.74697221326828,-0.4381780667752027,-0.5698016557428985
1772537523679426000,8.120426025390625,0.6533937658607959,-0.4018354182839393,-0.5758964654866605
1772537523689494000,8.130493896484374,0.4807821137487888,-0.3372796517431736,-0.655502355512604
1772537523699562000,8.14056201171875,0.4631003265857696,-0.30275603537261486,-0.5828260455541312
1772537523709629200,8.150629150390625,0.5994459025740623,-0.29233284103572366,-0.39920755399838087
1772537523719697000,8.16069677734375,0.7556605466365813,-0.32332536067068574,-0.15630173782408235
1772537523729764900,8.170764892578125,0.8709218335419893,-0.4158937542527914,0.028838191145285963
1772537523739831800,8.180831787109375,0.9532663547515868,-0.4759422725021839,0.1360802761156112
1772537523749899800,8.190899658203126,0.9505342994391918,-0.49406946534514423,0.21267748584486543
1772537523759968000,8.200968017578125,0.9078618634045124,-0.5285474890083074,0.2504783703204244
1772537523770035000,8.211034912109374,0.8712240313589572,-0.6043465340971946,0.28068755755797026
1772537523780103000,8.22110302734375,0.705632487142086,-0.6942617828220129,0.3118474696490913
1772537523790171000,8.2311708984375,0.6124076754778623,-0.7876905926257372,0.34098011369630693
1772537523800237800,8.24123779296875,0.6022323184221983,-0.9218822054505348,0.39153080882541835
1772537523810306000,8.25130615234375,0.615187077063322,-1.0548264485627412,0.45808812444694336
1772537523820374000,8.2613740234375,0.6501087528407573,-1.20190326192379,0.5087216755539179
1772537523830441000,8.27144091796875,0.6672066026359796,-1.3646569523662329,0.623824337831512
1772537523840509000,8.281509033203125,0.4828068975746631,-1.543130189988017,0.6853786575339734
1772537523850576000,8.291575927734375,0.14595277776718138,-1.6623305699080229,0.5356497952941804
1772537523860643800,8.301643798828126,-0.1927601216495037,-1.5093360569357872,0.11028437527567148
1772537523870712000,8.311712158203125,-0.526617982250452,-1.194521334978938,-0.3359486954003572
1772537523880779000,8.321779052734374,-0.8500462187737226,-0.8379150514751672,-0.6051872957702725
1772537523890847000,8.331846923828126,-1.0800684418469666,-0.4438818313747644,-0.7351026925805956
1772537523900915000,8.3419150390625,-1.209976678264141,-0.15657354050278663,-0.6836095289696008
1772537523910982000,8.35198193359375,-1.1901169625401495,-0.008163432711362838,-0.5398772037308662
1772537523921050000,8.362050048828126,-1.0605752213478088,0.11585282305777073,-0.3558635753776878
1772537523931118000,8.3721181640625,-0.9778384859502315,0.23440146107077597,-0.2953844836913049
1772537523941185000,8.38218505859375,-0.848258750835061,0.4913391635984182,-0.4650230382766574
1772537523951253000,8.3922529296875,-0.7091232518672943,0.8686474588692188,-0.6302546631399542
1772537523961321000,8.402321044921875,-0.5344990908890962,1.1840934644669294,-0.5336697273928672
1772537523971388000,8.412387939453126,-0.26286709257662294,1.3201520402073859,-0.1707940812960267
1772537523981456100,8.4224560546875,0.09285597835183143,1.3376578862816095,0.2841083257868886
1772537523991523000,8.432523193359375,0.5762666870385408,1.3389800747960805,0.7002133116375655
1772537524001591000,8.442591064453126,1.015270098721981,1.192289045882225,1.0817340369716286
1772537524011659000,8.452658935546875,1.3041571832180023,0.9670721772640943,1.4596613409236072
1772537524021726000,8.462725830078124,1.481081437832117,0.6897445976585149,1.7492440064683556
1772537524031794200,8.472794189453126,1.4129372914105653,0.3493962059944868,1.7380109570533036
1772537524041862000,8.48286181640625,1.0761416237920522,0.1277180328965187,1.4921683567747472
1772537524051929000,8.49292919921875,0.5536205554664134,-0.12298925080895423,1.2979396238774061
1772537524061997000,8.5029970703125,-0.14246552017331124,-0.39495793372988697,0.9270748787228017
1772537524072064800,8.513064697265625,-0.8991384587228297,-0.6250766029149294,0.32768845125101503
1772537524082132200,8.52313232421875,-1.571815601724386,-0.7366682613968849,-0.314301073346287
1772537524092200000,8.533199951171875,-2.0711621306896206,-0.7474392462581395,-0.95978574658297
1772537524102268000,8.543267822265625,-2.311169156682491,-0.5932815347254276,-1.5024118106305597
1772537524112334800,8.5533349609375,-2.3035002294898033,-0.3652344111174345,-1.8126479726254938
1772537524122402800,8.56340283203125,-2.1615280457913872,-0.21777122878730296,-1.8550120733633637
1772537524132471000,8.573470947265625,-2.031705734091997,-0.1166857667505741,-1.7531573805198073
1772537524142538000,8.5835380859375,-1.8125351599007844,0.10153320580422878,-1.5968682099163531
1772537524152606000,8.59360595703125,-1.4375322189629076,0.4715905070334673,-1.2481203848280011
1772537524162673000,8.6036728515625,-0.9663438629895448,0.8181389223814011,-0.8036061007685958
1772537524172740900,8.613740966796875,-0.39943127975165843,1.1012240426003932,-0.2557159787129611
1772537524182808800,8.623808837890625,0.1696329285621643,1.24459323361516,0.25295477037131786
1772537524192876000,8.6338759765625,0.6984416988551616,1.3304641753852366,0.6203573923733086
1772537524202944000,8.643944091796875,1.1692255656808614,1.3864245475381611,0.9494351060256362
1772537524213012000,8.654011962890625,1.5544062017619609,1.3339151926219464,1.2288763167843222
1772537524223078700,8.66407861328125,1.8208453076064586,1.1319418369472025,1.4356056348145008
1772537524233146600,8.674146728515625,1.8720827428907154,0.8560182789206504,1.5048127342924476
1772537524243214800,8.68421484375,1.7278098810344933,0.5874690490543842,1.319386462662369
1772537524253281800,8.69428173828125,1.375378252866864,0.3909843539237976,0.9361784418284892
1772537524263349800,8.704349853515625,0.8164081530660391,0.20202946977615355,0.5083438917500898
1772537524273417700,8.714417724609374,0.06966390333473682,0.024001053312420844,-0.055276408476755017
1772537524283484700,8.724484619140625,-0.627374942985177,-0.09409984093308449,-0.5867131891857832
1772537524293552600,8.734552734375,-1.1586556563496588,-0.16702946806550026,-0.897929667454958
1772537524303619600,8.74461962890625,-1.4235697445839643,-0.2301876427680254,-1.0190576544366776
1772537524313687800,8.754687744140625,-1.4111919090479612,-0.21837679346501826,-0.9041535104058682
1772537524323755800,8.764755859375,-1.2164748081117869,-0.21698680041134355,-0.5620927983986214
1772537524333822700,8.77482275390625,-0.9074450992971658,-0.17980127135515211,-0.1424559120947495
1772537524343890700,8.784890625,-0.5867968488812446,-0.1100455980837345,0.23427593499496577
1772537524353959000,8.794958984375,-0.36411154456734657,-0.03809036894142628,0.543815894886665
1772537524364025900,8.80502587890625,-0.1402098502010107,0.06276479147076607,0.7748286268346011
1772537524374093800,8.81509375,0.020804303097724915,0.10642390045523643,0.8845464542686938
1772537524384161800,8.825161865234374,0.07207914778292179,0.1353431209474802,0.8598294347066432
1772537524394228700,8.835228759765625,0.14027590117454528,0.15827333015799522,0.8009166424889117
1772537524404296700,8.845296630859375,0.23981004211604592,0.1080067857325077,0.7954100078966468
1772537524414365000,8.855364990234374,0.32088147464990613,0.05400631547570228,0.8318310553863644
1772537524424431900,8.865431884765625,0.3734381758391857,0.034600773259997365,0.916949863614887
1772537524434499800,8.875499755859375,0.3882300867795944,0.030810148805379866,0.9946925901174545
1772537524444566800,8.88556689453125,0.36431612722873685,0.05241700045764446,1.0339443309884517
1772537524454634800,8.895634765625,0.28820260936319825,0.0869230811715126,1.0378559514742345
1772537524464702700,8.90570263671875,0.15008768561482427,0.08977554799318313,0.953602600968629
1772537524474770000,8.91577001953125,0.04995090260505676,0.060438978871703145,0.8505394091181456
1772537524484838000,8.925837890625,-0.029720015481114387,0.020243162083625792,0.8081495163518935
1772537524494905600,8.935905517578124,-0.0879904181420803,-0.07593699225485324,0.7187139409027993
1772537524504972800,8.945972900390625,-0.11022153917253016,-0.1398608906328678,0.5432626083854586
1772537524515040500,8.95604052734375,-0.18957272378504275,-0.22798984046280382,0.505582135419175
1772537524525108700,8.966108642578124,-0.2194903076648712,-0.4097176959663629,0.6278687178514898
1772537524535175700,8.97617578125,-0.10586568205058575,-0.6352391004890203,0.8043973972767591
1772537524545243600,8.98624365234375,0.04947510178685188,-0.9216659323513507,1.0397145118877291
1772537524555311600,8.9963115234375,0.09387363096177577,-1.2237649651199578,1.2026530573777854
1772537524565378600,9.006378662109375,-0.051343233746290205,-1.3955027570068836,1.1687642317794262
1772537524575446800,9.01644677734375,-0.38449031572937964,-1.3825479983657598,0.8726899391930549
1772537524585513700,9.026513671875,-0.9723685301065444,-1.2190630710393189,0.4712593023177236
1772537524595581700,9.036581787109375,-1.6218728873133659,-1.0151952799201012,-0.021467918105609714
1772537524605649700,9.046649658203124,-2.1556156068772077,-0.7497106983214616,-0.5446017845673486
1772537524615716600,9.056716552734375,-2.4317191976457835,-0.412125341629982,-0.8816381656065583
1772537524625784600,9.06678466796875,-2.426313539209962,-0.07585106753706931,-0.9767671303916722
1772537524635852800,9.076852783203124,-2.2309973033368586,0.17987024493813514,-0.8971777531091123
1772537524645919700,9.086919677734375,-1.8405828582555055,0.44689036554098127,-0.6884649331115186
1772537524655987700,9.09698779296875,-1.3229577452778816,0.6521960805088282,-0.38737193558029825
1772537524666055700,9.1070556640625,-0.8725099795162677,0.7469581847429275,-0.10790043928120284
1772537524676122600,9.11712255859375,-0.5262696072041988,0.884919379234314,0.01881101038865745
1772537524686190800,9.12719091796875,-0.26369360652863977,1.0324012662649154,0.042253589568100866
1772537524696258800,9.1372587890625,-0.1391419287085533,1.0463123027175665,0.14990918724276125
1772537524706325800,9.14732568359375,-0.23272972846627235,0.914984847152233,0.24017748718895016
1772537524716393700,9.157393798828124,-0.3839250830620527,0.8438456105679273,0.3143960946859792
1772537524726460700,9.167460693359375,-0.5458008216261864,0.7320388480305672,0.30059257372841236
1772537524736528600,9.177528564453125,-0.587599981957674,0.6421230147838592,0.2361520675977692
1772537524746596900,9.187596923828124,-0.48291971029937264,0.5747609586507082,0.22697120147217065
1772537524756663800,9.197663818359375,-0.26648937472701073,0.4676946686387062,0.34104905074667186
1772537524766731800,9.207731689453125,-0.0103261637032032,0.338700039935112,0.5104891966830939
1772537524776799700,9.2177998046875,0.21713234636187553,0.20847733074128627,0.6005525851743295
1772537524786866700,9.22786669921875,0.3139826550468802,0.09100245943963527,0.6633285190936178
1772537524796935000,9.237934814453125,0.19339783503115177,-0.02182663188278675,0.6172036775827408
1772537524807003000,9.2480029296875,-0.16000059234201908,-0.04398702576458454,0.41338619187865405
1772537524817069800,9.25806982421875,-0.5155830857560039,-0.00011573533415794372,0.21104440475031733
1772537524827137800,9.2681376953125,-0.7890048900946974,0.002270283019542694,0.22681739914994686
1772537524837205800,9.278205810546876,-0.9753028299927711,0.034198622199892996,0.3824749573189765
1772537524847272700,9.288272705078125,-1.068280973419547,0.1938444097548723,0.5202320440730079
1772537524857341000,9.2983408203125,-1.0534849708259104,0.41399931880831714,0.6594143413245678
1772537524867408000,9.308407958984375,-0.9923933732643723,0.56740942684412,0.7878036976113915
1772537524877475800,9.318475830078125,-0.8521504975765943,0.6888964563965797,0.8464876495093107
1772537524887543600,9.32854345703125,-0.5940536881417036,0.7716098109185695,0.9707646020412445
1772537524897610800,9.33861083984375,-0.34901100606918334,0.7643406966984272,1.0539441127702593
1772537524907677700,9.348677734375,-0.10905658704638481,0.7646598456501961,1.0158822392709552
1772537524917746000,9.358745849609376,0.07348112353533506,0.7403735456556081,1.0687569203682243
1772537524927812900,9.368812744140625,0.20286241346895695,0.7194920856684446,1.249035599976778
1772537524937880800,9.378880859375,0.3036240503787994,0.6802139682471752,1.4824863361939786
1772537524947948800,9.38894873046875,0.25912410665601493,0.6947393372058868,1.6058574259273708
1772537524958015700,9.399015625,0.18529869972765445,0.8496376379728316,1.5869129253521561
1772537524968083700,9.409083740234376,-0.0031321605458855626,0.9178156866639852,1.4944164279624819
1772537524978151700,9.419151611328125,-0.2125052710831165,0.9865051920086145,1.2608670536763966
1772537524988219000,9.429218994140625,-0.36339316716492176,0.9853536838859319,0.979539956105873
1772537524998286800,9.439286865234376,-0.456762355735898,0.9397200599581003,0.7505405002091079
1772537525008354600,9.4493544921875,-0.4672931021004915,0.8665922799050807,0.5946470509249716
1772537525018421800,9.459421875,-0.4165834900826216,0.7918786919653416,0.4902843938484788
1772537525028489700,9.46948974609375,-0.29892507890760894,0.719250678128004,0.49003772561103104
1772537525038557700,9.4795576171875,-0.18627075963020323,0.6047592065513133,0.5668034237749874
1772537525048624600,9.489624755859374,-0.18563012363910675,0.5255705190241337,0.6431672631397843
1772537525058692600,9.499692626953125,-0.21719664376974104,0.4834744215726852,0.6460709486920386
1772537525068759600,9.509759521484375,-0.27946488389521834,0.42948797984123227,0.5996348492749035
1772537525078827500,9.51982763671875,-0.4135737868726253,0.406237452635169,0.46283254249505695
1772537525088895700,9.529895751953125,-0.5508966834604739,0.4265466656923294,0.3194870246168226
1772537525098962700,9.539962646484375,-0.622514643472433,0.4269382953584194,0.23954613048285245
1772537525109030700,9.55003076171875,-0.6407257152065634,0.3921335239589214,0.27327750049717725
1772537525119098600,9.5600986328125,-0.6314899770885706,0.37027649693787096,0.2708213395167142
1772537525129165600,9.57016552734375,-0.6398059700131415,0.3739636610180139,0.17345350976362822
1772537525139233800,9.58023388671875,-0.6241419524133205,0.33782091901302336,0.05229030533805489
1772537525149301800,9.5903017578125,-0.5658569367051124,0.23068214828670022,-0.04689458377435803
1772537525159368700,9.60036865234375,-0.4675783487826585,0.15199731862843036,-0.18162717160806058
1772537525169436700,9.610436767578125,-0.3258756296753883,0.1390764622569084,-0.2705754749968648
1772537525179504600,9.620504638671875,-0.16642244208306073,0.10737608661353587,-0.24796675282567737
1772537525189571600,9.630571533203126,-0.08121317909210919,0.052824412214756006,-0.23917978138849139
1772537525199639800,9.640639892578125,-0.052801615861058235,0.04250117112100124,-0.3167109109669924
1772537525209707800,9.650707763671875,-0.013951076202094554,0.023691256710886954,-0.3719198802307248
1772537525219774700,9.660774658203126,0.026805004817247388,-0.020667524975538254,-0.3570011280402541
1772537525229843500,9.670843505859375,0.04250993894934654,-0.022429858472943303,-0.3257634014725685
1772537525239910400,9.680910400390625,-0.02089899564385414,-0.05110650238096714,-0.4092329811893403
1772537525249978600,9.690978515625,-0.053910453885793685,-0.04946633395850658,-0.44998372844643886
1772537525260046600,9.701046630859375,-0.1014624786555767,-0.11455752255022525,-0.45278256538473066
1772537525270113500,9.711113525390624,-0.13525368909835814,-0.1783341214120388,-0.48959487721435724
1772537525280181500,9.721181396484376,-0.09707944126576185,-0.22554712348580358,-0.4917366384834051
1772537525290250500,9.73125048828125,0.008330313710868358,-0.3072679598391056,-0.4518419235337525
1772537525300318500,9.741318359375,0.14184651149213312,-0.41833062601089477,-0.3578575987391174
1772537525310385400,9.751385498046876,0.29903321545720096,-0.5086684840619564,-0.30893742742128666
1772537525320453400,9.761453369140625,0.4043614296302199,-0.5801151791602372,-0.31411636442914603
1772537525330521600,9.771521484375,0.3697703009814024,-0.6384557244479656,-0.3933135275237262
1772537525340588500,9.781588623046876,0.24428981787860393,-0.6079045188397169,-0.5135224999643861
1772537525350656500,9.791656494140625,0.09513269111216067,-0.4992559280723333,-0.5984327069435268
1772537525360724500,9.801724365234374,-0.02961830867230892,-0.3696913905262947,-0.5446801470331847
1772537525370791400,9.81179150390625,-0.1358724055185914,-0.2867196773290634,-0.44101036759167905
1772537525380859400,9.821859375,-0.2770414561405778,-0.23505086489021776,-0.4459259044229984
1772537525390926600,9.831926513671876,-0.33916473483741283,-0.18569792817831038,-0.5082079538781196
1772537525400994600,9.84199462890625,-0.2581707514539361,-0.1869353610187769,-0.40627763851508497
1772537525411062500,9.8520625,-0.13927695326507092,-0.26553309691548344,-0.26546821498572826
1772537525421129500,9.86212939453125,0.011927753680944442,-0.33683658415079115,-0.11821334164403378
1772537525431197400,9.872197509765625,0.10699790095090865,-0.49569092906713486,0.06522416732162237
1772537525441265700,9.882265625,0.03162146518826484,-0.6893804405212401,0.1260646761989221
1772537525451332600,9.89233251953125,-0.21403438034653663,-0.739732325142622,-0.14377821020707487
1772537525461400600,9.902400634765625,-0.5075692906484007,-0.6408773986369372,-0.6171848998170346
1772537525471468500,9.912468505859374,-0.8256696101471781,-0.5369254412531852,-1.0511915991917251
1772537525481535500,9.922535400390625,-1.1125669821307063,-0.44031741689145565,-1.3817824208207428
1772537525491603500,9.932603515625,-1.220877426984906,-0.28949264917373657,-1.5479071951314807
1772537525501671700,9.942671630859374,-1.0858633918613194,-0.09034078066051006,-1.407461051956564
1772537525511738600,9.952738525390625,-0.8928378972738981,0.006781038442254066,-0.8942486408546566
1772537525521806600,9.962806640625,-0.7245859016761184,0.1276262629598379,-0.31255375475492325
1772537525531873500,9.97287353515625,-0.6357084715664386,0.33631811323463917,0.07468732555389869
1772537525541941500,9.98294140625,-0.5994339198753237,0.4999965173065662,0.3717673930827528
1772537525552009500,9.993009521484375,-0.5964227553606033,0.5706687209010124,0.54316192448996
1772537525562076700,10.00307666015625,-0.6010463235080242,0.5657447085022926,0.5453142071530223
1772537525572144400,10.013144287109375,-0.613543986031413,0.5418506226956844,0.3805758091667667
1772537525582212400,10.02321240234375,-0.5634890385299921,0.5737479822158813,0.12940989497359842
1772537525592279600,10.033279541015625,-0.5504559539556503,0.5602811823993921,-0.1323094797394704
1772537525602347300,10.04334716796875,-0.5178416783377527,0.5886281559616326,-0.3345936275295913
1772537525612415500,10.05341552734375,-0.44890755058228965,0.7580383816838264,-0.39203404563982036
1772537525622482400,10.063482421875,-0.31764322338104245,1.009382209727168,-0.30190559255573896
1772537525632550400,10.07355029296875,-0.15070523299127817,1.3052742045491934,-0.12973371096733025
1772537525642618400,10.083618408203124,-0.02675532045662403,1.5357809962689877,0.01938207000857219
1772537525652685300,10.093685302734375,0.03507072885930538,1.674762181457877,0.1348141469036229
1772537525662753500,10.10375341796875,0.16135668312609194,1.7603262492358684,0.3523644081503153
1772537525672821500,10.113821533203126,0.41184243303537366,1.7293296379476784,0.7579290030252188
1772537525682888400,10.123888427734375,0.6598337357804179,1.6323925277620552,1.2520308362700043
1772537525692956400,10.133956298828124,0.9032289429068565,1.5368290440171957,1.4933622427344322
1772537525703023400,10.1440234375,0.8868170295491814,1.3191963469177483,1.6670282262049614
1772537525713091300,10.15409130859375,0.6842302181512117,1.1187848337322472,1.6410397984676062
1772537525723159600,10.16415966796875,0.2700625570386648,0.9508721530914306,1.5098871149472892
1772537525733226500,10.1742265625,-0.10533932008892297,0.7881628863126039,1.0762772328704595
1772537525743294500,10.18429443359375,-0.3178682643085718,0.6921656873255968,0.5221366721179336
1772537525753362400,10.194362548828124,-0.47580315629243847,0.649617169931531,0.033395452590845524
1772537525763429400,10.204429443359375,-0.7728893293350935,0.3574175998866558,-0.1624448254226707
1772537525773497600,10.21449755859375,-0.9917904389351606,0.1776461391478777,-0.2774723766374402
1772537525783565600,10.224565673828126,-0.9702928928762674,0.21645897714495657,-0.5904659658480436
1772537525793632500,10.234632568359375,-0.9321090004324912,0.30136078162193297,-0.8685214213367551
1772537525803700500,10.244700439453124,-0.8709171573668718,0.3507113802462816,-0.9195797006618232
1772537525813768400,10.2547685546875,-0.8384639175295829,0.3931874169260263,-0.7480310746714472
1772537525823835400,10.26483544921875,-0.8591904792159796,0.42534255059957504,-0.5070579435927793
1772537525833903600,10.274903564453124,-1.0123913284152746,0.3264034529417753,-0.3463354301843792
1772537525843971600,10.2849716796875,-1.0048445662975312,0.2704413272231817,-0.22101371783986687
1772537525854038500,10.29503857421875,-0.7877940530002117,0.2930506339162588,0.05236914272792637
1772537525864106500,10.3051064453125,-0.3411211296021938,0.28311376179158687,0.45125557501316066
1772537525874173400,10.31517333984375,0.12604396220445632,0.27190263194739817,0.8800773460306227
1772537525884241700,10.32524169921875,0.4812655133515596,0.27336276762783523,1.269907561483234
1772537525894309600,10.3353095703125,0.709729985588789,0.2114911256045103,1.5392210537202655
1772537525904376600,10.34537646484375,0.8414268589884042,0.08278641975820064,1.7249354946419595
1772537525914444500,10.355444580078125,0.8558744865357876,0.03849485808908939,1.7324930704146622
1772537525924512500,10.365512451171876,0.7386720024347305,-0.020980244186520575,1.5432526473239063
1772537525934579500,10.375579345703125,0.5520148738354445,-0.17429741324186324,1.2563706190399824
1772537525944647400,10.3856474609375,0.2598135502249002,-0.28517361693084237,0.8959859129760414
1772537525954715400,10.39571533203125,-0.13096680555939674,-0.3520323997169733,0.48494215603768825
1772537525964782600,10.405782470703125,-0.5129021761089563,-0.33955168832838534,0.17612503052782266
1772537525974850300,10.415850341796874,-0.694912355685234,-0.3377373323827982,-0.05171794881019741
1772537525984918500,10.42591845703125,-0.73755381205976,-0.2961842557668686,-0.12131390147525817
1772537525994985500,10.4359853515625,-0.7196352935314178,-0.22533201943039893,-0.0867610955428332
1772537526005053400,10.446053466796876,-0.40853228557407856,-0.15424655885994434,0.04394051974173635
1772537526015121400,10.456121337890625,0.031869302469491954,-0.12141513336002827,0.3515544434743002
1772537526025188400,10.466188232421874,0.44073359647691246,-0.15898352425396442,0.6892420549638569
1772537526035256300,10.47625634765625,0.7979828540593386,-0.25245091250240803,0.857588450846821
1772537526045323300,10.4863232421875,0.9259206671863793,-0.3860509891748428,0.8439047203440219
1772537526055391500,10.4963916015625,0.7085241169303655,-0.4265858286589384,0.7184720949709416
1772537526065459500,10.50645947265625,0.4305085550606251,-0.3929705593049526,0.6442546199850737
1772537526075526400,10.5165263671875,0.174730543962121,-0.4211217180341482,0.671224167714268
1772537526085594400,10.526594482421874,-0.02870587000250816,-0.4672931021004915,0.6837997908446938
1772537526095662600,10.53666259765625,-0.20301146655082702,-0.4775970539718866,0.5119893721129745
1772537526105729500,10.5467294921875,-0.37892099116444583,-0.5083458279788494,0.26564525205306705
1772537526115797500,10.556797607421874,-0.47934594346582887,-0.5563514417350292,0.09691175654865801
1772537526125865500,10.566865478515625,-0.5064098914802074,-0.6044470718622207,0.02050057091079652
1772537526135932400,10.576932373046875,-0.4128472261637449,-0.5630266817152499,0.004222878392040729
1772537526146000400,10.58700048828125,-0.2559288177460432,-0.4895388361781835,0.0312552622243762
1772537526156068600,10.597068603515625,-0.11824059497714041,-0.48802200187444683,0.10102306432500481
1772537526166135600,10.607135498046874,0.04428571645021438,-0.5375771831601858,0.25887692696191367
1772537526176203500,10.61720361328125,0.2127981165498495,-0.636610388842225,0.4800929624408483
1772537526186271500,10.627271484375,0.3394587493479252,-0.7130389640063047,0.6594077654533088
1772537526196338400,10.63733837890625,0.3682780165970325,-0.7117921788156032,0.7175587795183063
1772537526206406700,10.64740673828125,0.2656581845998764,-0.6818523831039667,0.6820753782048821
1772537526216473600,10.6574736328125,0.02842880662679672,-0.6443769311904907,0.6807119078319519
1772537526226540800,10.667540771484376,-0.37334406781494617,-0.5690010799497366,0.642609848452732
1772537526236608800,10.67760888671875,-0.7978922531664371,-0.4742167638838291,0.47998738317452366
1772537526246675700,10.68767578125,-1.1552543234735726,-0.2903092262536287,0.1855319239616394
1772537526256743700,10.69774365234375,-1.3947767808198928,-0.052689387658238405,-0.11346943505257368
1772537526266812000,10.70781201171875,-1.4734639485657215,0.18385902231335638,-0.2927447097722441
1772537526276878800,10.71787890625,-1.489619549074769,0.380823025393486,-0.2802852603673935
1772537526286946800,10.72794677734375,-1.4701274976193903,0.4845674775063991,-0.2229170672431588
1772537526297014800,10.738014892578125,-1.3625801460921763,0.5013777425318956,-0.21246157807186244
1772537526307081700,10.748081787109374,-1.1566846485376356,0.45259822179377074,-0.20712102076150476
1772537526317149700,10.758149658203125,-0.9227052122712135,0.46511108188629147,-0.1408768627423793
1772537526327218000,10.768218017578125,-0.6995195572197437,0.5440606999605894,-0.06979366719424725
1772537526337284900,10.778284912109376,-0.5200689989984035,0.6512392181754112,-0.046485637647286054
1772537526347352800,10.788352783203125,-0.39324119293987747,0.7185410685539245,-0.11282923745289444
1772537526357419800,10.798419677734374,-0.41727614852190015,0.7520178062200545,-0.2668538241252303
1772537526367487700,10.80848779296875,-0.5170172102123498,0.8125649216413497,-0.43337950738705694
1772537526377556000,10.818555908203125,-0.4665303010344505,0.9058850103735924,-0.4363510705437511
1772537526387623000,10.828622802734374,-0.29090602310299873,0.9702151514649391,-0.29145751950591803
1772537526397691000,10.83869091796875,-0.04824877486228943,0.8754863649785518,-0.011404898850619792
1772537526407758600,10.848758544921875,0.22658815697133539,0.8822925378620624,0.21569851416647434
1772537526417825800,10.85882568359375,0.5103823022425175,0.9027028732061385,0.29843101178035136
1772537526427893800,10.868893798828125,0.7206669746667146,0.8514625153124332,0.29468473792411387
1772537526437961700,10.878961669921875,0.8255477373331784,0.7999012549012899,0.2346346122395247
