time,seconds_elapsed,z,y,x
1772537515635378000,0.0763779296875,-0.0002188847865909338,-0.15324053168296814,0.2621637284755707
1772537515645446000,0.08644580078125,0.008352765813469887,-0.2006615698337555,0.2523941993713379
1772537515655512800,0.096512939453125,0.026900198310613632,-0.21089884638786316,0.23085880279541016
1772537515665581000,0.1065810546875,0.04248235374689102,-0.23013032972812653,0.20366287231445312
1772537515675649000,0.11664892578125,0.03758921101689339,-0.27316978573799133,0.1832040399312973
1772537515685716000,0.126716064453125,0.02250453270971775,-0.2949581742286682,0.1689409464597702
1772537515695784000,0.136783935546875,0.0026715309359133244,-0.22333136200904846,0.17783929407596588
1772537515705852000,0.146851806640625,-0.019659873098134995,-0.10756401717662811,0.19920450448989868
1772537515715919000,0.156919189453125,-0.04773890972137451,-0.014977889135479927,0.22944363951683044
1772537515725987000,0.166987060546875,-0.07370446622371674,0.013806888833642006,0.25058087706565857
1772537515736054800,0.1770546875,-0.07035453617572784,-0.0033886379096657038,0.24715013802051544
1772537515746122000,0.1871220703125,-0.04357165843248367,-0.04720855876803398,0.2355414181947708
1772537515756189700,0.197189697265625,-0.00970577821135521,-0.1159188449382782,0.2126050442457199
1772537515766258000,0.2072578125,0.023880943655967712,-0.17315176129341125,0.18927600979804993
1772537515776324900,0.217324951171875,0.06491129100322723,-0.2227560132741928,0.15378084778785706
1772537515786392800,0.227392822265625,0.10193855315446854,-0.23960663378238678,0.08870650082826614
1772537515796460000,0.2374599609375,0.1278991848230362,-0.23111200332641602,-0.004272809252142906
1772537515806527700,0.24752783203125,0.1356593817472458,-0.1857176274061203,-0.09035709500312805
1772537515816595700,0.257595703125,0.12430274486541748,-0.11538443714380264,-0.1423160433769226
1772537515826663000,0.267662841796875,0.08680090308189392,-0.07766848057508469,-0.15703827142715454
1772537515836731000,0.27773095703125,0.03347622603178024,-0.060550760477781296,-0.1321859210729599
1772537515846798800,0.287798828125,-0.015597578138113022,-0.04962247982621193,-0.06849508732557297
1772537515856865800,0.29786572265625,-0.04354318976402283,-0.058118268847465515,0.00911017693579197
1772537515866933800,0.307933837890625,-0.05740680918097496,-0.10346231609582901,0.08111859112977982
1772537515877002000,0.318001953125,-0.06629505008459091,-0.15655659139156342,0.12253542244434357
1772537515887069000,0.32806884765625,-0.05888613685965538,-0.1769942194223404,0.13352255523204803
1772537515897137000,0.338136962890625,-0.02245633862912655,-0.18632955849170685,0.12470804154872894
1772537515907204900,0.348204833984375,0.024915970861911774,-0.2186073362827301,0.0973334088921547
1772537515917271800,0.358271728515625,0.057410821318626404,-0.26050618290901184,0.07143689692020416
1772537515927339800,0.36833984375,0.07906551659107208,-0.2766641080379486,0.046292927116155624
1772537515937408000,0.378407958984375,0.09949619323015213,-0.2740575671195984,0.018107298761606216
1772537515947475000,0.388474853515625,0.11894845962524414,-0.28866714239120483,-0.014904712326824665
1772537515957543000,0.39854296875,0.1223130077123642,-0.3242399990558624,-0.04381905123591423
1772537515967609900,0.40860986328125,0.10314996540546417,-0.31637197732925415,-0.06629054248332977
1772537515977677800,0.418677734375,0.06632886826992035,-0.24957381188869476,-0.07521310448646545
1772537515987746000,0.42874609375,0.02017202042043209,-0.1584273874759674,-0.0737968385219574
1772537515997813000,0.43881298828125,-0.036485783755779266,-0.10705484449863434,-0.06440296024084091
1772537516007881000,0.448880859375,-0.06718351691961288,-0.11416495591402054,-0.06972209364175797
1772537516017949000,0.458948974609375,-0.05759473890066147,-0.1447231024503708,-0.09264279901981354
1772537516028015900,0.469015869140625,-0.009607771411538124,-0.1949242204427719,-0.12192372232675552
1772537516038083800,0.479083740234375,0.045445092022418976,-0.26491180062294006,-0.15945321321487427
1772537516048152000,0.489152099609375,0.10063564032316208,-0.30998846888542175,-0.18455909192562103
1772537516058219000,0.499218994140625,0.12748169898986816,-0.3272554576396942,-0.20888128876686096
1772537516068287000,0.509286865234375,0.12842924892902374,-0.2965577244758606,-0.23360741138458252
1772537516078355000,0.51935498046875,0.12165925651788712,-0.22171388566493988,-0.2443515658378601
1772537516088422000,0.529421875,0.12048160284757614,-0.1359177529811859,-0.24548660218715668
1772537516098490000,0.539489990234375,0.11291278153657913,-0.06190326809883118,-0.23398803174495697
1772537516108557800,0.549557861328125,0.09637748450040817,-0.016296373680233955,-0.20179787278175354
1772537516118625000,0.559625,0.0863257646560669,0.0034593180753290653,-0.15948274731636047
1772537516128693000,0.56969287109375,0.09645509719848633,-0.004719515796750784,-0.1143759936094284
1772537516138760700,0.5797607421875,0.11382373422384262,-0.042299043387174606,-0.07478494942188263
1772537516148828000,0.589827880859375,0.14130622148513794,-0.08678022027015686,-0.049416735768318176
1772537516158895900,0.599895751953125,0.18115095794200897,-0.12004540115594864,-0.04419945180416107
1772537516168963000,0.609963134765625,0.2170674204826355,-0.15315568447113037,-0.05947853997349739
1772537516179030800,0.62003076171875,0.25196534395217896,-0.1835462599992752,-0.0821036696434021
1772537516189098800,0.6300986328125,0.265633225440979,-0.21911197900772095,-0.09626290202140808
1772537516199165700,0.640165771484375,0.2593036890029907,-0.22933714091777802,-0.09640852361917496
1772537516209234000,0.65023388671875,0.2374117225408554,-0.21314086019992828,-0.083561971783638
1772537516219302700,0.660302734375,0.19399979710578918,-0.1808316558599472,-0.06133922189474106
1772537516229369600,0.67036962890625,0.13862495124340057,-0.14615890383720398,-0.037203796207904816
1772537516239437800,0.680437744140625,0.08106427639722824,-0.10443402826786041,-0.0076507264748215675
1772537516249505800,0.690505859375,0.031231742352247238,-0.0652243122458458,0.017199495807290077
1772537516259572700,0.70057275390625,0.0003702031681314111,-0.022293653339147568,0.026735028252005577
1772537516269640700,0.710640625,-0.017787495627999306,0.008945225737988949,0.022754933685064316
1772537516279708700,0.720708740234375,-0.03272273764014244,0.009156182408332825,0.022484805434942245
1772537516289775900,0.73077587890625,-0.050443410873413086,-0.003327651647850871,0.021892784163355827
1772537516299843800,0.74084375,-0.059394918382167816,0.0033406151924282312,0.029605375602841377
1772537516309911800,0.750911865234375,-0.06846777349710464,-0.003425145521759987,0.044273268431425095
1772537516319978800,0.760978759765625,-0.0840696319937706,-0.04251616820693016,0.07105099409818649
1772537516330046700,0.771046630859375,-0.10219138115644455,-0.061624083667993546,0.10058092325925827
1772537516340113700,0.78111376953125,-0.11158224940299988,-0.0543871633708477,0.13055390119552612
1772537516350182000,0.791181884765625,-0.1261201798915863,-0.04286393150687218,0.15999755263328552
1772537516360249900,0.801249755859375,-0.13685278594493866,-0.03378315269947052,0.1760304868221283
1772537516370316800,0.81131689453125,-0.12574180960655212,-0.027086367830634117,0.17254626750946045
1772537516380384800,0.821384765625,-0.09843887388706207,-0.03650017827749252,0.16380514204502106
1772537516390452700,0.83145263671875,-0.06817816942930222,-0.06587324291467667,0.145522803068161
1772537516400520000,0.84152001953125,-0.04688063636422157,-0.0870068371295929,0.1313745379447937
1772537516410588000,0.851587890625,-0.05057603865861893,-0.07426440715789795,0.14479421079158783
1772537516420655600,0.861655517578125,-0.07798188924789429,-0.02728387899696827,0.16234731674194336
1772537516430722800,0.871722900390625,-0.1160869300365448,0.0360836423933506,0.17610441148281097
1772537516440790500,0.88179052734375,-0.15249358117580414,0.10317600518465042,0.17215979099273682
1772537516450858800,0.891858642578125,-0.17178259789943695,0.16437943279743195,0.1478126496076584
1772537516460925700,0.90192578125,-0.16637107729911804,0.200962632894516,0.11316090822219849
1772537516470993700,0.91199365234375,-0.1444103866815567,0.21474209427833557,0.06550443917512894
1772537516481061600,0.9220615234375,-0.11007609218358994,0.1946304589509964,0.017400214448571205
1772537516491128600,0.932128662109375,-0.06770626455545425,0.11518225073814392,-0.020506154745817184
1772537516501196500,0.942196533203125,-0.00318183284252882,-0.00529539305716753,-0.06550406664609909
1772537516511264800,0.9522646484375,0.06057557463645935,-0.15256713330745697,-0.11576351523399353
1772537516521331700,0.962331787109375,0.1194290965795517,-0.258440762758255,-0.17225012183189392
1772537516531399700,0.972399658203125,0.1529415100812912,-0.28462550044059753,-0.24081294238567352
1772537516541466600,0.982466552734375,0.16624388098716736,-0.23782746493816376,-0.289620578289032
1772537516551534600,0.99253466796875,0.1385696530342102,-0.13539350032806396,-0.30547571182250977
1772537516561602800,1.002602783203125,0.05392610654234886,-0.002846719231456518,-0.2726399600505829
1772537516571669800,1.012669677734375,-0.050029318779706955,0.14726395905017853,-0.20522791147232056
1772537516581737700,1.02273779296875,-0.13801060616970062,0.28554967045783997,-0.11844760179519653
1772537516591805700,1.0328056640625,-0.19130419194698334,0.37386220693588257,-0.03105277381837368
1772537516601872600,1.04287255859375,-0.2235003560781479,0.43648073077201843,0.047963947057724
1772537516611940600,1.052940673828125,-0.2120913714170456,0.48152223229408264,0.11163479834794998
1772537516622008800,1.0630087890625,-0.17155291140079498,0.503603994846344,0.16532467305660248
1772537516632075800,1.07307568359375,-0.11026265472173691,0.4871993958950043,0.18765287101268768
1772537516642143700,1.083143798828125,-0.05450322479009628,0.4409714341163635,0.1840795874595642
1772537516652211700,1.093211669921875,-0.010010326281189919,0.39617466926574707,0.17900119721889496
1772537516662278700,1.103278564453125,0.01892397180199623,0.3532494008541107,0.17330139875411987
1772537516672347000,1.113346923828125,0.036827605217695236,0.29649344086647034,0.1735336184501648
1772537516682414800,1.123414794921875,0.03790103644132614,0.20650513470172882,0.17169149219989777
1772537516692481800,1.133481689453125,0.04493631049990654,0.10622353851795197,0.15766356885433197
1772537516702549800,1.1435498046875,0.06000838056206703,0.02139297127723694,0.13417446613311768
1772537516712617700,1.15361767578125,0.08231715112924576,-0.046039335429668427,0.08828341215848923
1772537516722684700,1.1636845703125,0.11600465327501297,-0.10674378275871277,0.02945362962782383
1772537516732753000,1.1737529296875,0.15492568910121918,-0.177165225148201,-0.033325597643852234
1772537516742819800,1.18381982421875,0.1952376663684845,-0.263123482465744,-0.08648025989532471
1772537516752887800,1.1938876953125,0.20642374455928802,-0.35346508026123047,-0.12727563083171844
1772537516762955800,1.203955810546875,0.16593752801418304,-0.4178743362426758,-0.15589161217212677
1772537516773022700,1.214022705078125,0.08806458115577698,-0.3955748677253723,-0.1835690438747406
1772537516783091000,1.224091064453125,-0.01706545054912567,-0.2628401815891266,-0.21117788553237915
1772537516793158700,1.23415869140625,-0.13584136962890625,-0.04629642888903618,-0.24420854449272156
1772537516803225900,1.244225830078125,-0.24077190458774567,0.18914373219013214,-0.26539114117622375
1772537516813293600,1.25429345703125,-0.31873619556427,0.34826788306236267,-0.2821592092514038
1772537516823361500,1.264361572265625,-0.37749800086021423,0.40661752223968506,-0.3036782443523407
1772537516833428700,1.2744287109375,-0.4023708701133728,0.38068392872810364,-0.337794691324234
1772537516843496700,1.28449658203125,-0.39992618560791016,0.30465617775917053,-0.38418468832969666
1772537516853564700,1.294564697265625,-0.36524757742881775,0.20001019537448883,-0.45109766721725464
1772537516863631600,1.304631591796875,-0.31344160437583923,0.08410649001598358,-0.5226444005966187
1772537516873699600,1.314699462890625,-0.24849963188171387,-0.026230400428175926,-0.5866791009902954
1772537516883767800,1.324767822265625,-0.1742754876613617,-0.1143786683678627,-0.6334025263786316
1772537516893834800,1.334834716796875,-0.11888360977172852,-0.18573008477687836,-0.6407187581062317
1772537516903902700,1.34490283203125,-0.08688317984342575,-0.24055080115795135,-0.6175745129585266
1772537516913969700,1.3549697265625,-0.06541650742292404,-0.26573047041893005,-0.5746882557868958
1772537516924037600,1.36503759765625,-0.0431700199842453,-0.2576206624507904,-0.5215799808502197
1772537516934105600,1.375105712890625,-0.02824939601123333,-0.22177104651927948,-0.4542919993400574
1772537516944172500,1.385172607421875,-0.009254787117242813,-0.172485813498497,-0.38197043538093567
1772537516954240800,1.39524072265625,0.011213736608624458,-0.13866952061653137,-0.2954137325286865
1772537516964308700,1.405308837890625,0.02568780817091465,-0.12233685702085495,-0.2101736068725586
1772537516974375700,1.415375732421875,0.03262960538268089,-0.09494304656982422,-0.12597697973251343
1772537516984443600,1.425443603515625,0.055606234818696976,-0.050263796001672745,-0.050780586898326874
1772537516994512000,1.435511962890625,0.07990837842226028,-0.022353336215019226,0.010153602808713913
1772537517004578800,1.445578857421875,0.09755972027778625,-0.0025072558782994747,0.06257769465446472
1772537517014646800,1.455646728515625,0.10609035938978195,0.025704141706228256,0.09976634383201599
1772537517024714800,1.46571484375,0.10560503602027893,0.055068280547857285,0.12983229756355286
1772537517034781700,1.47578173828125,0.09264130145311356,0.06987065821886063,0.15202069282531738
1772537517044849700,1.485849609375,0.0809277817606926,0.09064874053001404,0.157443568110466
1772537517054918000,1.49591796875,0.08491373807191849,0.10654035210609436,0.15042640268802643
1772537517064984800,1.50598486328125,0.10026264935731888,0.1148623526096344,0.1283402144908905
1772537517075052800,1.516052734375,0.11591991037130356,0.11086441576480865,0.09549224376678467
1772537517085120800,1.526120849609375,0.14061003923416138,0.10321866720914841,0.06350212544202805
1772537517095187700,1.536187744140625,0.15321850776672363,0.08158980309963226,0.040766455233097076
1772537517105256000,1.546255859375,0.15628302097320557,0.060218244791030884,0.04198703169822693
1772537517115323000,1.556322998046875,0.16200987994670868,0.027499446645379066,0.051295842975378036
1772537517125390800,1.566390869140625,0.16215652227401733,-0.01511864922940731,0.06836859881877899
1772537517135458800,1.576458740234375,0.1552664041519165,-0.0504382885992527,0.0741330087184906
1772537517145525800,1.58652587890625,0.1460900902748108,-0.06664722412824631,0.07125313580036163
1772537517155593700,1.59659375,0.1265701800584793,-0.06438407301902771,0.06523652374744415
1772537517165661700,1.60666162109375,0.08974172174930573,-0.02605823613703251,0.07965786010026932
1772537517175729000,1.61672900390625,0.05433152988553047,0.01479119248688221,0.10794249176979065
1772537517185796900,1.626796875,0.023606697097420692,0.03824423998594284,0.14983691275119781
1772537517195864600,1.636864501953125,-0.004939991515129805,0.038397371768951416,0.19065891206264496
1772537517205931800,1.646931884765625,-0.038058266043663025,0.02097778394818306,0.22643381357192993
1772537517215999500,1.65699951171875,-0.079521544277668,-0.005219198763370514,0.24233421683311462
1772537517226067200,1.667067138671875,-0.11078854650259018,-0.07336163520812988,0.23953063786029816
1772537517236134400,1.677134521484375,-0.12006966024637222,-0.16927218437194824,0.19163928925991058
1772537517246202400,1.687202392578125,-0.11367271840572357,-0.25505387783050537,0.11546272784471512
1772537517256269600,1.69726953125,-0.10950727015733719,-0.3465403616428375,0.029530512169003487
1772537517266337300,1.707337158203125,-0.11256584525108337,-0.4519606828689575,-0.05230375751852989
1772537517276405200,1.7174052734375,-0.12282567471265793,-0.5395494103431702,-0.12138242274522781
1772537517286472400,1.727472412109375,-0.13990098237991333,-0.5807285308837891,-0.17701220512390137
1772537517296540200,1.7375400390625,-0.16609902679920197,-0.5519429445266724,-0.209764301776886
1772537517306608400,1.7476083984375,-0.20416249334812164,-0.4412688612937927,-0.22268475592136383
1772537517316675300,1.75767529296875,-0.2525510787963867,-0.26821932196617126,-0.20503784716129303
1772537517326743300,1.767743408203125,-0.2974475920200348,-0.08976872265338898,-0.16119398176670074
1772537517336811300,1.777811279296875,-0.34467819333076477,0.060912661254405975,-0.08468855172395706
1772537517346878200,1.787878173828125,-0.38887375593185425,0.18455328047275543,0.017187321558594704
1772537517356946400,1.797946533203125,-0.41217240691185,0.28278690576553345,0.1443050652742386
1772537517367014400,1.808014404296875,-0.41186994314193726,0.3231908977031708,0.2755587697029114
1772537517377081300,1.818081298828125,-0.3978566527366638,0.3134538531303406,0.40052786469459534
1772537517387149300,1.8281494140625,-0.3557097315788269,0.2908305525779724,0.5148482918739319
1772537517397216300,1.83821630859375,-0.28865480422973633,0.22871260344982147,0.6104139685630798
1772537517407284200,1.8482841796875,-0.2159871906042099,0.134079709649086,0.6677032709121704
1772537517417352400,1.8583525390625,-0.13469873368740082,0.03403221443295479,0.6853206157684326
1772537517427419400,1.86841943359375,-0.058029428124427795,-0.06409619748592377,0.6763696670532227
1772537517437487400,1.8784873046875,-0.003167776856571436,-0.1448243260383606,0.6395986080169678
1772537517447555300,1.888555419921875,0.03288234397768974,-0.19481779634952545,0.5685157179832458
1772537517457622300,1.898622314453125,0.057493146508932114,-0.20415590703487396,0.4774531424045563
1772537517467690500,1.9086904296875,0.07551241666078568,-0.1472620815038681,0.38275137543678284
1772537517477758500,1.918758544921875,0.0875626876950264,-0.05480271205306053,0.2940417528152466
1772537517487825400,1.928825439453125,0.10499192774295807,0.037866320461034775,0.21513591706752777
1772537517497893400,1.938893310546875,0.12144467234611511,0.11267345398664474,0.16935457289218903
1772537517507961300,1.94896142578125,0.11802416294813156,0.19720202684402466,0.16279588639736176
1772537517518028300,1.9590283203125,0.10952947288751602,0.2724030315876007,0.18456269800662994
1772537517528096500,1.969096435546875,0.09812741726636887,0.3078422248363495,0.21524441242218018
1772537517538163500,1.97916357421875,0.10588893294334412,0.32644304633140564,0.25243091583251953
1772537517548231400,1.9892314453125,0.1259075254201889,0.33989569544792175,0.27444958686828613
1772537517558299400,1.99929931640625,0.14812494814395905,0.38799238204956055,0.28014206886291504
1772537517568366300,2.009366455078125,0.17280013859272003,0.44516661763191223,0.2753865718841553
1772537517578434600,2.0194345703125,0.1974458396434784,0.48290252685546875,0.2672958970069885
1772537517588502500,2.02950244140625,0.2209564596414566,0.4964684247970581,0.2605840563774109
1772537517598569500,2.039569580078125,0.25213301181793213,0.4932497441768646,0.25347527861595154
1772537517608637400,2.049637451171875,0.29713526368141174,0.47375577688217163,0.24525950849056244
1772537517618705200,2.059705078125,0.3482711613178253,0.429678350687027,0.23280097544193268
1772537517628772400,2.0697724609375,0.38699617981910706,0.3852693736553192,0.21222011744976044
1772537517638840300,2.07984033203125,0.41243016719818115,0.3687726855278015,0.19152362644672394
1772537517648908300,2.089908203125,0.43679627776145935,0.3870358169078827,0.17116478085517883
1772537517658975500,2.0999755859375,0.45651113986968994,0.4206571578979492,0.14584796130657196
1772537517669043200,2.110043212890625,0.4747118055820465,0.45854824781417847,0.11334154009819031
1772537517679111200,2.120111083984375,0.5013108849525452,0.495978444814682,0.07464846968650818
1772537517689178400,2.130178466796875,0.5261633396148682,0.5217958092689514,0.04893331229686737
1772537517699246300,2.140246337890625,0.5383667349815369,0.5632675886154175,0.045760951936244965
1772537517709313300,2.150313232421875,0.5402132868766785,0.6139100193977356,0.05955001711845398
1772537517719381200,2.16038134765625,0.5413757562637329,0.6537708640098572,0.08615685999393463
1772537517729449200,2.17044921875,0.5618970990180969,0.6845933794975281,0.11762741208076477
1772537517739516200,2.18051611328125,0.5899428129196167,0.713515043258667,0.140230193734169
1772537517749584400,2.19058447265625,0.6340019702911377,0.7403944134712219,0.15534599125385284
1772537517759652400,2.20065234375,0.6703307032585144,0.7508047223091125,0.1653866469860077
1772537517769719300,2.21071923828125,0.6846898794174194,0.7741692066192627,0.1774064153432846
1772537517779787300,2.220787353515625,0.6850424408912659,0.8014112114906311,0.2117241770029068
1772537517789855200,2.230855224609375,0.6723412275314331,0.819659948348999,0.2542177736759186
1772537517799922400,2.24092236328125,0.6387702226638794,0.8324530124664307,0.30613023042678833
1772537517809990400,2.250990478515625,0.6036098599433899,0.8640397787094116,0.3482491672039032
1772537517820058400,2.261058349609375,0.5697373747825623,0.9116418957710266,0.37925633788108826
1772537517830125300,2.271125244140625,0.5321611166000366,0.968953549861908,0.3935334086418152
1772537517840193300,2.281193359375,0.5056306719779968,1.0320022106170654,0.3958820402622223
1772537517850260200,2.29126025390625,0.48831671476364136,1.0831830501556396,0.386118620634079
1772537517860328400,2.301328369140625,0.4823932945728302,1.1182608604431152,0.3690893054008484
1772537517870396400,2.311396484375,0.46485191583633423,1.1349799633026123,0.34080782532691956
1772537517880463400,2.32146337890625,0.4421468675136566,1.1459805965423584,0.31560367345809937
1772537517890531300,2.33153125,0.40385279059410095,1.1748836040496826,0.2932273745536804
1772537517900599300,2.341599365234375,0.36182332038879395,1.2115764617919922,0.2635970413684845
1772537517910666500,2.35166650390625,0.3224853575229645,1.2532206773757935,0.232832133769989
1772537517920734500,2.361734375,0.2909247875213623,1.303679347038269,0.20338822901248932
1772537517930802400,2.371802490234375,0.2711094915866852,1.3530778884887695,0.18483677506446838
1772537517940869400,2.381869384765625,0.2817528247833252,1.3737645149230957,0.1532689929008484
1772537517950937300,2.391937255859375,0.32540127635002136,1.3599549531936646,0.11617893725633621
1772537517961005600,2.402005615234375,0.4001876413822174,1.3143941164016724,0.09214231371879578
1772537517971072500,2.412072509765625,0.492661714553833,1.235653281211853,0.11203303188085556
1772537517981140500,2.422140380859375,0.5778066515922546,1.1323614120483398,0.17349079251289368
1772537517991207400,2.43220751953125,0.6354370713233948,1.0349174737930298,0.2525133490562439
1772537518001275400,2.442275390625,0.6647046804428101,0.9749029278755188,0.3408048748970032
1772537518011343400,2.45234326171875,0.657539427280426,0.9612725973129272,0.4300905466079712
1772537518021410600,2.46241064453125,0.6228408217430115,0.9978798627853394,0.49667754769325256
1772537518031478500,2.472478515625,0.5793483853340149,1.0612095594406128,0.5336045622825623
1772537518041546200,2.482546142578125,0.5399913787841797,1.1306370496749878,0.5359761118888855
1772537518051613400,2.492613525390625,0.5009220242500305,1.1786781549453735,0.5063284039497375
1772537518061681200,2.50268115234375,0.4688810408115387,1.1977901458740234,0.4445832371711731
1772537518071749400,2.512749267578125,0.44520238041877747,1.2083591222763062,0.3487110733985901
1772537518081816300,2.52281640625,0.43025296926498413,1.2195971012115479,0.24294710159301758
1772537518091884300,2.53288427734375,0.41051235795021057,1.2514259815216064,0.13692525029182434
1772537518101952300,2.5429521484375,0.3872555196285248,1.2917214632034302,0.04559934139251709
1772537518112019200,2.553019287109375,0.3627387285232544,1.3065592050552368,-0.01867392286658287
1772537518122087200,2.563087158203125,0.3428440988063812,1.30437171459198,-0.04645122215151787
1772537518132155400,2.5731552734375,0.33298343420028687,1.3128221035003662,-0.04910840466618538
1772537518142222300,2.583222412109375,0.33529213070869446,1.3242614269256592,-0.0500333234667778
1772537518152290300,2.593290283203125,0.3613516688346863,1.3468221426010132,-0.052915796637535095
1772537518162357200,2.603357177734375,0.3978300392627716,1.349605679512024,-0.06424381583929062
1772537518172425200,2.61342529296875,0.442865788936615,1.3395978212356567,-0.08373086154460907
1772537518182493400,2.623493408203125,0.4775327146053314,1.312384843826294,-0.09331850707530975
1772537518192560400,2.633560302734375,0.5100492835044861,1.2797712087631226,-0.098216213285923
1772537518202628400,2.64362841796875,0.5543152689933777,1.2373931407928467,-0.10014167428016663
1772537518212696000,2.653696044921875,0.6105770468711853,1.1951297521591187,-0.10038751363754272
1772537518222763000,2.663762939453125,0.6644186973571777,1.1494698524475098,-0.10558200627565384
1772537518232831200,2.673831298828125,0.7263404130935669,1.09930419921875,-0.08687729388475418
1772537518242899200,2.683899169921875,0.7902570366859436,1.0552005767822266,-0.043299686163663864
1772537518252966100,2.693966064453125,0.8440359234809875,1.0156360864639282,0.013429206795990467
1772537518263034000,2.7040341796875,0.8851537704467773,0.9905115962028503,0.0862906277179718
1772537518273102000,2.71410205078125,0.9163594841957092,0.96876060962677,0.15067674219608307
1772537518283169000,2.7241689453125,0.9375427961349487,0.9580320715904236,0.195980042219162
1772537518293237200,2.7342373046875,0.9423480033874512,0.9694417119026184,0.22220899164676666
1772537518303304200,2.74430419921875,0.9348040819168091,1.0117195844650269,0.21402668952941895
1772537518313372200,2.7543720703125,0.9121402502059937,1.0649126768112183,0.18379409611225128
1772537518323440000,2.764440185546875,0.8847216963768005,1.1118396520614624,0.12073308974504471
1772537518333507000,2.774507080078125,0.8716665506362915,1.166094183921814,0.04228998348116875
1772537518343575300,2.7845751953125,0.8749051690101624,1.2104084491729736,-0.02911495603621006
1772537518353643300,2.794643310546875,0.8715295195579529,1.2179173231124878,-0.07565948367118835
1772537518363710200,2.804710205078125,0.8724374175071716,1.1990370750427246,-0.09930889308452606
1772537518373778200,2.814778076171875,0.8686869144439697,1.1719447374343872,-0.09930453449487686
1772537518383846100,2.82484619140625,0.873366117477417,1.161582112312317,-0.08231808990240097
1772537518393913000,2.8349130859375,0.8937138915061951,1.170609712600708,-0.04721774533390999
1772537518403981300,2.844981201171875,0.9085631370544434,1.1820911169052124,0.0005479119718074799
1772537518414049000,2.855049072265625,0.9133670330047607,1.1922354698181152,0.06115412339568138
1772537518424116200,2.8651162109375,0.9086284637451172,1.1839290857315063,0.1273118406534195
1772537518434184200,2.87518408203125,0.8895576596260071,1.1582916975021362,0.1932315230369568
1772537518444251100,2.885251220703125,0.870353639125824,1.1305543184280396,0.2316335141658783
1772537518454319400,2.8953193359375,0.8576382398605347,1.126002311706543,0.23633858561515808
1772537518464387000,2.905386962890625,0.8489333987236023,1.1329900026321411,0.21627859771251678
1772537518474454300,2.915454345703125,0.8333538770675659,1.1344521045684814,0.18171940743923187
1772537518484522000,2.92552197265625,0.8136542439460754,1.129947304725647,0.15275512635707855
1772537518494590000,2.93558984375,0.7925804853439331,1.1190755367279053,0.12081753462553024
1772537518504657200,2.9456572265625,0.7659600377082825,1.1070882081985474,0.10901680588722229
1772537518514725000,2.95572509765625,0.7343078851699829,1.1038483381271362,0.11349252611398697
1772537518524793000,2.96579296875,0.6990731954574585,1.1070019006729126,0.12997883558273315
1772537518534860000,2.975860107421875,0.6634306311607361,1.0990697145462036,0.1560060828924179
1772537518544928000,2.985927978515625,0.6201624870300293,1.0814597606658936,0.1824187934398651
1772537518554996200,2.995996337890625,0.5912005305290222,1.0709519386291504,0.19890768826007843
1772537518565063200,3.006063232421875,0.5730857253074646,1.0773773193359375,0.1936918944120407
1772537518575131100,3.016131103515625,0.5619070529937744,1.0809310674667358,0.1704016923904419
1772537518585198000,3.026197998046875,0.5408318638801575,1.07697331905365,0.1349686086177826
1772537518595266000,3.03626611328125,0.5162201523780823,1.0744330883026123,0.1116400957107544
1772537518605334000,3.046333984375,0.48872700333595276,1.0753364562988281,0.10000421106815338
1772537518615401200,3.056401123046875,0.47398337721824646,1.054459571838379,0.10434266179800034
1772537518625469200,3.06646923828125,0.45438170433044434,1.0275144577026367,0.12813694775104523
1772537518635537200,3.076537109375,0.42686954140663147,0.9901145100593567,0.1562509387731552
1772537518645604000,3.08660400390625,0.4026278257369995,0.9559213519096375,0.19225634634494781
1772537518655672000,3.096672119140625,0.36372512578964233,0.9379801154136658,0.2188318818807602
1772537518665740300,3.106740234375,0.33705756068229675,0.9093351364135742,0.2257092297077179
1772537518675807200,3.11680712890625,0.3188864588737488,0.8706709742546082,0.21417799592018127
1772537518685875200,3.126875244140625,0.31003808975219727,0.8245719075202942,0.18517988920211792
1772537518695943200,3.136943115234375,0.31584593653678894,0.7801469564437866,0.13935412466526031
1772537518706010000,3.147010009765625,0.3276362717151642,0.7413548231124878,0.08534202724695206
1772537518716078000,3.157078125,0.3485093116760254,0.6977325677871704,0.040411703288555145
1772537518726145300,3.167145263671875,0.37391266226768494,0.6615894436836243,0.005897132214158773
1772537518736213200,3.177213134765625,0.4010593891143799,0.6376420855522156,-0.003894723951816559
1772537518746281200,3.18728125,0.4248368740081787,0.6178931593894958,0.0016015078872442245
1772537518756348200,3.19734814453125,0.4383106827735901,0.6280651092529297,0.019731296226382256
1772537518766416100,3.207416015625,0.4575778543949127,0.6325805187225342,0.05765071511268616
1772537518776484400,3.217484375,0.4704691171646118,0.6226734519004822,0.11865715682506561
1772537518786551300,3.22755126953125,0.47182440757751465,0.5988903641700745,0.21257300674915314
1772537518796619300,3.237619384765625,0.45424678921699524,0.5506865382194519,0.33444318175315857
1772537518806687200,3.247687255859375,0.4046885669231415,0.506970226764679,0.46668457984924316
1772537518816754200,3.257754150390625,0.3252810537815094,0.4892271161079407,0.5884403586387634
1772537518826822100,3.267822265625,0.21915303170681,0.5238375663757324,0.6801077127456665
1772537518836890000,3.27789013671875,0.103416807949543,0.6196638941764832,0.7169845104217529
1772537518846957300,3.287957275390625,-0.0065219406969845295,0.736467719078064,0.7014263272285461
1772537518857025000,3.29802490234375,-0.0712633803486824,0.8255713582038879,0.644842803478241
1772537518867092200,3.30809228515625,-0.08489450812339783,0.8907479643821716,0.5676414370536804
1772537518877160200,3.31816015625,-0.06948753446340561,0.9058424234390259,0.4896950125694275
1772537518887228200,3.328228271484375,-0.03248903155326843,0.8752315044403076,0.4241865575313568
1772537518897295400,3.33829541015625,0.012280035763978958,0.812338650226593,0.37305524945259094
1772537518907363000,3.348363037109375,0.05923955515027046,0.7094692587852478,0.3249436318874359
1772537518917431000,3.35843115234375,0.09895036369562149,0.5971449017524719,0.2846767008304596
1772537518927498000,3.368498046875,0.12744352221488953,0.4917133152484894,0.25126734375953674
1772537518937566000,3.37856591796875,0.14028747379779816,0.40366291999816895,0.21089982986450195
1772537518947634200,3.38863427734375,0.1628977209329605,0.34814906120300293,0.15951120853424072
1772537518957701000,3.398701171875,0.2028196007013321,0.3291935622692108,0.1032598689198494
1772537518967769000,3.40876904296875,0.24278219044208527,0.3342892527580261,0.041896916925907135
1772537518977837000,3.418837158203125,0.2860741913318634,0.3570191264152527,-0.013871373608708382
1772537518987904000,3.428904052734375,0.32781311869621277,0.4006371796131134,-0.05849370360374451
1772537518997972200,3.43897216796875,0.3654910922050476,0.4634663462638855,-0.07660011947154999
1772537519008040200,3.449040283203125,0.38668718934059143,0.5069394707679749,-0.05759766697883606
1772537519018107100,3.459107177734375,0.4004114270210266,0.5069056749343872,-0.012360869906842709
1772537519028175000,3.469175048828125,0.4114885926246643,0.5103667378425598,0.047977838665246964
1772537519038242000,3.479241943359375,0.4222676455974579,0.5261615514755249,0.09990470856428146
1772537519048310000,3.48931005859375,0.4425731897354126,0.5434255003929138,0.13629600405693054
1772537519058378200,3.499378173828125,0.4718002378940582,0.5465964674949646,0.15934619307518005
1772537519068445200,3.509445068359375,0.5035626888275146,0.532223105430603,0.1746460497379303
1772537519078513200,3.51951318359375,0.5307891368865967,0.49496352672576904,0.18448509275913239
1772537519088581000,3.5295810546875,0.5343835949897766,0.44772571325302124,0.20241029560565948
1772537519098648000,3.53964794921875,0.5176092386245728,0.3970799446105957,0.21899080276489258
1772537519108716300,3.54971630859375,0.4950355291366577,0.365710586309433,0.22611474990844727
1772537519118784300,3.5597841796875,0.46159613132476807,0.35414841771125793,0.21396136283874512
1772537519128851200,3.569851318359375,0.42565038800239563,0.35856395959854126,0.18884669244289398
1772537519138919200,3.579919189453125,0.37662622332572937,0.38399040699005127,0.1349146068096161
1772537519148987100,3.589987060546875,0.33301642537117004,0.4165368974208832,0.0687936395406723
1772537519159054000,3.60005419921875,0.2950696647167206,0.4622831642627716,0.013409222476184368
1772537519169122300,3.610122314453125,0.27145513892173767,0.5001610517501831,-0.028822120279073715
1772537519179189200,3.620189208984375,0.2481003701686859,0.53386390209198,-0.0472552627325058
1772537519189257200,3.63025732421875,0.22455988824367523,0.551203727722168,-0.05934308096766472
1772537519199325200,3.6403251953125,0.2053663730621338,0.5713486075401306,-0.05164239928126335
1772537519209392000,3.65039208984375,0.19067424535751343,0.5851736068725586,-0.03105136752128601
1772537519219460000,3.660460205078125,0.18321432173252106,0.5728840827941895,-0.007748513016849756
1772537519229528000,3.670528076171875,0.18563620746135712,0.5536262392997742,0.011392158456146717
1772537519239595300,3.68059521484375,0.18812012672424316,0.5412790179252625,0.015544825233519077
1772537519249663200,3.690663330078125,0.19467683136463165,0.5318969488143921,-0.0019670564215630293
1772537519259731000,3.70073095703125,0.2081838846206665,0.5336133241653442,-0.03441176563501358
1772537519269798100,3.710798095703125,0.21316425502300262,0.526909351348877,-0.07089973986148834
1772537519279866000,3.7208662109375,0.2157568782567978,0.5049689412117004,-0.10768171399831772
1772537519289934000,3.73093408203125,0.21521678566932678,0.4585586190223694,-0.1268511414527893
1772537519300001000,3.7410009765625,0.21731068193912506,0.40702304244041443,-0.13276511430740356
1772537519310069000,3.751069091796875,0.22344660758972168,0.37517881393432617,-0.11956995725631714
1772537519320136200,3.76113623046875,0.22813451290130615,0.3595726788043976,-0.0939655750989914
1772537519330204000,3.771203857421875,0.2228771597146988,0.3704735338687897,-0.0736219584941864
1772537519340272000,3.781272216796875,0.2124062031507492,0.39281991124153137,-0.0627250000834465
1772537519350339000,3.791339111328125,0.1875905990600586,0.4223490357398987,-0.05815261974930763
1772537519360407000,3.801406982421875,0.15171030163764954,0.46298694610595703,-0.047642286866903305
1772537519370475000,3.81147509765625,0.11857818812131882,0.5138229131698608,-0.029475800693035126
1772537519380542000,3.8215419921875,0.11086156219244003,0.529140293598175,-0.004876867868006229
1772537519390610200,3.831610107421875,0.1399720460176468,0.5063337683677673,0.012373225763440132
1772537519400678100,3.84167822265625,0.18877984583377838,0.4586653411388397,0.0380522795021534
1772537519410745000,3.8517451171875,0.21994948387145996,0.37373021245002747,0.06914175301790237
1772537519420813000,3.86181298828125,0.23161712288856506,0.29608476161956787,0.09656362235546112
1772537519430881000,3.871881103515625,0.2381160408258438,0.23871095478534698,0.11912805587053299
1772537519440948000,3.881947998046875,0.24040523171424866,0.19849371910095215,0.12211419641971588
1772537519451016200,3.89201611328125,0.2533615231513977,0.18541201949119568,0.12444793432950974
1772537519461083100,3.902083251953125,0.27152568101882935,0.1875939667224884,0.12211812287569046
1772537519471151000,3.912151123046875,0.2741299867630005,0.18693137168884277,0.1363268792629242
1772537519481219000,3.922218994140625,0.25706931948661804,0.1695103794336319,0.16170823574066162
1772537519491286000,3.9322861328125,0.21685291826725006,0.12797199189662933,0.19309279322624207
1772537519501354200,3.942354248046875,0.17452850937843323,0.0577104277908802,0.1993006467819214
1772537519511422200,3.952422119140625,0.12871840596199036,-0.012276910245418549,0.18306414783000946
1772537519521489200,3.9624892578125,0.08840416371822357,-0.05855022743344307,0.1421506553888321
1772537519531557000,3.97255712890625,0.0704488605260849,-0.07484957575798035,0.0741090178489685
1772537519541625000,3.982625,0.06978996098041534,-0.06156731769442558,0.00015290011651813984
1772537519551692000,3.992692138671875,0.07346273213624954,-0.03226828575134277,-0.06846583634614944
1772537519561760300,4.00276025390625,0.08762690424919128,0.009117860347032547,-0.12586094439029694
1772537519571828200,4.012828125,0.09802921116352081,0.07482496649026871,-0.1553402692079544
1772537519581895200,4.022895263671875,0.09239304065704346,0.1485593169927597,-0.15812070667743683
1772537519591963100,4.032963134765625,0.10138573497533798,0.2159455567598343,-0.1461884081363678
1772537519602030000,4.043030029296875,0.12059123814105988,0.26651912927627563,-0.11515627056360245
1772537519612098300,4.053098388671875,0.16077275574207306,0.25564730167388916,-0.08138871937990189
1772537519622166300,4.063166259765625,0.199430450797081,0.16773846745491028,-0.04511379823088646
1772537519632233200,4.073233154296875,0.216374009847641,0.00966760516166687,-0.024762451648712158
1772537519642301200,4.08330126953125,0.22981789708137512,-0.1407041847705841,-0.023668961599469185
1772537519652369000,4.093368896484375,0.2508443593978882,-0.24130749702453613,-0.04026977717876434
1772537519662436000,4.10343603515625,0.27143770456314087,-0.3169531524181366,-0.0939616784453392
1772537519672504000,4.113504150390625,0.2773893475532532,-0.36772018671035767,-0.18063266575336456
1772537519682572000,4.123572021484375,0.28913581371307373,-0.3844496011734009,-0.3028421401977539
1772537519692639200,4.13363916015625,0.2953718602657318,-0.3310239315032959,-0.42822375893592834
1772537519702707000,4.14370703125,0.29385313391685486,-0.21066439151763916,-0.5187950730323792
1772537519712775000,4.15377490234375,0.2842548191547394,-0.05870068445801735,-0.5383163094520569
1772537519722842000,4.163842041015625,0.26592135429382324,0.062302738428115845,-0.4775210916996002
1772537519732910000,4.17391015625,0.269416481256485,0.11885576695203781,-0.3529530465602875
1772537519742977000,4.18397705078125,0.294615238904953,0.08852940797805786,-0.19537334144115448
1772537519753045000,4.194044921875,0.30520716309547424,0.0028744260780513287,-0.023410901427268982
1772537519763113000,4.204113037109375,0.29004350304603577,-0.09537827968597412,0.1417425125837326
1772537519773180000,4.214179931640625,0.257407009601593,-0.17010150849819183,0.2744513154029846
1772537519783248100,4.224248046875,0.22651992738246918,-0.21149156987667084,0.35171812772750854
1772537519793316000,4.234316162109375,0.18306957185268402,-0.2206520140171051,0.36928683519363403
1772537519803383000,4.244383056640625,0.12870080769062042,-0.21856771409511566,0.32614558935165405
1772537519813451000,4.254450927734375,0.09777218103408813,-0.22433479130268097,0.2141798883676529
1772537519823519000,4.26451904296875,0.08529455959796906,-0.20010556280612946,0.03893135488033295
1772537519833586200,4.274586181640625,0.09291226416826248,-0.1209806501865387,-0.16070611774921417
1772537519843654100,4.284654052734375,0.10258554667234421,-0.025508280843496323,-0.35905131697654724
1772537519853721000,4.29472119140625,0.0998813733458519,0.04062493145465851,-0.5244408249855042
1772537519863789000,4.3047890625,0.07833962887525558,0.07975345849990845,-0.6205317378044128
1772537519873857000,4.31485693359375,0.04844750836491585,0.08627340942621231,-0.6468619108200073
1772537519883924000,4.324924072265625,0.017579548060894012,0.06973675638437271,-0.618863046169281
1772537519893992200,4.3349921875,0.00030362349934875965,0.01146944984793663,-0.5505409836769104
1772537519904060200,4.34506005859375,0.0021751150488853455,-0.0867404118180275,-0.47566092014312744
1772537519914127000,4.355127197265625,0.021599413827061653,-0.17935477197170258,-0.42117932438850403
1772537519924195000,4.365195068359375,0.06529007852077484,-0.258960485458374,-0.39910969138145447
1772537519934263000,4.375262939453125,0.11515750735998154,-0.2866480350494385,-0.39848387241363525
1772537519944330200,4.385330322265625,0.1621110439300537,-0.24004866182804108,-0.4046662747859955
1772537519954398200,4.395398193359375,0.18585605919361115,-0.15747496485710144,-0.39275261759757996
1772537519964466200,4.405466064453125,0.17787952721118927,-0.07267393171787262,-0.34706777334213257
1772537519974533000,4.415533203125,0.15019917488098145,-0.0005371575243771076,-0.2666730582714081
1772537519984601000,4.42560107421875,0.11574603617191315,0.05445469915866852,-0.16461531817913055
1772537519994669300,4.43566943359375,0.07420019060373306,0.09290648251771927,-0.043831903487443924
1772537520004736300,4.445736328125,0.031338535249233246,0.1101185604929924,0.09286558628082275
1772537520014804200,4.45580419921875,0.006267802324146032,0.11809685826301575,0.21905280649662018
1772537520024871200,4.46587109375,0.004569357726722956,0.0981491208076477,0.3133619427680969
1772537520034939100,4.475939208984375,0.010818731971085072,0.08332756906747818,0.38125231862068176
1772537520045007000,4.486007080078125,0.027712373062968254,0.10382258147001266,0.42211538553237915
1772537520055074300,4.49607421875,0.05424917861819267,0.15446312725543976,0.44682952761650085
1772537520065142300,4.506142333984375,0.08148413896560669,0.20823167264461517,0.4473923146724701
1772537520075210000,4.5162099609375,0.10801748186349869,0.24603284895420074,0.4267866611480713
1772537520085277200,4.526277099609375,0.14493951201438904,0.23614418506622314,0.39130136370658875
1772537520095345000,4.536344970703125,0.1832301765680313,0.19517625868320465,0.34628328680992126
1772537520105413000,4.5464130859375,0.21346977353096008,0.1291595846414566,0.2957212030887604
1772537520115480000,4.55647998046875,0.2314506471157074,0.05323605239391327,0.24096712470054626
1772537520125548000,4.566548095703125,0.25793367624282837,-0.01258857175707817,0.17644521594047546
1772537520135615200,4.576615234375,0.3006316125392914,-0.053288064897060394,0.10042821615934372
1772537520145683000,4.586682861328125,0.3310392498970032,-0.0637543573975563,0.028818916529417038
1772537520155751000,4.5967509765625,0.3310547173023224,-0.029587864875793457,-0.01304730772972107
1772537520165818000,4.606818115234375,0.3098982870578766,0.03819536790251732,-0.027262547984719276
1772537520175886000,4.616885986328125,0.27943146228790283,0.10118605196475983,-0.01758595183491707
1772537520185954000,4.6269541015625,0.2606920897960663,0.1642552614212036,0.01152860838919878
1772537520196021000,4.63702099609375,0.2557189166545868,0.23431184887886047,0.050294648855924606
1772537520206089000,4.6470888671875,0.25322893261909485,0.29791679978370667,0.10427005589008331
1772537520216157000,4.657156982421875,0.2207152098417282,0.3573228716850281,0.17010179162025452
1772537520226223900,4.667223876953125,0.15570718050003052,0.4055219888687134,0.2486007958650589
1772537520236292000,4.6772919921875,0.08116556704044342,0.4270278215408325,0.31557872891426086
1772537520246360000,4.687360107421875,0.002806432545185089,0.4326784014701843,0.3603014051914215
1772537520256427000,4.697427001953125,-0.06718117743730545,0.44235312938690186,0.3662431836128235
1772537520266495000,4.707494873046875,-0.11535346508026123,0.47857436537742615,0.3318639099597931
1772537520276563000,4.71756298828125,-0.12473791092634201,0.5272814035415649,0.2533712387084961
1772537520286630000,4.7276298828125,-0.10114967077970505,0.5863251090049744,0.1399298757314682
1772537520296698000,4.737697998046875,-0.050652410835027695,0.6360617876052856,0.018096905201673508
1772537520306765000,4.74776513671875,0.007195824757218361,0.6800823211669922,-0.08956735581159592
1772537520316833000,4.7578330078125,0.0858626738190651,0.7084561586380005,-0.15546034276485443
1772537520326901000,4.76790087890625,0.17166170477867126,0.6928858757019043,-0.1623302400112152
1772537520336968000,4.777968017578125,0.2535480558872223,0.6373012065887451,-0.112254299223423
1772537520347036200,4.7880361328125,0.32620760798454285,0.562027633190155,-0.023736508563160896
1772537520357104000,4.798104248046875,0.39174801111221313,0.4776104986667633,0.07993236184120178
1772537520367171000,4.808171142578125,0.450641393661499,0.4112747609615326,0.1680547595024109
1772537520377239000,4.818239013671875,0.5079741477966309,0.3934742212295532,0.2328910231590271
1772537520387307000,4.82830712890625,0.5544964075088501,0.4381439685821533,0.26756051182746887
1772537520397374000,4.8383740234375,0.5977940559387207,0.551437258720398,0.2926434874534607
1772537520407442200,4.848442138671875,0.6256088614463806,0.668100893497467,0.32635021209716797
1772537520417510100,4.85851025390625,0.6340039372444153,0.7625557780265808,0.3552455008029938
1772537520427577000,4.8685771484375,0.6280852556228638,0.8585839867591858,0.38234156370162964
1772537520437645000,4.87864501953125,0.612751305103302,0.9551693797111511,0.40463513135910034
1772537520447712000,4.8887119140625,0.5994370579719543,1.0132659673690796,0.423371821641922
1772537520457780200,4.8987802734375,0.584962010383606,1.0270392894744873,0.4276464581489563
1772537520467848000,4.908847900390625,0.572780191898346,1.02938973903656,0.40724092721939087
1772537520477915100,4.9189150390625,0.5711500644683838,1.0392190217971802,0.36378106474876404
1772537520487983000,4.928983154296875,0.583195686340332,1.0538238286972046,0.3009372055530548
1772537520498050800,4.93905078125,0.603897213935852,1.0695947408676147,0.23553745448589325
1772537520508118000,4.949117919921875,0.610454797744751,1.0954116582870483,0.18432092666625977
1772537520518186000,4.95918603515625,0.6074392795562744,1.152754306793213,0.14656555652618408
1772537520528254000,4.96925390625,0.6092060804367065,1.2125574350357056,0.12779581546783447
1772537520538321000,4.97932080078125,0.6137086749076843,1.2454999685287476,0.12484903633594513
1772537520548388900,4.989388916015625,0.6399723291397095,1.2581290006637573,0.13218018412590027
1772537520558457000,4.99945703125,0.6787788271903992,1.2480473518371582,0.1500827521085739
1772537520568524000,5.00952392578125,0.7280259132385254,1.222639560699463,0.1686287224292755
1772537520578592000,5.019592041015625,0.7784392833709717,1.1891090869903564,0.1864980012178421
1772537520588659000,5.029658935546875,0.83070307970047,1.1558823585510254,0.20562243461608887
1772537520598727000,5.039726806640625,0.886950671672821,1.1288679838180542,0.23430894315242767
1772537520608795000,5.049794921875,0.9235249161720276,1.1113276481628418,0.2682131230831146
1772537520618861800,5.05986181640625,0.9353006482124329,1.1055150032043457,0.30692002177238464
1772537520628930000,5.069929931640625,0.9260576963424683,1.1242846250534058,0.35562682151794434
1772537520638998000,5.079998046875,0.8959439992904663,1.1604740619659424,0.3964725136756897
1772537520649065000,5.09006494140625,0.8585667014122009,1.2042194604873657,0.42207956314086914
1772537520659133000,5.1001328125,0.8245000839233398,1.25263512134552,0.4301747679710388
1772537520669201200,5.110201171875,0.8002650737762451,1.2998230457305908,0.4223659038543701
1772537520679268000,5.12026806640625,0.7792292833328247,1.3345905542373657,0.4088948369026184
1772537520689336000,5.130336181640625,0.7644485831260681,1.3649641275405884,0.4034072756767273
1772537520699404000,5.140404052734375,0.7475239038467407,1.400989294052124,0.3946760892868042
1772537520709471000,5.150470947265625,0.7290328741073608,1.4479445219039917,0.38460248708724976
1772537520719539000,5.1605390625,0.7001453042030334,1.4941130876541138,0.37565985321998596
1772537520729606000,5.17060595703125,0.6632261276245117,1.5253846645355225,0.3723655939102173
1772537520739674000,5.180674072265625,0.6175203919410706,1.5551108121871948,0.3547658324241638
1772537520749742000,5.1907421875,0.579888641834259,1.6039342880249023,0.33269307017326355
1772537520759809000,5.20080908203125,0.5550218820571899,1.6455988883972168,0.3092343509197235
1772537520769877000,5.210876953125,0.5533972382545471,1.6580225229263306,0.27718114852905273
1772537520779945200,5.2209453125,0.5704728960990906,1.6239734888076782,0.23930461704730988
1772537520790012200,5.23101220703125,0.5969213843345642,1.5638127326965332,0.2030438631772995
1772537520800080100,5.241080078125,0.6114801168441772,1.4817426204681396,0.17217117547988892
1772537520810148000,5.251148193359375,0.6279996633529663,1.4052666425704956,0.15327608585357666
1772537520820215000,5.261215087890625,0.6357425451278687,1.3732898235321045,0.1368374526500702
1772537520830283000,5.271282958984375,0.6380727887153625,1.3728259801864624,0.14195369184017181
1772537520840351200,5.281351318359375,0.6333171725273132,1.404099941253662,0.1758621335029602
1772537520850418200,5.291418212890625,0.6121020913124084,1.4509209394454956,0.22949063777923584
1772537520860486100,5.301486083984375,0.576268196105957,1.4857462644577026,0.3027651011943817
1772537520870553000,5.311552978515625,0.5459634065628052,1.5230270624160767,0.36828067898750305
1772537520880621000,5.32162109375,0.529761791229248,1.5460991859436035,0.4148806929588318
1772537520890689000,5.33168896484375,0.5344484448432922,1.5439339876174927,0.4265730082988739
1772537520900756200,5.341756103515625,0.5570855140686035,1.5025097131729126,0.4040064215660095
1772537520910824000,5.351823974609375,0.5886096358299255,1.4295670986175537,0.35471534729003906
1772537520920891100,5.36189111328125,0.6202572584152222,1.3455857038497925,0.2949553430080414
1772537520930959000,5.371958984375,0.6491052508354187,1.2877705097198486,0.25061917304992676
1772537520941026000,5.382026123046875,0.6597142219543457,1.2666449546813965,0.22838737070560455
1772537520951094000,5.392093994140625,0.6487736105918884,1.264702320098877,0.23431065678596497
1772537520961162000,5.402161865234375,0.6352551579475403,1.2796543836593628,0.24750183522701263
1772537520971229200,5.412229248046875,0.6306948065757751,1.305161714553833,0.25667014718055725
1772537520981297000,5.422296875,0.6361244916915894,1.314502477645874,0.2603793740272522
1772537520991364900,5.43236474609375,0.6490606665611267,1.292460560798645,0.2585946321487427
1772537521001432000,5.44243212890625,0.6725838780403137,1.2407785654067993,0.2612660527229309
1772537521011500000,5.4525,0.6995040774345398,1.1595966815948486,0.27725210785865784
1772537521021568000,5.462568115234375,0.7353180050849915,1.0559022426605225,0.2980785667896271
1772537521031635000,5.472635009765625,0.7597386837005615,0.95328688621521,0.3279029428958893
1772537521041703000,5.482702880859375,0.7890057563781738,0.8661413192749023,0.35929813981056213
1772537521051771000,5.49277099609375,0.8180118799209595,0.8193185329437256,0.3975038528442383
1772537521061837800,5.502837890625,0.8243845701217651,0.7952291369438171,0.4386635422706604
1772537521071906000,5.512906005859375,0.8118867874145508,0.7766717672348022,0.4643491804599762
1772537521081974000,5.52297412109375,0.7876989245414734,0.7583553194999695,0.48546695709228516
1772537521092041000,5.533041015625,0.7465595006942749,0.7434518933296204,0.49062496423721313
1772537521102109000,5.54310888671875,0.6946315765380859,0.7549266219139099,0.4766164720058441
1772537521112175900,5.55317578125,0.6447768807411194,0.769088089466095,0.443621963262558
1772537521122244000,5.563244140625,0.5893884301185608,0.7861336469650269,0.3857954144477844
1772537521132312000,5.57331201171875,0.521895170211792,0.8317883014678955,0.31545665860176086
1772537521142379000,5.58337890625,0.4540620744228363,0.9207456111907959,0.23121501505374908
1772537521152447000,5.593447021484375,0.4002397060394287,1.021498680114746,0.13495758175849915
1772537521162515000,5.603514892578125,0.36707666516304016,1.1001007556915283,0.05101393163204193
1772537521172582000,5.613581787109375,0.3451312780380249,1.1533236503601074,-0.01561629306524992
1772537521182650000,5.623650146484375,0.32906416058540344,1.1655470132827759,-0.054056357592344284
1772537521192718000,5.633718017578125,0.3199576735496521,1.1367404460906982,-0.06408441811800003
1772537521202785000,5.643784912109375,0.3198663294315338,1.0773274898529053,-0.053761474788188934
1772537521212853000,5.65385302734375,0.32863882184028625,0.9848473072052002,-0.024095136672258377
1772537521222921700,5.663921630859375,0.35002535581588745,0.8707196712493896,-0.0008854209445416927
1772537521232988700,5.67398876953125,0.3698183298110962,0.7826897501945496,0.027766432613134384
1772537521243056600,5.684056640625,0.38497596979141235,0.7355722784996033,0.03882760927081108
1772537521253123600,5.69412353515625,0.394330233335495,0.7070830464363098,0.04003431648015976
1772537521263191800,5.70419189453125,0.4015252888202667,0.6948093175888062,0.03312873840332031
1772537521273259500,5.714259521484375,0.39876067638397217,0.6909000277519226,0.01823323406279087
1772537521283327500,5.724327392578125,0.3887501358985901,0.6837928295135498,0.0028489527758210897
1772537521293395500,5.7343955078125,0.37767186760902405,0.6611181497573853,0.011149974539875984
1772537521303463700,5.744463623046875,0.3634527027606964,0.62153559923172,0.032681096345186234
1772537521313530600,5.754530517578125,0.34483322501182556,0.5671916604042053,0.061695441603660583
1772537521323598600,5.7645986328125,0.31345000863075256,0.5005521774291992,0.09900392591953278
1772537521333665500,5.77466552734375,0.2729994058609009,0.43581122159957886,0.14818735420703888
1772537521343733500,5.7847333984375,0.23615215718746185,0.4013312757015228,0.18749400973320007
1772537521353801500,5.794801513671875,0.21035675704479218,0.3951563835144043,0.2164388746023178
1772537521363868700,5.80486865234375,0.1875731498003006,0.40096554160118103,0.22474581003189087
1772537521373936600,5.8149365234375,0.1577235460281372,0.41885340213775635,0.23502351343631744
1772537521384004600,5.825004638671875,0.12296077609062195,0.431023508310318,0.24938994646072388
1772537521394071600,5.835071533203125,0.08597443997859955,0.41388997435569763,0.2584278881549835
1772537521404139500,5.845139404296875,0.03906312212347984,0.39447125792503357,0.25974056124687195
1772537521414207700,5.855207763671875,-0.0133015476167202,0.4045225977897644,0.2510853409767151
1772537521424274700,5.865274658203125,-0.05114186927676201,0.43174436688423157,0.21743789315223694
1772537521434342700,5.8753427734375,-0.06224340572953224,0.42318353056907654,0.1627412885427475
1772537521444410600,5.88541064453125,-0.05607232823967934,0.37373313307762146,0.09380296617746353
1772537521454477600,5.8954775390625,-0.04352155700325966,0.31957411766052246,0.021397219970822334
1772537521464545500,5.905545654296875,-0.03992629051208496,0.2668358087539673,-0.049014631658792496
1772537521474612700,5.91561279296875,-0.039622604846954346,0.21516944468021393,-0.10540207475423813
1772537521484680700,5.9256806640625,-0.03627501055598259,0.16658620536327362,-0.1537858545780182
1772537521494748700,5.935748779296875,-0.03834499791264534,0.12505292892456055,-0.190818190574646
1772537521504815600,5.945815673828125,-0.035246144980192184,0.11496487259864807,-0.2194969803094864
1772537521514883600,5.955883544921875,-0.03928970918059349,0.1596219539642334,-0.2345883846282959
1772537521524951800,5.965951904296875,-0.052502185106277466,0.23939800262451172,-0.22876006364822388
1772537521535018800,5.976018798828125,-0.06936786323785782,0.3204541802406311,-0.20057366788387299
1772537521545086700,5.986086669921875,-0.06537126004695892,0.4025479853153229,-0.151500403881073
1772537521555154700,5.99615478515625,-0.05407078564167023,0.44157010316848755,-0.0828099474310875
1772537521565221600,6.0062216796875,-0.035579126328229904,0.4452439248561859,0.006187836639583111
1772537521575289600,6.01628955078125,-0.011445030570030212,0.42959117889404297,0.11164470762014389
1772537521585357600,6.026357666015625,0.004176540300250053,0.3881766200065613,0.22035041451454163
1772537521595424800,6.0364248046875,0.0026535375509411097,0.33192726969718933,0.3177274465560913
1772537521605492500,6.046492431640625,-0.004472549073398113,0.28687912225723267,0.3957807123661041
1772537521615559700,6.0565595703125,-0.009726935997605324,0.24618712067604065,0.4194478690624237
1772537521625627400,6.06662744140625,-0.016120387241244316,0.2084040641784668,0.3800913989543915
1772537521635695600,6.076695556640625,-0.013708687387406826,0.18478649854660034,0.2917121350765228
1772537521645762600,6.086762451171875,-0.005915212910622358,0.1647142469882965,0.17090527713298798
1772537521655830500,6.09683056640625,0.014396214857697487,0.1549798548221588,0.03240692988038063
1772537521665898500,6.1068984375,0.04235301539301872,0.1326569765806198,-0.10732779651880264
1772537521675965400,6.11696533203125,0.06859657168388367,0.09492619335651398,-0.22492584586143494
1772537521686033700,6.12703369140625,0.09811478853225708,0.07358575612306595,-0.3038177192211151
1772537521696101600,6.1371015625,0.12185796350240707,0.07396266609430313,-0.3348585069179535
1772537521706168600,6.14716845703125,0.13938768208026886,0.08366216719150543,-0.32789912819862366
1772537521716236500,6.157236572265625,0.15745720267295837,0.09257743507623672,-0.28203776478767395
1772537521726304500,6.167304443359375,0.19005055725574493,0.10364313423633575,-0.21982122957706451
1772537521736371500,6.177371337890625,0.22900813817977905,0.1067165732383728,-0.14715643227100372
1772537521746439700,6.187439697265625,0.2617224156856537,0.11237392574548721,-0.07199297100305557
1772537521756507600,6.197507568359375,0.28773918747901917,0.1301671266555786,0.0037505407817661762
1772537521766574600,6.20757470703125,0.2932239770889282,0.15010328590869904,0.07707428932189941
1772537521776642600,6.217642578125,0.28268253803253174,0.14851032197475433,0.14315910637378693
1772537521786709500,6.22770947265625,0.26123395562171936,0.12719731032848358,0.18638673424720764
1772537521796777700,6.23777783203125,0.24347111582756042,0.10157733410596848,0.20846939086914062
1772537521806845700,6.247845703125,0.22519783675670624,0.0722772404551506,0.2083817720413208
1772537521816912600,6.25791259765625,0.20318536460399628,0.03564829006791115,0.19017012417316437
1772537521826980600,6.267980712890625,0.16795387864112854,0.006454185117036104,0.14763836562633514
1772537521837048600,6.278048583984375,0.14059258997440338,0.007905561476945877,0.09551560133695602
1772537521847115500,6.288115478515625,0.10732464492321014,0.03019728511571884,0.03514866903424263
1772537521857183700,6.298183837890625,0.08820655196905136,0.06443600356578827,-0.0319211445748806
1772537521867251700,6.308251708984375,0.0772247463464737,0.11382352560758591,-0.09799736738204956
1772537521877318700,6.318318603515625,0.07916289567947388,0.16946129500865936,-0.15328176319599152
1772537521887386600,6.32838671875,0.09454238414764404,0.23521848022937775,-0.19086375832557678
1772537521897454600,6.33845458984375,0.11250703781843185,0.3042375445365906,-0.19940167665481567
1772537521907521800,6.348521728515625,0.1345582753419876,0.3430882692337036,-0.18639665842056274
1772537521917589800,6.35858984375,0.1646866798400879,0.3605470359325409,-0.15245342254638672
1772537521927656700,6.36865673828125,0.19428957998752594,0.35279881954193115,-0.0996522530913353
1772537521937724700,6.378724609375,0.22602862119674683,0.3393862545490265,-0.04298705980181694
1772537521947792600,6.388792724609375,0.25965315103530884,0.31309181451797485,0.00018224609084427357
1772537521957859600,6.398859619140625,0.2933691740036011,0.27329978346824646,0.02254927158355713
1772537521967927800,6.408927734375,0.3335554599761963,0.25302115082740784,0.026913393288850784
1772537521977995500,6.41899560546875,0.3597429692745209,0.26401880383491516,0.017973488196730614
1772537521988062700,6.429062744140625,0.36741071939468384,0.28689563274383545,0.017128199338912964
1772537521998130400,6.43913037109375,0.3488399386405945,0.3081987798213959,0.02728269435465336
1772537522008198400,6.449198486328125,0.3156452476978302,0.3277381360530853,0.045913368463516235
1772537522018265600,6.459265625,0.28423425555229187,0.3563976585865021,0.06612635403871536
1772537522028333600,6.46933349609375,0.261581689119339,0.3911055624485016,0.07004386931657791
1772537522038401500,6.479401611328125,0.2516419589519501,0.4307429790496826,0.06328662484884262
1772537522048468500,6.489468505859375,0.251293420791626,0.4679050147533417,0.03542495146393776
1772537522058536400,6.499536376953125,0.2569107115268707,0.5010046362876892,0.006589777301996946
1772537522068604700,6.509604736328125,0.2635566294193268,0.5269665122032166,-0.021384332329034805
1772537522078671600,6.519671630859375,0.2674338221549988,0.5536920428276062,-0.04003677889704704
1772537522088739600,6.529739501953125,0.2731977105140686,0.5705211162567139,-0.04459904134273529
1772537522098806500,6.539806640625,0.27891284227371216,0.5857124328613281,-0.02853129245340824
1772537522108874500,6.54987451171875,0.2928617000579834,0.5879644155502319,-0.009801547043025494
1772537522118942500,6.5599423828125,0.31509265303611755,0.5937348008155823,0.003735816804692149
1772537522129009700,6.570009765625,0.34739652276039124,0.634096622467041,0.02239445596933365
1772537522139077600,6.58007763671875,0.3700523376464844,0.7123035788536072,0.03215064853429794
1772537522149145600,6.5901455078125,0.3808176517486572,0.8346550464630127,0.04276734218001366
1772537522159212500,6.600212646484375,0.3848363161087036,0.9705730080604553,0.05591261386871338
1772537522169280500,6.610280517578125,0.42185133695602417,1.0642555952072144,0.04661072790622711
1772537522179348700,6.6203486328125,0.4879816770553589,1.1233713626861572,0.02642672508955002
1772537522189415700,6.630415771484375,0.5497204065322876,1.1138585805892944,-0.0019439286552369595
1772537522199483600,6.640483642578125,0.5950531959533691,1.0406684875488281,-0.01908448338508606
1772537522209551600,6.650551513671875,0.6443360447883606,0.8999215364456177,-0.018271420150995255
1772537522219618000,6.6606181640625,0.6777502298355103,0.7338523864746094,-0.016287896782159805
1772537522229686000,6.67068603515625,0.7083621621131897,0.6217599511146545,-0.015397125855088234
1772537522239753000,6.6807529296875,0.7398836016654968,0.5849220156669617,0.002425238722935319
1772537522249821000,6.690821044921875,0.7363911271095276,0.6088393330574036,0.036901459097862244
1772537522259889200,6.70088916015625,0.6984326839447021,0.6937283277511597,0.08781670778989792
1772537522269956000,6.7109560546875,0.6315348744392395,0.8365206122398376,0.16287843883037567
1772537522280024000,6.721024169921875,0.545617401599884,1.0036386251449585,0.2592894434928894
1772537522290092000,6.731092041015625,0.46343621611595154,1.1457489728927612,0.3505229651927948
1772537522300159000,6.741158935546875,0.3930374085903168,1.2336505651474,0.41751828789711
1772537522310227000,6.75122705078125,0.35609376430511475,1.2861638069152832,0.45875227451324463
1772537522320295200,6.761295166015625,0.35153618454933167,1.2998079061508179,0.4802051782608032
1772537522330362000,6.771362060546875,0.36134594678878784,1.2656259536743164,0.4799135625362396
1772537522340430000,6.78143017578125,0.3911895751953125,1.2035516500473022,0.46593859791755676
1772537522350498000,6.791498046875,0.4263523817062378,1.1666560173034668,0.4594593942165375
1772537522360565000,6.80156494140625,0.469224750995636,1.1490803956985474,0.4600633978843689
1772537522370633200,6.81163330078125,0.5107616782188416,1.165563702583313,0.4472455084323883
1772537522380701200,6.821701171875,0.5548917651176453,1.2072583436965942,0.42786604166030884
1772537522390768000,6.83176806640625,0.6002541780471802,1.2482187747955322,0.40673011541366577
1772537522400836000,6.841836181640625,0.6440791487693787,1.2917739152908325,0.4029277265071869
1772537522410903000,6.851903076171875,0.6774789094924927,1.3374277353286743,0.4387054145336151
1772537522420971000,6.861970947265625,0.6964211463928223,1.3558179140090942,0.4853482246398926
1772537522431039000,6.8720390625,0.7120752334594727,1.3144619464874268,0.5206074714660645
1772537522441106200,6.882106201171875,0.7218232154846191,1.209442138671875,0.5369834899902344
1772537522451174100,6.892174072265625,0.7420485615730286,1.0938811302185059,0.520269513130188
1772537522461241900,6.902241943359375,0.7702448964118958,0.995292603969574,0.4594901502132416
1772537522471309000,6.91230908203125,0.8058100938796997,0.9033440351486206,0.35939258337020874
1772537522481377000,6.922376953125,0.8486083745956421,0.8139342665672302,0.242823988199234
1772537522491445000,6.932445068359375,0.8768970370292664,0.7107911109924316,0.11986130475997925
1772537522501512000,6.942511962890625,0.8878518342971802,0.6204975247383118,0.008806309662759304
1772537522511580000,6.952579833984375,0.8680062294006348,0.6110877990722656,-0.062114737927913666
1772537522521647000,6.962647216796875,0.8049006462097168,0.704683244228363,-0.0735313668847084
1772537522531714800,6.97271484375,0.7091400027275085,0.8833033442497253,-0.037548866122961044
1772537522541783000,6.982782958984375,0.6002777814865112,1.080142617225647,0.021187961101531982
1772537522551850000,6.99285009765625,0.5068636536598206,1.2339739799499512,0.09022774547338486
1772537522561918000,7.00291796875,0.44119083881378174,1.3064707517623901,0.1381700485944748
1772537522571986000,7.01298583984375,0.41255784034729004,1.329126000404358,0.13709306716918945
1772537522582052900,7.023052978515625,0.44394031167030334,1.322920322418213,0.09539306908845901
1772537522592121000,7.03312109375,0.514298677444458,1.2856637239456177,0.017833827063441277
1772537522602189000,7.04318896484375,0.5966863632202148,1.2060635089874268,-0.06470256298780441
1772537522612256000,7.053256103515625,0.668479323387146,1.0908828973770142,-0.1134093850851059
1772537522622324000,7.063323974609375,0.7118874788284302,0.9721347689628601,-0.10645130276679993
1772537522632392000,7.073391845703125,0.7335637211799622,0.8527106642723083,-0.06541172415018082
1772537522642459000,7.083458984375,0.7438251376152039,0.754901647567749,-0.0034096103627234697
1772537522652527000,7.093527099609375,0.7365925312042236,0.6887415647506714,0.058360546827316284
1772537522662595000,7.103594970703125,0.7223756909370422,0.6616404056549072,0.10221236944198608
1772537522672662000,7.113662109375,0.709761917591095,0.6753122806549072,0.12999339401721954
1772537522682730000,7.12372998046875,0.6961612105369568,0.7083746790885925,0.15303143858909607
1772537522692797000,7.133796875,0.6721245646476746,0.7213959693908691,0.17663557827472687
1772537522702865200,7.143865234375,0.6348893642425537,0.7212942838668823,0.20407608151435852
1772537522712933000,7.15393310546875,0.6005734801292419,0.726098895072937,0.22542370855808258
1772537522723000000,7.164,0.574679970741272,0.7379684448242188,0.24685756862163544
1772537522733068000,7.174068115234375,0.5517011880874634,0.7362461686134338,0.25469154119491577
1772537522743136000,7.184135986328125,0.5250533223152161,0.7207817435264587,0.2543796896934509
1772537522753203000,7.194202880859375,0.49982064962387085,0.7211620211601257,0.2632405459880829
1772537522763271200,7.204271240234375,0.4604923725128174,0.7433319687843323,0.2803938388824463
1772537522773339100,7.214339111328125,0.41420692205429077,0.7618249654769897,0.2988905608654022
1772537522783406000,7.224406005859375,0.36722826957702637,0.786745548248291,0.3280264735221863
1772537522793474000,7.23447412109375,0.32598817348480225,0.8075008988380432,0.3442770838737488
1772537522803542000,7.2445419921875,0.30925771594047546,0.8070358037948608,0.3613049387931824
1772537522813609200,7.254609130859375,0.30212923884391785,0.7984912991523743,0.377849280834198
1772537522823677200,7.26467724609375,0.2974703013896942,0.7920514345169067,0.40247759222984314
1772537522833744100,7.274744140625,0.3006117641925812,0.8049206137657166,0.43031615018844604
1772537522843812000,7.28481201171875,0.31097933650016785,0.7979720830917358,0.4472997784614563
1772537522853879800,7.2948798828125,0.3435750901699066,0.7559343576431274,0.438764363527298
1772537522863947000,7.304947021484375,0.3843632638454437,0.6351466774940491,0.3967841565608978
1772537522874015000,7.315014892578125,0.40781718492507935,0.4797491431236267,0.3318411111831665
1772537522884083000,7.3250830078125,0.381398469209671,0.3794247806072235,0.2586054503917694
1772537522894150100,7.335150146484375,0.31280556321144104,0.36211156845092773,0.19830429553985596
1772537522904217900,7.3452177734375,0.22928626835346222,0.36817166209220886,0.1439070701599121
1772537522914286000,7.3552861328125,0.16051386296749115,0.37482956051826477,0.08077151328325272
1772537522924353000,7.36535302734375,0.10895230621099472,0.407900333404541,0.01200494822114706
1772537522934421000,7.3754208984375,0.0883903056383133,0.4841426610946655,-0.07130485773086548
1772537522944489000,7.385489013671875,0.10948196053504944,0.5872164368629456,-0.16438327729701996
1772537522954556000,7.395555908203125,0.16294756531715393,0.6956995129585266,-0.24564777314662933
1772537522964624000,7.405623779296875,0.22458872199058533,0.7765607237815857,-0.3014855980873108
1772537522974690800,7.41569091796875,0.2942604720592499,0.8070946931838989,-0.3094281852245331
1772537522984759000,7.425759033203125,0.34847137331962585,0.815071702003479,-0.25375816226005554
1772537522994827000,7.435826904296875,0.38393694162368774,0.7984716892242432,-0.13800066709518433
1772537523004894000,7.44589404296875,0.3968147337436676,0.7885076403617859,0.027244355529546738
1772537523014962000,7.4559619140625,0.3861072063446045,0.8087726831436157,0.20942534506320953
1772537523025030100,7.466030029296875,0.364987313747406,0.8666476607322693,0.3653232157230377
1772537523035097000,7.47609716796875,0.33843159675598145,0.9319697022438049,0.4726680517196655
1772537523045165000,7.4861650390625,0.31937354803085327,1.0070549249649048,0.5057007074356079
1772537523055233000,7.49623291015625,0.3228790760040283,1.070996880531311,0.48496687412261963
1772537523065300000,7.506300048828125,0.351068913936615,1.0907588005065918,0.41844338178634644
1772537523075368000,7.516367919921875,0.3862495422363281,1.066741704940796,0.3408963978290558
1772537523085436200,7.526436279296875,0.41342756152153015,0.9997628331184387,0.2592991888523102
1772537523095503000,7.536503173828125,0.43241190910339355,0.9173012375831604,0.1665945202112198
1772537523105571000,7.546571044921875,0.450274258852005,0.8491877317428589,0.07217419892549515
1772537523115638000,7.556637939453125,0.46157562732696533,0.8036764860153198,-0.027367841452360153
1772537523125706000,7.5667060546875,0.46804723143577576,0.7867136001586914,-0.12255248427391052
1772537523135774200,7.576774169921875,0.4708579480648041,0.7937552332878113,-0.1959742307662964
1772537523145841200,7.586841064453125,0.45546022057533264,0.7991347312927246,-0.24731537699699402
1772537523155909000,7.5969091796875,0.440114289522171,0.822195291519165,-0.2715533375740051
1772537523165977000,7.60697705078125,0.42678263783454895,0.8620784282684326,-0.2678506374359131
1772537523176044000,7.6170439453125,0.42417967319488525,0.892449676990509,-0.24965699017047882
1772537523186112000,7.627112060546875,0.4308321475982666,0.9416868090629578,-0.24595409631729126
1772537523196180200,7.63718017578125,0.4473716914653778,1.0099904537200928,-0.26059189438819885
1772537523206247200,7.6472470703125,0.4794202148914337,1.0968607664108276,-0.29120710492134094
1772537523216315100,7.657315185546875,0.5234971046447754,1.15505850315094,-0.31251639127731323
1772537523226382800,7.6673828125,0.5448096394538879,1.1434950828552246,-0.3324768841266632
1772537523236450000,7.677449951171875,0.5328898429870605,1.1224087476730347,-0.3233102858066559
1772537523246518000,7.68751806640625,0.5089431405067444,1.1498769521713257,-0.28745579719543457
1772537523256585000,7.6975849609375,0.4950467348098755,1.1987558603286743,-0.2604726552963257
1772537523266653200,7.707653076171875,0.4816328287124634,1.2208205461502075,-0.23521867394447327
1772537523276721000,7.717720947265625,0.4666687846183777,1.236114501953125,-0.18972229957580566
1772537523286788000,7.7277880859375,0.47286707162857056,1.2807190418243408,-0.12491780519485474
1772537523296855800,7.737855712890625,0.49444055557250977,1.3250240087509155,-0.03606036677956581
1772537523306923800,7.747923828125,0.5167832374572754,1.290504813194275,0.04348299652338028
1772537523316991000,7.757990966796875,0.5515623092651367,1.2201887369155884,0.08843529224395752
1772537523327059000,7.768058837890625,0.5832729339599609,1.1572577953338623,0.11329613626003265
1772537523337127000,7.778126953125,0.6139195561408997,1.1062026023864746,0.1339188516139984
1772537523347193900,7.78819384765625,0.6564725637435913,1.0547775030136108,0.1418967843055725
1772537523357261800,7.79826171875,0.7009936571121216,0.9705544710159302,0.13810843229293823
1772537523367330000,7.808330078125,0.7448951005935669,0.8629952669143677,0.11681327223777771
1772537523377397000,7.81839697265625,0.7898873090744019,0.7550475001335144,0.07928800582885742
1772537523387465000,7.82846484375,0.8305762410163879,0.6630362868309021,0.033466555178165436
1772537523397533000,7.838532958984375,0.8622276186943054,0.6309129595756531,0.018778154626488686
1772537523407599900,7.848599853515625,0.8735777139663696,0.6411392092704773,0.05823444202542305
1772537523417667800,7.858667724609375,0.8464691638946533,0.6599240899085999,0.14285238087177277
1772537523427735000,7.868735107421875,0.8031298518180847,0.6531235575675964,0.243204727768898
1772537523437803000,7.878802978515625,0.7622652649879456,0.6413835287094116,0.3271784484386444
1772537523447871000,7.88887109375,0.7159732580184937,0.6209290027618408,0.38659214973449707
1772537523457938000,7.89893798828125,0.6659308671951294,0.6017428040504456,0.40962713956832886
1772537523468006000,7.909005859375,0.6136437654495239,0.6002908945083618,0.38898926973342896
1772537523478074000,7.91907421875,0.5715019106864929,0.6127124428749084,0.31035783886909485
1772537523488141000,7.92914111328125,0.5469146370887756,0.6477040648460388,0.20885279774665833
1772537523498209000,7.939208984375,0.5172877907752991,0.6916044354438782,0.10331465303897858
1772537523508277000,7.949277099609375,0.47891518473625183,0.7168213129043579,0.008676430210471153
1772537523518344000,7.959343994140625,0.4341306686401367,0.7163800597190857,-0.05579230561852455
1772537523528412000,7.969411865234375,0.3831491768360138,0.6795137524604797,-0.07734043151140213
1772537523538480000,7.979480224609375,0.32857248187065125,0.6142221093177795,-0.06076917424798012
1772537523548547000,7.989547119140625,0.2928951382637024,0.5484985709190369,-0.0295642651617527
1772537523558615000,7.999614990234375,0.2734098434448242,0.4847062826156616,0.004932459443807602
1772537523568682000,8.009681884765625,0.26807093620300293,0.400888055562973,0.028507506474852562
1772537523578750000,8.01975,0.27191227674484253,0.3342701494693756,0.05045035853981972
1772537523588818200,8.029818115234375,0.2814699709415436,0.2971775531768799,0.07227519899606705
1772537523598885000,8.039885009765625,0.2853216826915741,0.28244760632514954,0.0848730206489563
1772537523608953000,8.049953125,0.2679780423641205,0.277431458234787,0.09903915971517563
1772537523619021000,8.06002099609375,0.24966666102409363,0.2624746263027191,0.11526793241500854
1772537523629088000,8.070087890625,0.22609275579452515,0.24320989847183228,0.10620690137147903
1772537523639156000,8.080156005859376,0.19324851036071777,0.22278505563735962,0.08589337021112442
1772537523649224000,8.090223876953125,0.15471190214157104,0.22834239900112152,0.06029659882187843
1772537523659291100,8.100291015625,0.11922181397676468,0.2588467597961426,0.04186459258198738
1772537523669358800,8.11035888671875,0.08793627470731735,0.2999425232410431,0.049086231738328934
1772537523679426000,8.120426025390625,0.058816734701395035,0.35709261894226074,0.08642721176147461
1772537523689494000,8.130493896484374,0.026875995099544525,0.4281427264213562,0.13417354226112366
1772537523699562000,8.14056201171875,0.017017237842082977,0.48726171255111694,0.16314473748207092
1772537523709629200,8.150629150390625,0.021627170965075493,0.5038480758666992,0.17144407331943512
1772537523719697000,8.16069677734375,0.0359102338552475,0.4916989505290985,0.16436512768268585
1772537523729764900,8.170764892578125,0.05403434857726097,0.4686639904975891,0.1443636417388916
1772537523739831800,8.180831787109375,0.07874182611703873,0.4588893949985504,0.13014768064022064
1772537523749899800,8.190899658203126,0.09710822254419327,0.45864051580429077,0.12606632709503174
1772537523759968000,8.200968017578125,0.11503902077674866,0.48136845231056213,0.13149438798427582
1772537523770035000,8.211034912109374,0.12950895726680756,0.5226370692253113,0.15756280720233917
1772537523780103000,8.22110302734375,0.1438993513584137,0.5242772698402405,0.18044602870941162
1772537523790171000,8.2311708984375,0.14389795064926147,0.4720260500907898,0.1885576844215393
1772537523800237800,8.24123779296875,0.14267823100090027,0.40086957812309265,0.1732889860868454
1772537523810306000,8.25130615234375,0.1471315324306488,0.3299039900302887,0.12426821887493134
1772537523820374000,8.2613740234375,0.16534996032714844,0.25260281562805176,0.032872263342142105
1772537523830441000,8.27144091796875,0.20319896936416626,0.17595341801643372,-0.082066111266613
1772537523840509000,8.281509033203125,0.23497821390628815,0.081114262342453,-0.20204949378967285
1772537523850576000,8.291575927734375,0.2362203449010849,0.0081512201577425,-0.30068421363830566
1772537523860643800,8.301643798828126,0.20897513628005981,0.0000935595016926527,-0.3678368628025055
1772537523870712000,8.311712158203125,0.16973690688610077,0.0876263678073883,-0.39910465478897095
1772537523880779000,8.321779052734374,0.13087047636508942,0.2490144520998001,-0.3855683505535126
1772537523890847000,8.331846923828126,0.10943523049354553,0.42717400193214417,-0.32511767745018005
1772537523900915000,8.3419150390625,0.09003490209579468,0.5383372902870178,-0.22831949591636658
1772537523910982000,8.35198193359375,0.07377023249864578,0.5530747175216675,-0.12471501529216766
1772537523921050000,8.362050048828126,0.05367295444011688,0.5631779432296753,-0.03462853282690048
1772537523931118000,8.3721181640625,0.0386597141623497,0.6270401477813721,0.0378950834274292
1772537523941185000,8.38218505859375,0.035483360290527344,0.7778847813606262,0.12670163810253143
1772537523951253000,8.3922529296875,0.03330119699239731,0.9607486128807068,0.23313160240650177
1772537523961321000,8.402321044921875,0.04328592121601105,1.0892586708068848,0.33406755328178406
1772537523971388000,8.412387939453126,0.08059124648571014,1.1505860090255737,0.4248218536376953
1772537523981456100,8.4224560546875,0.14362187683582306,1.1551003456115723,0.46936163306236267
1772537523991523000,8.432523193359375,0.2309677004814148,1.1062144041061401,0.4667801558971405
1772537524001591000,8.442591064453126,0.3447536528110504,1.0021631717681885,0.42645135521888733
1772537524011659000,8.452658935546875,0.46286541223526,0.8069087266921997,0.3504255414009094
1772537524021726000,8.462725830078124,0.5565245747566223,0.5541893839836121,0.2433837652206421
1772537524031794200,8.472794189453126,0.6305845379829407,0.31458818912506104,0.14204007387161255
1772537524041862000,8.48286181640625,0.700729250907898,0.13753323256969452,0.05835184082388878
1772537524051929000,8.49292919921875,0.7506859302520752,0.005820817314088345,0.0012794628273695707
1772537524061997000,8.5029970703125,0.7476491332054138,-0.10473205894231796,-0.027806252241134644
1772537524072064800,8.513064697265625,0.6834167242050171,-0.1854516565799713,-0.027415908873081207
1772537524082132200,8.52313232421875,0.5662722587585449,-0.18672437965869904,-0.022478673607110977
1772537524092200000,8.533199951171875,0.4210505783557892,-0.07057032734155655,-0.02218133583664894
1772537524102268000,8.543267822265625,0.2772521376609802,0.15828441083431244,-0.03299776464700699
1772537524112334800,8.5533349609375,0.14306122064590454,0.40617242455482483,-0.059738848358392715
1772537524122402800,8.56340283203125,0.021053286269307137,0.6338971853256226,-0.07420779764652252
1772537524132471000,8.573470947265625,-0.10518389195203781,0.8179543018341064,-0.06620395928621292
1772537524142538000,8.5835380859375,-0.2029767632484436,0.9615975022315979,-0.027112215757369995
1772537524152606000,8.59360595703125,-0.2712779939174652,1.0619139671325684,0.03167653828859329
1772537524162673000,8.6036728515625,-0.2927180528640747,1.0906944274902344,0.08522099256515503
1772537524172740900,8.613740966796875,-0.27539128065109253,1.041535496711731,0.1298106461763382
1772537524182808800,8.623808837890625,-0.23658768832683563,0.9281076192855835,0.15330824255943298
1772537524192876000,8.6338759765625,-0.1694442480802536,0.7846091985702515,0.1473071426153183
1772537524202944000,8.643944091796875,-0.07251424342393875,0.6211127042770386,0.1079123318195343
1772537524213012000,8.654011962890625,0.03716017305850983,0.4581851065158844,0.026791533455252647
1772537524223078700,8.66407861328125,0.14680197834968567,0.28743600845336914,-0.06776266545057297
1772537524233146600,8.674146728515625,0.24215906858444214,0.12317034602165222,-0.1882832646369934
1772537524243214800,8.68421484375,0.3114904761314392,-0.008607923053205013,-0.3064858019351959
1772537524253281800,8.69428173828125,0.34282854199409485,-0.08274969458580017,-0.4001285433769226
1772537524263349800,8.704349853515625,0.3304336667060852,-0.09113892167806625,-0.4347088932991028
1772537524273417700,8.714417724609374,0.27037638425827026,-0.045412514358758926,-0.4272526502609253
1772537524283484700,8.724484619140625,0.1866106539964676,0.059893399477005005,-0.3841906785964966
1772537524293552600,8.734552734375,0.10098528116941452,0.21033699810504913,-0.3205181658267975
1772537524303619600,8.74461962890625,0.023959210142493248,0.3620130717754364,-0.25698527693748474
1772537524313687800,8.754687744140625,-0.022819656878709793,0.4803105294704437,-0.19960398972034454
1772537524323755800,8.764755859375,-0.039860960096120834,0.5401294231414795,-0.14871230721473694
1772537524333822700,8.77482275390625,-0.03570432960987091,0.5603024959564209,-0.1037447527050972
1772537524343890700,8.784890625,-0.010845848359167576,0.5462647080421448,-0.06068862974643707
1772537524353959000,8.794958984375,0.03265298530459404,0.5204240083694458,-0.03031330741941929
1772537524364025900,8.80502587890625,0.07898319512605667,0.5035653710365295,-0.002932284027338028
1772537524374093800,8.81509375,0.10806038975715637,0.4896056354045868,0.02769007347524166
1772537524384161800,8.825161865234374,0.12791691720485687,0.48736298084259033,0.06448297202587128
1772537524394228700,8.835228759765625,0.13143831491470337,0.47667309641838074,0.10040593147277832
1772537524404296700,8.845296630859375,0.1387052834033966,0.4578584134578705,0.11737319827079773
1772537524414365000,8.855364990234374,0.15372119843959808,0.4485291540622711,0.1210705041885376
1772537524424431900,8.865431884765625,0.1832364797592163,0.44967377185821533,0.12168463319540024
1772537524434499800,8.875499755859375,0.2168470174074173,0.44678157567977905,0.11064402759075165
1772537524444566800,8.88556689453125,0.25830763578414917,0.4476654827594757,0.10929406434297562
1772537524454634800,8.895634765625,0.2887955605983734,0.4518693685531616,0.12708887457847595
1772537524464702700,8.90570263671875,0.30670666694641113,0.4313523769378662,0.14771266281604767
1772537524474770000,8.91577001953125,0.32752302289009094,0.4132239520549774,0.17080959677696228
1772537524484838000,8.925837890625,0.3431171774864197,0.4222656786441803,0.18649987876415253
1772537524494905600,8.935905517578124,0.34604132175445557,0.4392561912536621,0.1896934062242508
1772537524504972800,8.945972900390625,0.34321436285972595,0.4792238473892212,0.197522833943367
1772537524515040500,8.95604052734375,0.34593042731285095,0.5265380144119263,0.20423650741577148
1772537524525108700,8.966108642578124,0.36075276136398315,0.5295700430870056,0.18802505731582642
1772537524535175700,8.97617578125,0.39531099796295166,0.4566281735897064,0.14263346791267395
1772537524545243600,8.98624365234375,0.4392366409301758,0.31632858514785767,0.06769291311502457
1772537524555311600,8.9963115234375,0.48457464575767517,0.1743069440126419,-0.02308456040918827
1772537524565378600,9.006378662109375,0.5087888836860657,0.06146695464849472,-0.10448114573955536
1772537524575446800,9.01644677734375,0.5181673765182495,0.019668886438012123,-0.14639149606227875
1772537524585513700,9.026513671875,0.5047152042388916,0.059399254620075226,-0.12687265872955322
1772537524595581700,9.036581787109375,0.45404160022735596,0.14888086915016174,-0.058059871196746826
1772537524605649700,9.046649658203124,0.39216333627700806,0.27607929706573486,0.034845031797885895
1772537524615716600,9.056716552734375,0.33242708444595337,0.44287875294685364,0.137777641415596
1772537524625784600,9.06678466796875,0.3015519976615906,0.6092256307601929,0.2330053597688675
1772537524635852800,9.076852783203124,0.2894972562789917,0.757174015045166,0.31533879041671753
1772537524645919700,9.086919677734375,0.29208263754844666,0.8352909088134766,0.38770487904548645
1772537524655987700,9.09698779296875,0.30550169944763184,0.8370110988616943,0.4421940743923187
1772537524666055700,9.1070556640625,0.31732267141342163,0.8186768293380737,0.47910574078559875
1772537524676122600,9.11712255859375,0.33362051844596863,0.8337301015853882,0.5104093551635742
1772537524686190800,9.12719091796875,0.3553899824619293,0.8458594679832458,0.5300959348678589
1772537524696258800,9.1372587890625,0.3824235796928406,0.8462727069854736,0.5553388595581055
1772537524706325800,9.14732568359375,0.40902164578437805,0.7968500256538391,0.5879087448120117
1772537524716393700,9.157393798828124,0.423823744058609,0.7480310201644897,0.6272459626197815
1772537524726460700,9.167460693359375,0.4256538450717926,0.7201136350631714,0.6593700647354126
1772537524736528600,9.177528564453125,0.42514243721961975,0.7158941030502319,0.6722916960716248
1772537524746596900,9.187596923828124,0.4302317500114441,0.6909102201461792,0.6566128730773926
1772537524756663800,9.197663818359375,0.43580135703086853,0.6244359612464905,0.6066778898239136
1772537524766731800,9.207731689453125,0.4408842623233795,0.553796112537384,0.5164875388145447
1772537524776799700,9.2177998046875,0.4426057040691376,0.490041583776474,0.3914538025856018
1772537524786866700,9.22786669921875,0.4431982636451721,0.4692002236843109,0.24727503955364227
1772537524796935000,9.237934814453125,0.43080422282218933,0.525082528591156,0.11948424577713013
1772537524807003000,9.2480029296875,0.40053340792655945,0.6303173303604126,0.02052171342074871
1772537524817069800,9.25806982421875,0.3680421710014343,0.7241792678833008,-0.046537283807992935
1772537524827137800,9.2681376953125,0.347369909286499,0.7930060029029846,-0.08902056515216827
1772537524837205800,9.278205810546876,0.3399025797843933,0.8541186451911926,-0.11251219362020493
1772537524847272700,9.288272705078125,0.35760992765426636,0.937849223613739,-0.11084745079278946
1772537524857341000,9.2983408203125,0.3902203142642975,1.016619324684143,-0.10005704313516617
1772537524867408000,9.308407958984375,0.43138107657432556,1.079917073249817,-0.08148868381977081
1772537524877475800,9.318475830078125,0.4792049825191498,1.124559998512268,-0.05799081176519394
1772537524887543600,9.32854345703125,0.5245351791381836,1.147039532661438,-0.04301426187157631
1772537524897610800,9.33861083984375,0.5669087767601013,1.1664661169052124,-0.03165721148252487
1772537524907677700,9.348677734375,0.6047954559326172,1.1935278177261353,-0.029517358168959618
1772537524917746000,9.358745849609376,0.654381513595581,1.1810126304626465,-0.027718983590602875
1772537524927812900,9.368812744140625,0.7259299755096436,1.128764271736145,-0.041125599294900894
1772537524937880800,9.378880859375,0.8074371218681335,1.0614358186721802,-0.05181579664349556
1772537524947948800,9.38894873046875,0.8993897438049316,1.0125759840011597,-0.06199469417333603
1772537524958015700,9.399015625,0.993328869342804,0.9975225925445557,-0.04681000858545303
1772537524968083700,9.409083740234376,1.0702217817306519,1.0083842277526855,-0.014568713493645191
1772537524978151700,9.419151611328125,1.1163346767425537,1.0347052812576294,0.03757212683558464
1772537524988219000,9.429218994140625,1.1273505687713623,1.056923270225525,0.09954041987657547
1772537524998286800,9.439286865234376,1.1170696020126343,1.08205246925354,0.1444709450006485
1772537525008354600,9.4493544921875,1.096900224685669,1.1232001781463623,0.17244558036327362
1772537525018421800,9.459421875,1.083665370941162,1.1662901639938354,0.17142941057682037
1772537525028489700,9.46948974609375,1.0882587432861328,1.1881357431411743,0.15794263780117035
1772537525038557700,9.4795576171875,1.1003024578094482,1.2021123170852661,0.12299297004938126
1772537525048624600,9.489624755859374,1.1151387691497803,1.21288001537323,0.08959773182868958
1772537525058692600,9.499692626953125,1.1302952766418457,1.2278616428375244,0.05634351447224617
1772537525068759600,9.509759521484375,1.1319555044174194,1.2552706003189087,0.03395431861281395
1772537525078827500,9.51982763671875,1.1185578107833862,1.2896254062652588,0.03609911724925041
1772537525088895700,9.529895751953125,1.1033178567886353,1.3164567947387695,0.04701727628707886
1772537525098962700,9.539962646484375,1.0941089391708374,1.3341188430786133,0.06972520798444748
1772537525109030700,9.55003076171875,1.0839375257492065,1.3409160375595093,0.09818001836538315
1772537525119098600,9.5600986328125,1.0678110122680664,1.346294641494751,0.1392764151096344
1772537525129165600,9.57016552734375,1.047607421875,1.3503167629241943,0.17951332032680511
1772537525139233800,9.58023388671875,1.0123311281204224,1.336586833000183,0.2136499583721161
1772537525149301800,9.5903017578125,0.9616059064865112,1.3199567794799805,0.23762692511081696
1772537525159368700,9.60036865234375,0.9029051661491394,1.3093494176864624,0.2470693737268448
1772537525169436700,9.610436767578125,0.8548880815505981,1.299153208732605,0.23969854414463043
1772537525179504600,9.620504638671875,0.8021494150161743,1.2914974689483643,0.20439304411411285
1772537525189571600,9.630571533203126,0.7499181628227234,1.3090660572052002,0.16857831180095673
1772537525199639800,9.640639892578125,0.6957910656929016,1.3382306098937988,0.13095085322856903
1772537525209707800,9.650707763671875,0.6477476358413696,1.3421406745910645,0.0990254208445549
1772537525219774700,9.660774658203126,0.602782130241394,1.3470820188522339,0.07418489456176758
1772537525229843500,9.670843505859375,0.5555099248886108,1.3561173677444458,0.07675937563180923
1772537525239910400,9.680910400390625,0.5095216035842896,1.350083827972412,0.09245238453149796
1772537525249978600,9.690978515625,0.45926591753959656,1.3258291482925415,0.12278765439987183
1772537525260046600,9.701046630859375,0.41606995463371277,1.3064080476760864,0.16401158273220062
1772537525270113500,9.711113525390624,0.37056267261505127,1.2975436449050903,0.21254955232143402
1772537525280181500,9.721181396484376,0.3239043056964874,1.2678476572036743,0.25006017088890076
1772537525290250500,9.73125048828125,0.2795261740684509,1.2252154350280762,0.26244041323661804
1772537525300318500,9.741318359375,0.24672748148441315,1.1905642747879028,0.24501152336597443
1772537525310385400,9.751385498046876,0.21501509845256805,1.1764897108078003,0.20166350901126862
1772537525320453400,9.761453369140625,0.17780175805091858,1.1713519096374512,0.14517977833747864
1772537525330521600,9.771521484375,0.1392892301082611,1.186011552810669,0.09936728328466415
1772537525340588500,9.781588623046876,0.10123804956674576,1.2109508514404297,0.06809748709201813
1772537525350656500,9.791656494140625,0.07313451170921326,1.2287054061889648,0.05804804712533951
1772537525360724500,9.801724365234374,0.0661449208855629,1.2306290864944458,0.07343608140945435
1772537525370791400,9.81179150390625,0.05286986380815506,1.2278386354446411,0.11375954002141953
1772537525380859400,9.821859375,0.03851015865802765,1.2445175647735596,0.16316527128219604
1772537525390926600,9.831926513671876,0.043545667082071304,1.2508000135421753,0.2169390171766281
1772537525400994600,9.84199462890625,0.06090935692191124,1.216653823852539,0.26040908694267273
1772537525411062500,9.8520625,0.08366446942090988,1.1268621683120728,0.2950887680053711
1772537525421129500,9.86212939453125,0.12386678159236908,0.9716350436210632,0.3090636134147644
1772537525431197400,9.872197509765625,0.16687177121639252,0.7701123356819153,0.2994360327720642
1772537525441265700,9.882265625,0.1913517564535141,0.6264358162879944,0.26638874411582947
1772537525451332600,9.89233251953125,0.17950761318206787,0.5824419856071472,0.2322520911693573
1772537525461400600,9.902400634765625,0.1277645230293274,0.6048449873924255,0.2075701206922531
1772537525471468500,9.912468505859374,0.037458863109350204,0.6783237457275391,0.19480851292610168
1772537525481535500,9.922535400390625,-0.0681547001004219,0.8095775246620178,0.1927945464849472
1772537525491603500,9.932603515625,-0.1480383574962616,0.94800865650177,0.19205471873283386
1772537525501671700,9.942671630859374,-0.18613097071647644,0.9998714923858643,0.17962123453617096
1772537525511738600,9.952738525390625,-0.17422477900981903,0.9765827059745789,0.15822966396808624
1772537525521806600,9.962806640625,-0.12162689864635468,0.9243062734603882,0.1413656622171402
1772537525531873500,9.97287353515625,-0.03806168958544731,0.854604959487915,0.1265539675951004
1772537525541941500,9.98294140625,0.04938659816980362,0.7640953063964844,0.1239086464047432
1772537525552009500,9.993009521484375,0.1333230435848236,0.6776898503303528,0.1063176691532135
1772537525562076700,10.00307666015625,0.19717292487621307,0.6479235887527466,0.07715354114770889
1772537525572144400,10.013144287109375,0.24872931838035583,0.6868028044700623,0.03493551164865494
1772537525582212400,10.02321240234375,0.2649446725845337,0.7536413073539734,-0.015242950059473515
1772537525592279600,10.033279541015625,0.2592332363128662,0.8087961673736572,-0.06940099596977234
1772537525602347300,10.04334716796875,0.2391536384820938,0.8833602666854858,-0.12463200837373734
1772537525612415500,10.05341552734375,0.23655864596366882,0.9797754883766174,-0.18459413945674896
1772537525622482400,10.063482421875,0.25195497274398804,1.0731581449508667,-0.22832591831684113
1772537525632550400,10.07355029296875,0.2767742872238159,1.1437397003173828,-0.25034278631210327
1772537525642618400,10.083618408203124,0.3008381128311157,1.1754647493362427,-0.2396267056465149
1772537525652685300,10.093685302734375,0.3188498914241791,1.1457432508468628,-0.20976094901561737
1772537525662753500,10.10375341796875,0.363508939743042,1.091294288635254,-0.20211316645145416
1772537525672821500,10.113821533203126,0.46094146370887756,1.0489251613616943,-0.24564678966999054
1772537525682888400,10.123888427734375,0.5771715641021729,1.0181455612182617,-0.32940810918807983
1772537525692956400,10.133956298828124,0.6918747425079346,0.9456444978713989,-0.4093535542488098
1772537525703023400,10.1440234375,0.7819939851760864,0.7739146947860718,-0.4659670293331146
1772537525713091300,10.15409130859375,0.8507379293441772,0.5637545585632324,-0.485179603099823
1772537525723159600,10.16415966796875,0.8847243189811707,0.3754130005836487,-0.4791201055049896
1772537525733226500,10.1742265625,0.8810118436813354,0.21297189593315125,-0.4756244421005249
1772537525743294500,10.18429443359375,0.8449135422706604,-0.0008249708916991949,-0.5085474848747253
1772537525753362400,10.194362548828124,0.8085067868232727,-0.09616614133119583,-0.5153220891952515
1772537525763429400,10.204429443359375,0.7577174305915833,-0.10970406234264374,-0.5257283449172974
1772537525773497600,10.21449755859375,0.6871628165245056,-0.09802903234958649,-0.5776309370994568
1772537525783565600,10.224565673828126,0.59232097864151,-0.011586997658014297,-0.6441990733146667
1772537525793632500,10.234632568359375,0.5031370520591736,0.17618876695632935,-0.6957496404647827
1772537525803700500,10.244700439453124,0.43944573402404785,0.3935774862766266,-0.7257150411605835
1772537525813768400,10.2547685546875,0.3863612115383148,0.5835942625999451,-0.6899226903915405
1772537525823835400,10.26483544921875,0.32354244589805603,0.7390037775039673,-0.5645648837089539
1772537525833903600,10.274903564453124,0.23793114721775055,0.7783783674240112,-0.3694859445095062
1772537525843971600,10.2849716796875,0.15346406400203705,0.7228062748908997,-0.1510826051235199
1772537525854038500,10.29503857421875,0.09172585606575012,0.6067259907722473,0.03706119954586029
1772537525864106500,10.3051064453125,0.0769704058766365,0.4699019193649292,0.1652642786502838
1772537525874173400,10.31517333984375,0.11751117557287216,0.33832284808158875,0.24045491218566895
1772537525884241700,10.32524169921875,0.18679755926132202,0.20342938601970673,0.25834786891937256
1772537525894309600,10.3353095703125,0.27862998843193054,0.11220492422580719,0.2066071629524231
1772537525904376600,10.34537646484375,0.39996060729026794,0.11838183552026749,0.11026061326265335
1772537525914444500,10.355444580078125,0.5148826837539673,0.14452795684337616,-0.012592870742082596
1772537525924512500,10.365512451171876,0.5986413955688477,0.19839602708816528,-0.11375033855438232
1772537525934579500,10.375579345703125,0.6366133093833923,0.24063429236412048,-0.16589130461215973
1772537525944647400,10.3856474609375,0.6203863620758057,0.2626514434814453,-0.14988824725151062
1772537525954715400,10.39571533203125,0.5687833428382874,0.2747350037097931,-0.056228868663311005
1772537525964782600,10.405782470703125,0.48795586824417114,0.26942452788352966,0.0717221200466156
1772537525974850300,10.415850341796874,0.4030143618583679,0.2536894977092743,0.21580234169960022
1772537525984918500,10.42591845703125,0.3277093172073364,0.2678068280220032,0.34339889883995056
1772537525994985500,10.4359853515625,0.28571608662605286,0.31655919551849365,0.4141122102737427
1772537526005053400,10.446053466796876,0.283954381942749,0.39755865931510925,0.40493541955947876
1772537526015121400,10.456121337890625,0.324370801448822,0.4663747549057007,0.34842580556869507
1772537526025188400,10.466188232421874,0.3641205430030823,0.4800816476345062,0.25142350792884827
1772537526035256300,10.47625634765625,0.3820079267024994,0.43496131896972656,0.14295561611652374
1772537526045323300,10.4863232421875,0.38038626313209534,0.361304372549057,0.0707940086722374
1772537526055391500,10.4963916015625,0.37939849495887756,0.29672297835350037,0.030443396419286728
1772537526065459500,10.50645947265625,0.38306841254234314,0.2265104502439499,0.027967067435383797
1772537526075526400,10.5165263671875,0.3904663920402527,0.14739644527435303,0.0440744012594223
1772537526085594400,10.526594482421874,0.38740453124046326,0.10980191081762314,0.08545521646738052
1772537526095662600,10.53666259765625,0.36280250549316406,0.09574521332979202,0.1569347232580185
1772537526105729500,10.5467294921875,0.3115166127681732,0.07644757628440857,0.23329445719718933
1772537526115797500,10.556797607421874,0.25677400827407837,0.052843980491161346,0.2920461893081665
1772537526125865500,10.566865478515625,0.20926699042320251,0.07067470997571945,0.3200182616710663
1772537526135932400,10.576932373046875,0.18199089169502258,0.14501498639583588,0.29705703258514404
1772537526146000400,10.58700048828125,0.16616547107696533,0.27032291889190674,0.24901707470417023
1772537526156068600,10.597068603515625,0.1600966602563858,0.3925611972808838,0.17631252110004425
1772537526166135600,10.607135498046874,0.1647622138261795,0.4404197931289673,0.09330746531486511
1772537526176203500,10.61720361328125,0.1755235195159912,0.4296976327896118,0.004268134478479624
1772537526186271500,10.627271484375,0.18906542658805847,0.3915121555328369,-0.08397437632083893
1772537526196338400,10.63733837890625,0.19396084547042847,0.3208449184894562,-0.1580829620361328
1772537526206406700,10.64740673828125,0.20877164602279663,0.24024593830108643,-0.21657297015190125
1772537526216473600,10.6574736328125,0.24593791365623474,0.17940841615200043,-0.2386939823627472
1772537526226540800,10.667540771484376,0.2861250638961792,0.13976193964481354,-0.23918984830379486
1772537526236608800,10.67760888671875,0.3110668957233429,0.1604757308959961,-0.2179519385099411
1772537526246675700,10.68767578125,0.3303111493587494,0.2312270998954773,-0.18970583379268646
1772537526256743700,10.69774365234375,0.3373842239379883,0.34459707140922546,-0.14872857928276062
1772537526266812000,10.70781201171875,0.3480355441570282,0.4728378653526306,-0.08590327203273773
1772537526276878800,10.71787890625,0.3579781949520111,0.5991803407669067,-0.00042245804797858
1772537526286946800,10.72794677734375,0.35827627778053284,0.6640130281448364,0.10054056346416473
1772537526297014800,10.738014892578125,0.33116474747657776,0.6716941595077515,0.19185397028923035
1772537526307081700,10.748081787109374,0.30056798458099365,0.644766092300415,0.25748908519744873
1772537526317149700,10.758149658203125,0.2818571627140045,0.6307251453399658,0.2832522392272949
1772537526327218000,10.768218017578125,0.2755073308944702,0.6459776759147644,0.27798694372177124
1772537526337284900,10.778284912109376,0.27141615748405457,0.6853845119476318,0.23896948993206024
1772537526347352800,10.788352783203125,0.24898171424865723,0.7297698259353638,0.18977269530296326
1772537526357419800,10.798419677734374,0.2085847407579422,0.768671452999115,0.16716352105140686
1772537526367487700,10.80848779296875,0.17452536523342133,0.7809028029441833,0.17663270235061646
1772537526377556000,10.818555908203125,0.1376970410346985,0.7169403433799744,0.22585085034370422
1772537526387623000,10.828622802734374,0.12014010548591614,0.5273373126983643,0.2405436933040619
1772537526397691000,10.83869091796875,0.1262853443622589,0.381693035364151,0.2496146857738495
1772537526407758600,10.848758544921875,0.14768990874290466,0.25057122111320496,0.2121703177690506
1772537526417825800,10.85882568359375,0.16568168997764587,0.14960090816020966,0.15626443922519684
1772537526427893800,10.868893798828125,0.17350292205810547,0.03889763355255127,0.08912625163793564
1772537526437961700,10.878961669921875,0.17246748507022858,-0.08187752217054367,0.012134796008467674
