time,seconds_elapsed,z,y,x
1772614461740651000,0.069651123046875,-0.34405133783519265,0.29563889684379097,0.06739025931432843
1772614461750718000,0.079718017578125,-0.2847206124663353,0.2636661339998245,0.1050600647561252
1772614461760785000,0.089784912109375,-0.14401099604964254,0.21459727492630482,0.13191957623958586
1772614461770851800,0.099851806640625,-0.001343231302499771,0.1942804630845785,0.19207374682053924
1772614461780918800,0.109918701171875,0.10177578238844871,0.15234510915279387,0.24870734205991027
1772614461790985700,0.11998583984375,0.07673018845915794,0.14207681311666964,0.24906667689159512
1772614461801053000,0.130052978515625,-0.012467851907014845,0.15999766973257065,0.21995924035087228
1772614461811119900,0.140119873046875,-0.1941764181882143,0.1513245339334011,0.09117284757047892
1772614461821186800,0.150186767578125,-0.49613750379085536,0.11231763466894626,-0.08062105841785669
1772614461831253800,0.160253662109375,-0.6166062962114811,0.13026888642311096,-0.2736135275185108
1772614461841320700,0.17032080078125,-0.5410884061515331,0.11769465153217315,-0.3570904137589037
1772614461851387000,0.180386962890625,-0.37417525794208045,0.13778583792448043,-0.19782924160733817
1772614461861453800,0.190453857421875,-0.08320610647499561,0.22423311827778816,-0.06525061693713069
1772614461871520800,0.200520751953125,0.2282698264479637,0.2700269012033939,0.06138049750551581
1772614461881587700,0.210587646484375,0.3412918099939823,0.18017068918943405,0.16611249935105443
1772614461891654700,0.220654541015625,0.4437216723769903,0.18039222298562527,0.2582876558318734
1772614461901721600,0.2307216796875,0.4839145665556192,0.17719839538037777,0.28943916542083026
1772614461911788800,0.240788818359375,0.46923780642747875,0.110324415025115,0.26152050027325746
1772614461921856000,0.25085595703125,0.4453986656785011,0.13118249413669109,0.20776625986248254
1772614461931923000,0.2609228515625,0.35013270357549187,0.10474398454427719,0.09267726078405976
1772614461941990000,0.270989990234375,0.1464016905784607,0.02847498385608196,-0.11906681666821241
1772614461952056800,0.281056884765625,0.0022398878812789915,0.01966156280338764,-0.26934783289805053
1772614461962123800,0.291123779296875,-0.15126082104742525,0.0010322656571865082,-0.29825331712588665
1772614461972190000,0.30118994140625,-0.19933248577713966,-0.01243804129064083,-0.315828429044038
1772614461982257000,0.3112568359375,-0.11075403861403464,-0.008743862947821616,-0.26246961769163607
1772614461992323800,0.32132373046875,-0.02970890956521034,-0.042891047221422195,-0.16775237551257013
1772614462002390800,0.331390869140625,0.06969897464811801,-0.033632805010676385,-0.08361454114541411
1772614462012457700,0.341457763671875,0.20194529862403868,-0.06342588572800159,-0.006857464679330587
1772614462022525000,0.35152490234375,0.2826759548962116,-0.10614391447007655,0.028848931735008954
1772614462032592000,0.361591796875,0.23534429487884043,-0.20044483093321322,0.1147327329866588
1772614462042658800,0.371658935546875,0.20665449922829865,-0.23058219504356384,0.22489947323203086
1772614462052725000,0.38172509765625,0.25363340028524395,-0.10398118347823619,0.11103475525155662
1772614462062792200,0.391792236328125,0.24065409172475336,-0.06897358298301696,0.0693370094679296
1772614462072859400,0.401859375,0.20817221031486988,-0.07465630479454993,0.05820391329601407
1772614462082926300,0.41192626953125,0.13470365400016307,-0.11165595588982105,-0.0931440015129745
1772614462092993300,0.4219931640625,-0.0058031333208084105,-0.19646014521121977,-0.34673955400586126
1772614462103059200,0.43205908203125,-0.12429478044956922,-0.2497241178870201,-0.49450975645855066
1772614462113126400,0.44212646484375,-0.1455640707105398,-0.23361235651969908,-0.47603915700539945
1772614462123193300,0.452193359375,-0.1433598386645317,-0.252079741102457,-0.3722049807824194
1772614462133260300,0.46226025390625,-0.09947861136198043,-0.2391314122021198,-0.220374689283967
1772614462143327200,0.4723271484375,-0.007990706492960452,-0.13791151013076305,-0.04155936022624373
1772614462153394200,0.482394287109375,0.07302315063476562,-0.03964636621177196,0.09011164807975292
1772614462163461000,0.492461181640625,-0.006360767203569412,-0.049988896527886385,0.04978606743216514
1772614462173528300,0.5025283203125,-0.1077691775843501,-0.07138824290931224,-0.1565579045422375
1772614462183595300,0.51259521484375,-0.10470599062144756,-0.015144377639889716,-0.21715806532502174
1772614462193662200,0.522662109375,-0.07797317425757647,-0.03789104697704315,-0.1395252289377153
1772614462203729200,0.532729248046875,-0.04649930084645748,-0.04641162256300449,-0.08340265196040272
1772614462213796000,0.542796142578125,-0.01744213318824768,-0.009994155269861221,-0.0974585037112236
1772614462223863000,0.552863037109375,0.01617898138463497,0.041484103032946584,-0.03826221837699413
1772614462233929200,0.56292919921875,-0.03079465897530317,0.07809270898401736,0.005065466696023941
1772614462243996200,0.57299609375,-0.1506318754941225,0.08021043179035187,-0.08602949333265424
1772614462254063000,0.58306298828125,-0.25545506275445223,0.02581716282367706,-0.0732667501322925
1772614462264130000,0.593130126953125,-0.26058804172873495,0.06534077943861484,-0.11456292937770485
1772614462274197000,0.603197021484375,-0.17592355313897132,0.09976502708792685,-0.028828473468869922
1772614462284264200,0.61326416015625,-0.04388239634633064,0.14543021519780158,0.05511880676224828
1772614462294331100,0.6233310546875,0.08721417307257652,0.2530073773413896,-0.05086918649375438
1772614462304398300,0.6333984375,0.19951193399727343,0.24143910462260246,-0.03092778383567929
1772614462314465300,0.64346533203125,0.2847305493384599,0.18926818788051605,-0.015111352153122424
1772614462324532200,0.6535322265625,0.26749475237727166,0.14474398649930953,0.044359804599732156
1772614462334599200,0.66359912109375,0.320721315652132,0.11404022067785262,0.09341551193073391
1772614462344666400,0.673666259765625,0.3834983820825815,0.052847208568453784,0.19458266090154647
1772614462354732300,0.683732177734375,0.4022860846608877,0.0730500386416912,0.21835969619974493
1772614462364799200,0.69379931640625,0.3976198464155197,0.09429448672235012,0.17683160789459942
1772614462374866200,0.7038662109375,0.31539047601819037,0.06159282508194446,0.13890607412606476
1772614462384933000,0.71393310546875,0.1734384583249688,0.03793371707499027,0.02655585236176848
1772614462395000300,0.724000244140625,0.03666618135720491,0.10694529398083687,-0.07597308648154139
1772614462405067300,0.7340673828125,-0.12249006911516189,0.08599310684502125,-0.1580807301953435
1772614462415134200,0.74413427734375,-0.2837432918667793,0.04998246678709983,-0.18573402240499853
1772614462425201200,0.754201171875,-0.339845118317008,0.09406476961970328,-0.1673378033623099
1772614462435268000,0.76426806640625,-0.3151490684777498,0.08086042013168335,-0.09255304988250136
1772614462445335000,0.7743349609375,-0.2684095291346311,0.014836919125914573,-0.03130041654035449
1772614462455402200,0.78440234375,-0.20830518904477358,-0.0046247371912002564,-0.032452509184926745
1772614462465469200,0.79446923828125,-0.12643822221904993,0.055986091116070745,-0.004218640608340501
1772614462475536100,0.8045361328125,-0.03517360471189022,0.04770400046110153,0.02016819715127349
1772614462485602000,0.81460205078125,0.07351327223926782,0.03332651554048061,0.051161593569070095
1772614462495669200,0.824669189453125,0.15861059928834437,-0.0004892448216676712,0.00754573920443654
1772614462505736200,0.834736083984375,0.2031599351108074,0.0005950432837009429,-0.018246873699873684
1772614462515803100,0.84480322265625,0.21644202601015566,0.027909166666865347,-0.03919979148805141
1772614462525870000,0.8548701171875,0.23056816651821135,0.014354104045033454,-0.010080518379062414
1772614462535937000,0.86493701171875,0.21178572463691234,0.010119827476143836,0.04771875963881612
1772614462546004200,0.875004150390625,0.08499883511066436,0.009072948771715163,0.0588616465523839
1772614462556071200,0.8850712890625,-0.09944587813615799,-0.013684826481342316,-0.10790697861984372
1772614462566138400,0.895138427734375,-0.2557066994279623,-0.003852583774924278,-0.28415011910200116
1772614462576205300,0.905205322265625,-0.3325128757327795,-0.030914778223633765,-0.3616343407988548
1772614462586272300,0.915272216796875,-0.2857648608222604,-0.06937105786800384,-0.2756102542936802
1772614462596339200,0.925339111328125,-0.1436743114411831,-0.034978958922624585,-0.12071969844177365
1772614462606406100,0.93540625,0.05694821414649486,0.04553016355335712,0.04580561949387192
1772614462616472300,0.945472412109375,0.2479372344702482,0.046404608300328255,0.15492591942623257
1772614462626539300,0.955539306640625,0.3181082105442881,0.022447394129633903,0.18716347068622707
1772614462636606200,0.965606201171875,0.32562750013321634,0.03248246593177318,0.15790347393229603
1772614462646673200,0.975673095703125,0.26333704817593095,0.049262335819005965,0.1169679446928203
1772614462656740000,0.985739990234375,0.20730244174301624,0.07598141591846942,0.07945975955352187
1772614462666807300,0.995807373046875,0.1986994485706091,0.10285071814358233,0.07494009017199277
1772614462676874200,1.005874267578125,0.1364928755044937,0.12082301268577575,0.07018792720884084
1772614462686941200,1.015941162109375,-0.01330547177493572,0.11825754611194134,-0.06016074645221233
1772614462697008000,1.026008056640625,-0.21361352458596228,0.08885726410448551,-0.26952508916109796
1772614462707075000,1.036074951171875,-0.33640053082108495,0.08650690158605576,-0.34276875067874785
1772614462717142000,1.04614208984375,-0.3796609958767891,0.0304687880218029,-0.31070246433243154
1772614462727209200,1.056209228515625,-0.32351416124105453,-0.01996492966413498,-0.2167521148726344
1772614462737275100,1.066275146484375,-0.2129945159047842,0.0003793547064065933,-0.07639058124125003
1772614462747342000,1.076342041015625,-0.06575520545840263,0.022266776865720747,0.026195056225359437
1772614462757409000,1.086408935546875,0.09005494945645331,0.005903086563944816,0.12025588032230734
1772614462767476000,1.09647607421875,0.19539806893765926,0.007621580919623374,0.14925050413832067
1772614462777543200,1.106543212890625,0.24065993694365023,0.035278234130144116,0.15584332653209565
1772614462787610400,1.1166103515625,0.2782581384539604,0.02988835778534412,0.13947043001055717
1772614462797677300,1.12667724609375,0.23804741635769605,0.01987023711800575,0.08902969806194305
1772614462807744300,1.136744140625,0.11577332808077334,0.054497313863039014,-0.01691927835792303
1772614462817811200,1.146811279296875,-0.008571136729419232,0.09644435823261738,-0.07356076464280485
1772614462827878100,1.156878173828125,-0.119548754966259,0.05503039782643318,-0.11233020188957452
1772614462837945300,1.1669453125,-0.24642390729784963,0.04292845662236214,-0.12387158660143613
1772614462848012300,1.17701220703125,-0.306261997666955,0.02681494168937206,-0.19293314012885093
1772614462858078200,1.187078125,-0.2919347816288471,0.0021048633247613907,-0.20274448617771268
1772614462868145200,1.197145263671875,-0.26991993369758127,-0.013060557103157042,-0.12120149060934782
1772614462878212000,1.207212158203125,-0.21190145997107027,0.011309329521656036,-0.033743864169716836
1772614462888279300,1.217279296875,-0.12267097864001988,0.03571428745985031,0.021335195104032752
1772614462898346200,1.22734619140625,0.01691664800941944,0.04161269784867763,0.07687003532126545
1772614462908413200,1.2374130859375,0.09860387435406445,0.020244915649294853,0.11969167056828736
1772614462918480100,1.247480224609375,0.1364846921980381,0.042403555965423584,0.10270853319391608
1772614462928547000,1.257547119140625,0.14251578905582427,0.10268705201447009,0.06997822998091578
1772614462938614000,1.267614013671875,0.17355623948574064,0.08263327502310276,0.07418547241240739
1772614462948681200,1.27768115234375,0.1419575706511736,0.020083587607741354,0.060811903837323183
1772614462958748200,1.287748046875,0.08626374047994613,-0.01724164218008518,-0.02824512062296271
1772614462968815000,1.297815185546875,0.04311959528028965,-0.006555997514724731,-0.10305676210969686
1772614462978882000,1.307882080078125,0.00684708941578865,-0.040486324167251585,-0.16823329089730976
1772614462988948200,1.3179482421875,-0.06664367873072624,-0.039786066943407056,-0.21552461890429256
1772614462999015200,1.32801513671875,-0.11621698019504546,-0.003299626067280769,-0.21139146462231873
1772614463009082000,1.33808203125,-0.09141454737186432,0.033607086047530176,-0.12425094130784273
1772614463019149000,1.348149169921875,-0.06577975537776946,0.06239128198325634,0.043698564212024206
1772614463029216300,1.35821630859375,-0.025768647506833074,0.11451485245227813,0.18133403388038277
1772614463039283200,1.368283203125,0.018282675665616987,0.15587795945405958,0.22944340027198193
1772614463049350100,1.37835009765625,0.009786065477132797,0.12163140645921229,0.17701894716024397
1772614463059417900,1.38841796875,0.016214052698016165,0.09462064993679523,0.08171937504857778
1772614463069485000,1.398485107421875,0.04290273765921592,0.09137772249281406,0.0015682722300291061
1772614463079552300,1.40855224609375,0.08912789773941039,0.08512450731694698,-0.021727555422484873
1772614463089619200,1.418619140625,0.15866086817085742,0.062252750295400616,-0.014418839844316243
1772614463099686100,1.42868603515625,0.16072832209467888,0.021796821266412733,-0.05617708364352583
1772614463109752000,1.438751953125,0.03283668619692325,-0.06708499275743961,-0.19571371075809002
1772614463119819300,1.4488193359375,-0.16148995411694048,-0.09294541020095348,-0.3478375783756375
1772614463129886200,1.45888623046875,-0.27043402069956063,-0.04462590819001198,-0.3293557268761098
1772614463139953200,1.468953125,-0.27748773860335346,-0.01456862357854843,-0.17787264138013123
1772614463150020000,1.47902001953125,-0.2135577027454972,0.022402970466017722,-0.0014143968425691126
1772614463160087000,1.489087158203125,-0.08385960194766522,0.060818333578109736,0.14078195100054144
1772614463170154000,1.499154052734375,0.0660439592719078,0.09126607881188392,0.23180209222733972
1772614463180221200,1.50922119140625,0.2171107190519571,0.09413549676835536,0.26475582893267274
1772614463190288100,1.5192880859375,0.31269466106295585,0.12895195860564707,0.22080080574154853
1772614463200355000,1.52935498046875,0.3343868529111147,0.13192366789281368,0.11192220561057328
1772614463210422000,1.539422119140625,0.26930501666963097,0.06590542758405209,0.020489099668711423
1772614463220489000,1.549489013671875,0.1240320378601551,0.04196750263571739,-0.08368278407603502
1772614463230556000,1.559555908203125,-0.05678688610494136,0.03976210154592991,-0.2165758815228939
1772614463240622000,1.5696220703125,-0.17162790177166462,0.029340660774707792,-0.3261079771265387
1772614463250689000,1.57968896484375,-0.21679273914396763,0.014586743757128715,-0.28373408564701674
1772614463260756000,1.589755859375,-0.18039397655129433,-0.008418284255266188,-0.15054770434200762
1772614463270823000,1.599822998046875,-0.09284136530458927,-0.009862053322792053,-0.03329802009835839
1772614463280890000,1.60989013671875,0.016865794605016707,0.011502806267142295,0.03155234547480941
1772614463290957000,1.61995703125,0.04613514370918274,0.031256723529100416,0.002608575063198805
1772614463301024000,1.63002392578125,0.02262216617465019,0.0437444491803646,-0.0858037217527628
1772614463311091000,1.640091064453125,0.007905074036121368,0.07055413017272949,-0.043809915632009505
1772614463321158100,1.650158203125,-0.017831424766778944,0.08322539569735526,0.043413171399384734
1772614463331225000,1.66022509765625,-0.005446574968099594,0.10834580842852592,0.0857949539244175
1772614463341292000,1.6702919921875,-0.01946808605790138,0.1229161855727434,0.09170534701198339
1772614463351359200,1.680359130859375,-0.00826923117339611,0.11203764868378639,0.0446530884578824
1772614463361425200,1.690425048828125,0.014167057040333747,0.07960486711263656,-0.02000496941357851
1772614463371492000,1.7004921875,-0.03140811469852924,0.020692659416794774,-0.06483107635080813
1772614463381559000,1.71055908203125,-0.10386194101274013,-0.007504092019796371,-0.1279543258704245
1772614463391626200,1.720626220703125,-0.13741115939319132,-0.005316226586699485,-0.19910276867449284
1772614463401693200,1.730693115234375,-0.125330260977149,0.01713350563049316,-0.1510861951328814
1772614463411760000,1.740760009765625,-0.065081251719594,0.04528232627213001,-0.08776888434588909
1772614463421827000,1.7508271484375,0.041786593110859395,0.053764323413372034,-0.01968114428669214
1772614463431894000,1.76089404296875,0.10925590901076793,0.05050035318136215,0.01623670292124152
1772614463441961000,1.7709609375,0.1723158840358257,0.048474984833598134,0.004488835851848125
1772614463452028200,1.781028076171875,0.16585165645778177,0.014962591332197189,0.008546586810052395
1772614463462095000,1.79109521484375,0.1334171213209629,0.003088613665103912,0.0240628665022552
1772614463472162000,1.801162109375,0.08707038068771361,0.014825813210010528,0.006937251917272806
1772614463482229000,1.81122900390625,0.02317337031662464,-0.00034720600247383117,-0.0005390753127634525
1772614463492295000,1.821294921875,0.026116145770251748,0.01725041000843048,-0.003676642686128616
1772614463502362000,1.831362060546875,0.05626227770894766,0.060818333578109736,0.03979366572797298
1772614463512429000,1.841428955078125,0.05608516757637262,0.07130874793231487,0.07956701932027936
1772614463522496000,1.85149609375,0.07106061839014291,0.10333937844336032,0.08841536555588245
1772614463532563000,1.86156298828125,0.05880407114624977,0.138741531214118,0.0835267167314887
1772614463542630000,1.8716298828125,0.015087679016590118,0.1365881525725126,0.053718146184086796
1772614463552696800,1.88169677734375,-0.04962123225927353,0.0958680196493864,0.006058569386601448
1772614463562764300,1.891764404296875,-0.07441255916655064,0.09072422702014446,-0.028533874436467883
1772614463572831200,1.901831298828125,-0.048743280380964274,0.0731242729216814,-0.0009469254612922668
1772614463582898200,1.911898193359375,0.006653904931247234,0.05672492678463459,0.06991115609407425
1772614463592965000,1.921965087890625,0.07195581366419791,0.07350830380320549,0.1213930676586926
1772614463603032000,1.932031982421875,0.08657470612525939,0.0911971052289009,0.08402633681669831
1772614463613098200,1.94209814453125,0.07898995008468628,0.08879062860906124,0.03767959618344903
1772614463623165200,1.952165283203125,0.003395487657189369,0.10070084663331508,-0.014023995307832956
1772614463633232100,1.962232177734375,-0.06584113017618656,0.09503215334713458,-0.03338087607622146
1772614463643299000,1.972299072265625,-0.1254565177053213,0.0666974547445774,-0.0634273470327258
1772614463653366000,1.982365966796875,-0.20663404096215962,0.05117255335450172,-0.15473361172452568
1772614463663433000,1.992432861328125,-0.22173048780709503,-0.03731061674058437,-0.008951660479605198
1772614463673500200,2.002500244140625,-0.12466916671991347,0.04112637563645839,-0.056673927249759434
1772614463683567000,2.012567138671875,-0.13788871377706527,0.08312661149799823,-0.2260609182268381
1772614463693634000,2.022634033203125,-0.20761837582439183,0.07782324439287185,-0.28150705724731084
1772614463703701000,2.032700927734375,-0.17360358575880527,0.018822189369797706,-0.19349223531633614
1772614463713768000,2.042767822265625,-0.07874854254424571,0.013486089038848877,-0.2090203515768051
1772614463723835000,2.0528349609375,-0.04997779061198234,-0.0241945300579071,-0.19414076235294342
1772614463733902000,2.062902099609375,-0.013047113099694252,-0.06069266137182712,-0.20631153100952504
1772614463743968000,2.072968017578125,0.09175707719922065,-0.07904197253286838,-0.1969604959487915
1772614463754035000,2.083034912109375,0.1660211678057909,-0.09516834694743156,-0.16386735077276826
1772614463764102000,2.093101806640625,0.11280980210006236,-0.10605623618662356,-0.12863704743757842
1772614463774169000,2.103169189453125,0.01324848089069128,-0.1734849278151989,0.012238865456730126
1772614463784236000,2.113236083984375,-0.0755032770127058,-0.18243161985874176,0.10820435413122176
1772614463794303000,2.123302978515625,-0.09280863207876681,-0.08722644803225994,-0.03294803761690855
1772614463804370200,2.1333701171875,-0.13974223268926142,-0.009272270736098289,-0.08559709326475858
1772614463814437000,2.14343701171875,-0.19006167634576557,0.06158990247249603,-0.35181232722550626
1772614463824504000,2.153504150390625,-0.1592676018923521,0.04141279136240482,-0.2765649246700108
1772614463834571000,2.163571044921875,-0.20562837105095386,0.06570610561966896,-0.28973756384551524
1772614463844638200,2.17363818359375,-0.01815232728421688,0.06263152047991752,-0.18141952020674942
1772614463854705200,2.183705078125,-0.07117635372430085,0.013280921855568884,-0.07120119590461253
1772614463864771000,2.19377099609375,-0.014276947155594825,-0.10212824908792972,0.07610255808010696
1772614463874838000,2.203838134765625,-0.004774959316849708,-0.18700959529876707,0.27139687438234683
1772614463884905200,2.2139052734375,-0.16871639823913573,-0.19689678306281566,0.23011808466315267
1772614463894972200,2.22397216796875,-0.18301555722653864,-0.04129121080935001,-0.4064021416775882
1772614463905039000,2.2340390625,-0.294848038727045,-0.13836509911715983,-0.20390213178023694
1772614463915106000,2.24410595703125,-0.3455935988411307,-0.1994651722460985,-0.033361294592916965
1772614463925173000,2.254173095703125,-0.22100889553427694,0.07140402500033378,-0.4919378601439297
1772614463935240000,2.264239990234375,-0.3451823876917362,-0.03504968607127666,-0.03899623173996806
1772614463945307100,2.27430712890625,-0.3740595226079225,-0.11652151609957218,-0.1652772175706923
1772614463955374000,2.2843740234375,-0.26642157018780704,-0.12342822674810885,0.14488383336141705
1772614463965441000,2.29444091796875,-0.2450160863265395,0.016653028637170792,-0.017018793209642172
1772614463975508000,2.304508056640625,-0.11506517981141805,0.06224281342327594,0.006873100639879703
1772614463985574000,2.314573974609375,-0.13494564606249332,-0.06578443155288696,0.352408685683459
1772614463995641000,2.32464111328125,0.012953589597344398,-0.1394657538354397,0.4841569970093667
1772614464005708000,2.3347080078125,0.20254092642962931,-0.07960545163452624,0.4414836841918528
1772614464015775000,2.34477490234375,0.24018209029883145,-0.03553483923971653,0.09486731817424297
1772614464025842000,2.354842041015625,0.09426146123558282,-0.050965048083662985,-0.0880308962829411
1772614464035909000,2.3649091796875,-0.03771510588824749,-0.06240121885538101,-0.18391352897956967
1772614464045976000,2.37497607421875,-0.10283172118216752,-0.0389519542068243,-0.14356076806411147
1772614464056043300,2.385043212890625,-0.10860796649605035,-0.02379997778236866,-0.09072729576006532
1772614464066110500,2.3951103515625,-0.1614919999435544,-0.0010989011526107788,-0.07136310846805573
1772614464076177400,2.405177490234375,-0.19143033435046672,0.03515022383630276,0.07569558471441268
1772614464086244400,2.415244384765625,-0.03759060272574424,0.08959726881682872,0.08252206973358989
1772614464096311300,2.425311279296875,0.06668839465528727,0.09420154774188995,0.014813684380799531
1772614464106377500,2.43537744140625,-0.001567103186249733,0.17106792980134486,0.0066606269329786295
1772614464116444400,2.4454443359375,0.02459434303045273,0.08713350905179977,0.028490327555686232
1772614464126511400,2.455511474609375,0.10244798256158828,0.06276946764588355,-0.014792641592770814
1772614464136578300,2.465578369140625,0.10412731395065784,-0.010989011526107787,0.005647504367679357
1772614464146645200,2.475645263671875,0.05833879172205925,0.12052139939069748,-0.07873100688755512
1772614464156712200,2.485712158203125,0.07462824774384498,0.08736439519822597,0.016498130336403845
1772614464166779400,2.495779296875,0.1559711906954646,0.10672083757519721,0.08156301544308663
1772614464176846300,2.505846435546875,0.22898732706755398,0.3006318828254938,0.13436653100028634
1772614464186913300,2.515913330078125,0.2300029338508844,0.2871417021334171,0.18160919755995272
1772614464196980200,2.525980224609375,0.22091771011948586,0.3187187436580658,0.1767659953124821
1772614464207047200,2.536047119140625,0.1423053611755371,0.32115503089427944,0.08621727098971604
1772614464217114000,2.546114013671875,0.013882394880056381,0.2760679349333048,-0.019395751474052668
1772614464227180300,2.55618017578125,-0.09651450085937976,0.19401684371232986,-0.14250219892188906
1772614464237247200,2.566247314453125,-0.17154840679466724,0.15599661739766596,-0.21208675341010091
1772614464247314200,2.576314208984375,-0.1455547183603048,0.1402747321307659,-0.23622253901809454
1772614464257381000,2.586381103515625,-0.010506196445226669,0.12995908982157706,-0.1672140308521688
1772614464267448000,2.596447998046875,0.13044511977285145,0.1431990951448679,-0.0026479572255164383
1772614464277515300,2.606515380859375,0.28491818086504933,0.16020049882829188,0.109090270120278
1772614464287582200,2.616582275390625,0.28288755182027814,0.11856909627914428,0.04101948119588196
1772614464297649400,2.6266494140625,0.15154899033904073,0.26367723991572856,-0.006746843911707401
1772614464307716400,2.63671630859375,0.09558628009855746,0.1258452247619629,0.08470496673062443
1772614464317783300,2.646783203125,0.0389607220351696,0.13302140000164508,0.02954750845842063
1772614464327850200,2.656850341796875,-0.034928105518221855,0.15083002841472626,-0.15302600408904254
1772614464337917400,2.66691748046875,-0.06689502314329147,0.07349369075596332,-0.2257895539395511
1772614464347984400,2.676984375,-0.04924216981381178,0.04770400046110153,-0.22241240565665066
1772614464358050300,2.68705029296875,-0.06378361312448978,0.09053425740599631,-0.18004713587500154
1772614464368117200,2.6971171875,-0.009000175796449184,0.1363753866046667,-0.0814049022719264
1772614464378184200,2.70718408203125,0.06759761845469474,0.1650052687615156,0.05662672710716724
1772614464388251400,2.71725146484375,0.15478899517357347,0.20697569400668142,0.1656491926882416
1772614464398318300,2.727318359375,0.23574410785138605,0.22971827169060705,0.23482187843993305
1772614464408385300,2.73738525390625,0.24067747260034084,0.23182430405914783,0.2240687214963138
1772614464418452200,2.7474521484375,0.09100421300530433,0.18777414993047714,0.09519998419471085
1772614464428519200,2.757519287109375,-0.07857377049922942,0.16129530832767486,-0.11851152087301015
1772614464438586000,2.767586181640625,-0.13656126456558704,0.09810849205255508,-0.2507854635082185
1772614464448653300,2.7776533203125,-0.16485037046074866,-0.028223054921627043,-0.35873869242258366
1772614464458720300,2.78772021484375,-0.08577624922394753,0.012847791135311126,-0.3174078802552074
1772614464468787200,2.797787109375,0.048722529853880404,-0.006441431224346161,-0.14707630190439522
1772614464478854100,2.807854248046875,0.0872957138761878,-0.046966333836317056,-0.047922976974025366
1772614464488920300,2.81792041015625,0.07556026789695024,0.025359482184052467,0.03541676581799984
1772614464498987300,2.8279873046875,0.046371875074505804,0.09335925169885158,0.1416125566057861
1772614464509054200,2.83805419921875,0.02736088513433933,0.11225392178297042,0.15775931622125208
1772614464519121200,2.84812109375,-0.030779753667116164,0.08767360727787017,0.04514832462891936
1772614464529188000,2.85818798828125,-0.04038900127261877,0.07790215484797954,-0.030638664695993065
1772614464539255300,2.86825537109375,0.004653671024739742,0.11134382120072842,0.024717750214412807
1772614464549322200,2.878322265625,0.06995762558430432,0.13245967446565626,0.10213584787249565
1772614464559389400,2.888389404296875,0.06914367885291577,0.0797030667901039,0.059116790357232094
1772614464569456400,2.898456298828125,0.0014817629903554916,0.055744683575630186,-0.1391566878862679
1772614464579523300,2.9085234375,-0.12326689870655536,0.07536649889051913,-0.21405476554743944
1772614464589590300,2.91859033203125,-0.1649544153571129,-0.008877133938670158,-0.15437493447996675
1772614464599657200,2.9286572265625,-0.17102584422528744,-0.025258944419026375,-0.10649886538758874
1772614464609723400,2.938723388671875,-0.10942951201200485,0.055796706023812294,-0.04970153095386922
1772614464619790300,2.948790283203125,-0.009826689748466014,0.059848027241230006,0.018541764993220567
1772614464629857300,2.958857177734375,0.04249328007549047,0.07493512173593044,0.05887604040391743
1772614464639924200,2.96892431640625,0.07993482971936464,0.09962123470306396,0.08185074634328485
1772614464649991200,2.9789912109375,0.05564122320115566,0.09703940151631832,0.08064020150974392
1772614464660058400,2.989058349609375,-0.02043926917761564,0.10301847592592239,0.018843232157826423
1772614464670125300,2.999125244140625,-0.1337970605492592,0.07340542795062065,-0.09248751036562025
1772614464680192300,3.009192138671875,-0.1777840863138437,0.05412672698497772,-0.13017908924780786
1772614464690259200,3.01925927734375,-0.15270400559306144,0.03902034326791763,-0.1056817768510431
1772614464700326100,3.029326171875,-0.09189093271195888,0.009271686214208602,-0.07583060927093029
1772614464710393000,3.03939306640625,-0.04637596672773361,-0.010605565166473388,-0.11592252729311585
1772614464720460300,3.049460205078125,0.00004617722928524017,0.025783845075964925,-0.09880977218970656
1772614464730526200,3.059526123046875,0.011237433329224587,0.043804070413112635,0.005490341044589877
1772614464740593200,3.06959326171875,0.044343584117293354,0.10502163244187832,0.09326755482740699
1772614464750660000,3.07966015625,0.0075718965590000145,0.12410334953069686,0.07647913630753755
1772614464760727000,3.08972705078125,-0.0258241770863533,0.1004080011665821,-0.02542458330951631
1772614464770794200,3.099794189453125,0.0030839374899864196,0.08682955766916274,-0.053714639052748675
1772614464780861400,3.109861328125,0.09380056572556496,0.05192249493896961,-0.01379099026955664
1772614464790928400,3.119928466796875,0.12033289108127355,-0.0033048867642879484,-0.02570961079597473
1772614464800995300,3.129995361328125,0.07460574365109204,-0.008353402325510979,-0.09940715356096624
1772614464811062300,3.140062255859375,0.03145166157931089,0.02166705740690231,-0.06714804805628954
1772614464821129200,3.150129150390625,0.0019686697244644166,0.07203823125064372,0.02050122849792242
1772614464831196400,3.160196533203125,-0.030962124496698377,0.030952772146463393,0.03337853798866272
1772614464841263400,3.170263427734375,-0.05051847335994243,0.00762742613852024,-0.08011383954808116
1772614464851330300,3.180330322265625,-0.0766711517482996,0.009195698368549346,-0.2031423263888806
1772614464861396200,3.190396240234375,-0.06526303802728653,0.041430327019095416,-0.1504617796242237
1772614464871463400,3.20046337890625,0.034600188738107676,0.06175532216727733,0.007480711144208908
1772614464881530400,3.2105302734375,0.08885200340747833,0.03333937502205372,0.12703867233023047
1772614464891597300,3.220597412109375,0.04790507599115371,0.016493454161286353,0.0774995653964579
1772614464901664300,3.230664306640625,-0.012760697373747824,-0.010193477234244346,-0.12454451742693781
1772614464911731200,3.240731201171875,-0.1307788817718625,-0.0943997006624937,-0.27845556072220207
1772614464921798100,3.250798095703125,-0.1914098760843277,-0.1620861664444208,-0.4038241078831255
1772614464931865000,3.260864990234375,-0.17131284447312353,-0.12429215010106563,-0.3543502482052892
1772614464941932300,3.270932373046875,-0.12954261797517538,-0.05328267737627029,-0.08192958373315631
1772614464951999200,3.280999267578125,-0.10285130266547203,0.014039631268382072,0.12320735053904354
1772614464962066200,3.291066162109375,-0.09265314925611019,0.08511340140104293,0.15490779924765227
1772614464972133000,3.301133056640625,-0.02968552868962288,0.1524532457023859,0.1516383491229266
1772614464982199300,3.31119921875,-0.010029811105132102,0.1726139901995659,0.15173537975661455
1772614464992266200,3.321266357421875,0.035954525956511496,0.19219956515729425,0.1102015192978084
1772614465002333200,3.331333251953125,0.09854571442604064,0.15011457362174987,0.06189933374784887
1772614465012400000,3.341400146484375,0.1231564240694046,0.1646136390954256,0.003322422420978546
1772614465022467300,3.35146728515625,0.14662906959354877,0.1547714595168829,-0.04252133712619543
1772614465032534300,3.3615341796875,0.10772738426923752,0.06063654727041721,-0.06247106922119856
1772614465042601500,3.3716015625,0.019246552261710168,0.035298692396283145,-0.11873071658164262
1772614465052668400,3.38166845703125,-0.04444821353554725,0.100913612601161,-0.12409312039762735
1772614465062735000,3.391735107421875,-0.07978489985466003,0.09321779740154743,-0.014347674304246901
1772614465072802000,3.401802001953125,-0.07643471264392138,0.06929156289100646,0.03745879303961992
1772614465082869000,3.411868896484375,-0.0925479353159666,0.0916723215252161,0.00006268997266888619
1772614465092936000,3.42193603515625,-0.09922785147130489,0.12696399965882302,0.007444616917520761
1772614465103003100,3.432003173828125,-0.10387480049431323,0.0657084437072277,-0.007592354825139046
1772614465113069000,3.442069091796875,-0.09232815508544444,0.04184475303888321,-0.009963175609707832
1772614465123136000,3.452135986328125,-0.053424131673574446,0.053770168632268904,-0.00804462863728404
1772614465133203000,3.462202880859375,-0.03464052074849605,-0.00947919148504734,-0.062126347436755894
1772614465143270100,3.472270263671875,-0.03450491167008877,-0.031097149053215978,-0.13214052551388739
1772614465153337300,3.48233740234375,-0.010664601877331733,0.005987842237949371,-0.09303586496338248
1772614465163404300,3.492404296875,0.024610125121474265,0.03358312065005302,0.02410889760106802
1772614465173471200,3.50247119140625,0.04084697417318821,-0.035572248640656466,0.04068710743635893
1772614465183538200,3.5125380859375,-0.011038695886731146,-0.05807809495925903,-0.05804711529910564
1772614465193605000,3.522605224609375,-0.14593641115427017,0.0017038813084363936,-0.15792612415552137
1772614465203672000,3.532672119140625,-0.1422574303805828,0.03183364663422107,-0.08342237957417964
1772614465213739300,3.5427392578125,-0.059841597500443454,0.09582534955143927,0.12133330029547214
1772614465223806200,3.55280615234375,0.04240940118432045,0.20936989566683767,0.3241460294038057
1772614465233872100,3.5628720703125,0.10894728145301341,0.1809925269663334,0.33576997783258555
1772614465243939000,3.57293896484375,0.0140209265679121,0.0696557200282812,0.03822437058463692
1772614465254006300,3.58300634765625,-0.04306289665699005,0.08086626535058021,-0.20829232956320046
1772614465264073200,3.5930732421875,-0.008180676107108592,0.0342290173381567,-0.217706785248965
1772614465274140200,3.60314013671875,0.052720951840281485,0.04959492877423763,-0.07581526557132601
1772614465284207000,3.61320703125,0.11242167956531048,0.07785948475003242,0.06480024282112717
1772614465294274000,3.623274169921875,0.04782470423132181,-0.045569326519966126,-0.012349047832936048
1772614465304341000,3.633341064453125,-0.10744096854329109,-0.1758984186977148,-0.347568113784492
1772614465314408000,3.643407958984375,-0.1910042178928852,-0.23577450298964975,-0.5496197953924536
1772614465324475100,3.65347509765625,-0.19934066908359527,-0.23117314667403696,-0.4307398795984685
1772614465334542000,3.6635419921875,-0.12854893076270818,-0.1554717167407274,-0.15300781084522605
1772614465344609300,3.673609375,-0.0007151625320315361,-0.07289630938470364,0.07542918886318803
1772614465354676200,3.68367626953125,0.12400076593905687,0.01305938805937767,0.20201587964221834
1772614465364742100,3.6937421875,0.15892974824011324,0.08358779926896094,0.25934973210543394
1772614465374809000,3.70380908203125,0.14347440495491026,0.15194529618024824,0.21372399922311305
1772614465384876300,3.713876220703125,0.08797142118066549,0.1736404106378555,0.10881327980980277
1772614465394943200,3.723943115234375,0.027005203564465043,0.15003975481986997,0.02107464447170496
1772614465405010200,3.73401025390625,0.005906009173393249,0.10646949316263198,-0.008279752567410469
1772614465415077000,3.7440771484375,0.0241641349196434,0.07455401346385479,-0.004591857834905386
1772614465425144300,3.754144287109375,0.010929974815249443,0.04816343466639519,-0.03402414241582155
1772614465435211300,3.764211181640625,-0.03909516206979751,-0.001603343543410301,-0.08338511630371212
1772614465445278200,3.7742783203125,-0.09519143556207418,-0.028493104034662244,-0.136763655269891
1772614465455345200,3.78434521484375,-0.15339052655249832,-0.030019875210523603,-0.16039850561842323
1772614465465412000,3.794412109375,-0.13960603908896446,-0.05134615635573864,-0.15357625838294625
1772614465475479000,3.80447900390625,-0.05059796833693981,-0.04041442797482014,-0.08212985554561018
1772614465485545200,3.814545166015625,0.03320698081403971,0.026344986090064047,0.0395662867128849
1772614465495612200,3.824612060546875,0.07140782439261674,0.0829278740555048,0.12606047494783998
1772614465505679000,3.83467919921875,0.11605068371742963,0.10837971069812774,0.16601809906587003
1772614465515746000,3.84474609375,0.12475275335013866,0.12761924869716168,0.17123773341029883
1772614465525813000,3.85481298828125,0.06993833636194467,0.09597031098008155,0.09040566259026526
1772614465535880200,3.864880126953125,0.00018470891714096068,0.0030406828701496124,-0.05110737916380167
1772614465545947100,3.874947021484375,-0.08127484615147114,-0.013806407034397124,-0.1823578239701688
1772614465556014000,3.88501416015625,-0.10472995601892471,-0.006886836904287338,-0.16568082993552088
1772614465566081000,3.8950810546875,-0.13302256904542445,-0.02393500233888626,-0.09326704337075352
1772614465576148000,3.90514794921875,-0.12532500028014182,0.0056903205960989,-0.014855623826384544
1772614465586215200,3.915215087890625,-0.08224690605401992,0.06063304013907909,0.053404404059797524
1772614465596282400,3.925282470703125,-0.030530455081164837,0.11243921522200107,0.10148118335604667
1772614465606348000,3.93534814453125,-0.0011848258703947066,0.06435293744504451,0.04999678757339716
1772614465616415000,3.9454150390625,0.045726562908291815,0.07352642398178577,-0.06145049400180578
1772614465626482200,3.955482177734375,0.018223638954758644,0.04541735082864761,-0.18815584272444247
1772614465636549000,3.965549072265625,-0.05896890631914138,0.048741526815295214,-0.18156228967830537
1772614465646616300,3.9756162109375,-0.0693573216035962,-0.008239420557022094,-0.04859437342956662
1772614465656683300,3.985683349609375,-0.022064824552834032,0.03881517608463764,0.04505991569310427
1772614465666750200,3.995750244140625,-0.0077668346092104905,0.13311433898210526,0.09356091175079345
1772614465676817200,4.005817138671875,0.020337270107865332,0.12718085727989673,0.07379018948450684
1772614465686884000,4.015884033203125,0.0017146949633955954,-0.00026771102547645565,-0.05445961220115423
1772614465696951000,4.025950927734375,-0.047809214401245116,0.012120061382651329,-0.15792656254693865
1772614465707018200,4.036018310546875,-0.033411271214485165,0.047428106129169464,-0.1401248022660613
1772614465717085200,4.046085205078125,0.02601122409105301,0.07544131769239902,-0.003908259484916925
1772614465727152000,4.056152099609375,0.06412497390806675,0.11574527103006839,0.0766205906048417
1772614465737218000,4.066218017578125,0.08263853572010993,0.15312310778796673,0.07295081605091691
1772614465747285200,4.07628515625,0.10249094492048025,0.15142565622031687,0.035559535289555785
1772614465757352200,4.086352294921875,0.043676060119271276,0.07383095988631248,-0.05346241785734892
1772614465767419100,4.096419189453125,-0.036781039908528324,0.055040919220447536,-0.12849340118318794
1772614465777486000,4.106486083984375,-0.07255904025435447,0.038082185634970664,-0.14331088495627045
1772614465787553000,4.116552978515625,-0.05694412249326706,0.026256138762831685,-0.07459288416951894
1772614465797620000,4.126619873046875,-0.035627193698287006,0.03631634500622749,-0.011945873859524727
1772614465807687200,4.136687255859375,-0.04047346468567848,0.055559974658489227,0.010566256069391966
1772614465817754000,4.146754150390625,-0.04943038586229086,0.0510819524616003,0.03677373338490724
1772614465827821300,4.1568212890625,-0.03072714669704437,0.021024667850136756,0.05447933981493115
1772614465837888300,4.16688818359375,-0.01861672992557287,0.008889993420243263,0.03592909925431013
1772614465847955200,4.176955078125,-0.020674539238214492,-0.006671148326992988,-0.03163184045180678
1772614465858021400,4.187021484375,-0.03915069164931774,-0.029093992537260055,-0.06288564137145876
1772614465868088300,4.19708837890625,-0.03216623958945274,-0.004034954604506492,-0.04243848114833235
1772614465878155300,4.2071552734375,-0.02298866139948368,0.026241525715589523,0.008130699485540389
1772614465888222200,4.21722216796875,-0.02833469860255718,0.030765140619874,0.03614347265735268
1772614465898289200,4.2272890625,-0.03440291260033846,0.016072598400712013,0.02851473134458065
1772614465908356000,4.237356201171875,-0.06527239037752151,-0.014200374788045882,-0.017392887219041586
1772614465918423300,4.24742333984375,-0.048989364096522325,0.0076268416166305536,-0.05514218763783574
1772614465928490200,4.257490234375,-0.016390578308701515,0.026953473377227782,-0.005065320565551519
1772614465938557200,4.26755712890625,0.03982932156324386,0.03280278392732143,0.02936360325887799
1772614465948624100,4.2776240234375,0.09487959313392638,0.038864860445261,0.014074264190346002
1772614465958691000,4.287691162109375,0.1003343514084816,0.07703472436368465,0.040401276232302184
1772614465968758000,4.297758056640625,0.1020154363632202,0.06080021339952946,0.022727233984321353
1772614465978825200,4.3078251953125,0.027421675410866736,0.012535071924328803,-0.03697466278448701
1772614465988891100,4.31789111328125,-0.014877251136302947,0.02967792990505695,-0.1125771623879671
1772614465998958000,4.3279580078125,-0.05067570974826813,0.05211246455311775,-0.09560849193036555
1772614466009025000,4.33802490234375,-0.07549100205302238,0.030124504628777502,-0.016980945417284964
1772614466019092000,4.348092041015625,-0.07209083822071552,0.03571078032851219,0.0057183776468038554
1772614466029159200,4.3581591796875,-0.04666238245368003,0.08241174122691154,0.004778758709132671
1772614466039226000,4.36822607421875,-0.01688654513210058,0.11251695663332939,0.036788638693094254
1772614466049293000,4.37829296875,0.03269640094339847,0.08418518064022064,0.0554369328007102
1772614466059359700,4.38835986328125,0.049715340283513064,0.08728490022122859,0.013776888678967952
1772614466069426700,4.3984267578125,0.05372516044676304,0.12925298737883567,-0.04875877021104097
1772614466079494000,4.408493896484375,0.060440440176427364,0.13882102619111536,0.008985124357789755
1772614466089560800,4.418560791015625,0.013339666305482386,0.09201777396202086,0.005344722028821707
1772614466099627800,4.428627685546875,-0.039758009892702104,0.06786065330505371,-0.08817483479827642
1772614466109693700,4.438693603515625,-0.047832595276832576,0.0825572871774435,-0.13506824952885507
1772614466119760600,4.4487607421875,-0.038921851329505444,0.10095569817721843,-0.09667378307431936
1772614466129827800,4.458827880859375,0.010676876837015152,0.07262216861844062,-0.017218699695914982
1772614466139894800,4.468894775390625,0.026935353198647496,0.06628595133423805,0.07140534017458558
1772614466149961700,4.478961669921875,0.03182429428398609,0.07857786215245723,0.11497428665757178
1772614466160028700,4.489028564453125,-0.0028530513435602186,0.03126724492311477,0.09267243847846984
1772614466170095900,4.499095947265625,-0.04969020584225654,-0.010876198801398276,0.008393003683537244
1772614466180162800,4.509162841796875,-0.0698737466931343,-0.04433773889839649,-0.08970832797586917
1772614466190230000,4.51922998046875,-0.08466682667732238,-0.033954292050004005,-0.13091259115412832
1772614466200297000,4.529296875,-0.06873860518336296,-0.029378070175647735,-0.09328326385319233
1772614466210364000,4.539364013671875,-0.014496142864227294,-0.020555296772718428,-0.011079466288536786
1772614466220430800,4.549430908203125,0.04945201317220926,0.012989829954504966,0.0683297321215272
1772614466230497800,4.559497802734375,0.13349194012284277,0.0032861820638179777,0.0507572505518794
1772614466240564000,4.56956396484375,0.1930740099042654,-0.023048867154121397,-0.016752835749834775
1772614466250631000,4.579630859375,0.19238398181349037,-0.06950958955585956,-0.10172259089648723
1772614466260697900,4.58969775390625,0.09940583838671445,-0.047615737655758855,-0.15505276067629456
1772614466270764800,4.599764892578125,0.005856909334659576,0.011321604481339453,-0.16211510027796028
1772614466280831700,4.609831787109375,-0.08145867828577756,0.03825403507053852,-0.07936769735589623
1772614466290898700,4.619898681640625,-0.14845453145503998,0.057688803380727766,-0.0017671558029949664
1772614466300966000,4.6299658203125,-0.1471019478023052,0.0716167909681797,0.02781082085892558
1772614466311032800,4.64003271484375,-0.10329086312651634,0.03841302502453327,0.06635755526572465
1772614466321099800,4.650099853515625,-0.07192658756971358,0.015507950255274771,0.017924509877711534
1772614466331166700,4.660166748046875,-0.025565233889222144,-0.03596095569729805,-0.08109875893220304
1772614466341233700,4.670233642578125,-0.000841126999258995,-0.0868441707164049,-0.14012509452700614
1772614466351300600,4.680300537109375,0.011111176601052283,-0.08693009543418884,-0.18734920251667497
1772614466361366800,4.69036669921875,-0.022864742758870123,-0.05099661226570606,-0.16315291889309883
1772614466371433700,4.700433837890625,-0.06610971798449754,-0.0077197805970907205,-0.09155044871121644
1772614466381500700,4.710500732421875,-0.10068155741095543,0.0420674558788538,0.003576251051574945
1772614466391567600,4.720567626953125,-0.10771627835333347,0.10261983199715614,0.09848433962762355
1772614466401634800,4.730634765625,-0.06947568728625773,0.13381459620594977,0.1514399770066142
1772614466411702000,4.740701904296875,0.019527122768759727,0.14682079277336596,0.18229191912710666
1772614466421769000,4.75076904296875,0.10883213064074515,0.15531214226484297,0.17214520364403724
1772614466431836000,4.7608359375,0.16403057851046324,0.13800386458933353,0.11338716359660028
1772614466441902800,4.77090283203125,0.20243308214098213,0.11342881078124045,0.050372050626575945
1772614466451969800,4.7809697265625,0.22172435032725332,0.11042845992147922,0.008600947345793246
1772614466462036700,4.79103662109375,0.2106526289537549,0.11623568489551543,-0.05689809139445424
1772614466472104000,4.80110400390625,0.14934475829303265,0.12049509590566157,-0.06832227946743369
1772614466482171000,4.8111708984375,0.05383212795257568,0.0630722499847412,-0.07583572383746505
1772614466492236800,4.82123681640625,-0.04837590837329626,0.02973112139701843,-0.18013021104857324
1772614466502303700,4.8313037109375,-0.1369707221493125,-0.05397825842499732,-0.23634353504925965
1772614466512371000,4.841370849609375,-0.21151976717710494,-0.10248013126552104,-0.2620207048803568
1772614466522438000,4.85143798828125,-0.20704759019911287,-0.07023790383040905,-0.22503990461602805
1772614466532504800,4.8615048828125,-0.13604746982455254,-0.02465513330698013,-0.0835375303864479
1772614466542571800,4.87157177734375,-0.081965166503191,0.00765314510166645,0.09404343457072972
1772614466552638700,4.881638671875,-0.06061667352616787,0.03025193040072918,0.18631766751185058
1772614466562705700,4.89170556640625,-0.1114051959991455,0.041702129697799684,0.1635287664681673
1772614466572772900,4.90177294921875,-0.1343617086946964,0.04829086043834686,0.021711627200990916
1772614466582839800,4.91183984375,-0.10219079293012619,0.012525719574093819,-0.024650164870917795
1772614466592906800,4.92190673828125,-0.06204992119967937,-0.03521101411283016,-0.040507513085752726
1772614466602973700,4.9319736328125,-0.016879238608479497,-0.005936988833546638,-0.07380772514119743
1772614466613039600,4.94203955078125,0.005291092145442962,0.018301964887976644,-0.04353884360566735
1772614466623106800,4.95210693359375,0.02719312735199928,0.012381927189230918,-0.0521627334356308
1772614466633173800,4.962173828125,-0.008259294301271439,0.05183832378685474,-0.07674962381199002
1772614466643240700,4.97224072265625,-0.07305237672924995,0.06346095704138278,-0.06647825903594494
1772614466653308000,4.982307861328125,-0.05126549233496189,0.07282207510471343,-0.01718742777481675
1772614466663374800,4.992374755859375,-0.01693067653477192,0.08126257119178772,0.04409925396740436
1772614466673441800,5.00244189453125,0.025548867276310918,0.10051906032562255,0.08970262888744474
1772614466683509000,5.012509033203125,0.05035363818705082,0.0840337894707918,0.08319207794964313
1772614466693576000,5.022575927734375,0.024983634608983993,0.07465572027266025,0.05523600340113043
1772614466703643000,5.032642822265625,-0.05978372983336448,0.06727554689347744,0.004661415939778089
1772614466713709800,5.042709716796875,-0.11483049427270889,0.04822831659615039,-0.03949102951958775
1772614466723776800,5.05277685546875,-0.14594400993883608,0.016140402939915657,-0.071960343708843
1772614466733843700,5.06284375,-0.12429390366673469,-0.009727028766274452,-0.09052987349182366
1772614466743910000,5.072909912109375,-0.07187222703397274,-0.02317161675095558,-0.08408815000653266
1772614466753976800,5.082976806640625,-0.08308627948760985,-0.03855857097506523,-0.04155819118246436
1772614466764043800,5.093043701171875,-0.09441314466595649,-0.016519173124432563,-0.05004194188937545
1772614466774110700,5.10311083984375,-0.04344517397284507,0.024704233145713805,-0.045192456031590694
1772614466784177700,5.113177734375,-0.0378846172362566,0.009389759635925293,-0.042967911849915975
1772614466794244900,5.123244873046875,-0.0037953006297349926,0.03510287756323814,-0.041613501566275954
1772614466804311800,5.133311767578125,0.015332593688368796,0.08428454936146736,0.07546309113278984
1772614466814378800,5.143378662109375,0.028993454772233963,0.11818272731006145,0.1982357765816152
1772614466824445700,5.15344580078125,0.04576864848434925,0.18457506162822246,0.25342129190452395
1772614466834512600,5.1635126953125,0.06723316905647515,0.19832710812687873,0.247910127267614
1772614466844579600,5.17357958984375,0.057664837983250616,0.1448281576514244,0.08629179753065108
1772614466854647000,5.18364697265625,0.06380699400007725,0.0945914238423109,-0.13782514702156184
1772614466864712700,5.193712646484375,0.10317746587991714,0.04881166944205761,-0.2948443854652345
1772614466874779600,5.203779541015625,0.12286591669023036,0.008283844220638275,-0.310086085999757
1772614466884846800,5.213846923828125,0.14462123690247536,-0.023703531670570373,-0.2545800334855914
1772614466894913800,5.223913818359375,0.10351181240081786,-0.039815293037891386,-0.1457192612722516
1772614466904981000,5.23398095703125,0.05481061759591102,-0.02508300333023071,-0.02817746221423149
1772614466915048000,5.2440478515625,-0.01815875702500343,-0.005689736074209213,0.024247063962742683
1772614466925115000,5.254114990234375,-0.12487842555642127,0.04393909496963024,0.07306253279708326
1772614466935181800,5.264181884765625,-0.15999650068879126,0.11195347753167152,0.10499510976113378
1772614466945248800,5.274248779296875,-0.14693360549807546,0.18338146792948246,0.16689005959481
1772614466955315700,5.284315673828125,-0.11477496469318867,0.195879714974761,0.14038447611555457
1772614466965383000,5.2943828125,-0.05710018983781338,0.1605997272789478,0.009773279060795902
1772614466975449900,5.304449951171875,0.023062018896639346,0.08376081774830818,-0.11519662417136133
1772614466985516800,5.314516845703125,0.12098550977110863,0.020771569871902464,-0.12104732296094298
1772614466995582700,5.324582763671875,0.16690788751244545,-0.06168401049673557,-0.11439371029064059
1772614467005650000,5.33464990234375,0.15530629704594612,-0.05745674819052219,-0.11438552698418497
1772614467015716900,5.344716796875,0.1332598849326372,-0.032554362124204636,-0.09665902389660477
1772614467025783800,5.35478369140625,0.005425532180070877,0.0015232640445232391,-0.09437032843753695
1772614467035850800,5.364850830078125,-0.08574059338867664,0.01993862617909908,-0.13191490006446838
1772614467045917700,5.374917724609375,-0.08611234931051731,0.03534954580068588,-0.09987257911562919
1772614467055984600,5.384984619140625,-0.0993169910594821,0.0363420639693737,-0.06914601694047451
1772614467066052000,5.395052001953125,-0.0981599299788475,0.008209025418758393,-0.11357713321074843
1772614467076118300,5.4051181640625,-0.13327625154554842,-0.009233692291378975,-0.12825805805735288
1772614467086185200,5.415185302734375,-0.20621084711402654,-0.035278234130144116,-0.26132366252690553
1772614467096252200,5.425252197265625,-0.21081015760302543,-0.10594108537435531,-0.1405359403502196
1772614467106319000,5.435319091796875,-0.10392448485493659,-0.08034194921553134,0.10726393147595226
1772614467116386000,5.445385986328125,-0.019917583391070366,0.04647825805842876,-0.06414207117334007
1772614467126453200,5.455453369140625,-0.0615431407213211,-0.02022445738315582,-0.020319003798812626
1772614467136520400,5.4655205078125,0.012871756532788275,-0.05734451998770237,0.1409673905700445
1772614467146587400,5.47558740234375,0.17746376831829547,0.1011404070943594,-0.011430544748529791
1772614467156654300,5.485654296875,0.1885366587355733,0.06651859104633331,-0.013236205931007862
1772614467166721300,5.49572119140625,0.2640156780898571,-0.11223989325761795,0.17382563101164997
1772614467176788200,5.505788330078125,0.2911474306434393,-0.061726096072793,0.13235146485082805
1772614467186855400,5.51585546875,0.20554127728939056,-0.004343582162261009,0.03680157123990357
1772614467196922400,5.52592236328125,0.11167641415596008,0.019198621466755866,0.06950907809920609
1772614467206988300,5.53598828125,0.021499299624562263,0.09214344616830349,0.09717267250716685
1772614467217055200,5.54605517578125,-0.0732403005167842,0.10148235239982605,0.09954773107543587
1772614467227122400,5.556122314453125,-0.1031333344772458,0.11448504183590412,-0.02154167746156454
1772614467237189400,5.566189453125,-0.16963994282484054,0.13986264419853686,-0.1327520084757358
1772614467247256300,5.57625634765625,-0.19173019407987593,0.0876852977156639,-0.1147927195455879
1772614467257323300,5.5863232421875,-0.11566986770629882,0.11776771676838398,-0.12984218544363973
1772614467267390200,5.59639013671875,-0.06759469584524631,0.13479074776172636,-0.06318542803563178
1772614467277457200,5.60645703125,0.004378653475642204,0.12455576947331427,0.1216807254936546
1772614467287524000,5.616524169921875,0.07677695021033287,0.17508184161782264,0.21996925028823314
1772614467297591300,5.62659130859375,0.12032909168899059,0.13844576313793658,0.18049699853435158
1772614467307658200,5.636658203125,0.11845277642309665,0.11003507668972015,0.14008052473291754
1772614467317725200,5.64672509765625,0.05107844533026218,0.09630231941342353,0.07601283397004008
1772614467327791000,5.656791015625,-0.033358079722523686,0.0720347241193056,-0.06440196421854198
1772614467337858300,5.6668583984375,-0.04471650908291339,0.025803134298324582,-0.18990765482783317
1772614467347925200,5.67692529296875,-0.0987304233431816,-0.03906476693153381,-0.273930703708902
1772614467357992200,5.6869921875,-0.09920184024721383,-0.03515139288008213,-0.32078079075440763
1772614467368059100,5.69705908203125,-0.09535451716929673,-0.06927168914675712,-0.17370258915387093
1772614467378126300,5.707126220703125,-0.07471300341784953,-0.07362403913736343,0.002835515686869621
1772614467388193300,5.717193359375,-0.058631929449737066,-0.025520225703716277,0.053556598946824664
1772614467398260500,5.727260498046875,-0.09679770171493292,-0.018743278914690017,0.09941365636698901
1772614467408327400,5.737327392578125,-0.06053776307106018,0.08100538156032562,0.06389204193502664
1772614467418394400,5.747394287109375,0.010592121163010596,0.06956979531049728,0.0057191813644021745
1772614467428461300,5.75746142578125,0.059218497166037554,-0.0065735331714153284,-0.05032623872347176
1772614467438528300,5.7675283203125,0.09389847314208745,0.004084638965129852,-0.0821380388520658
1772614467448595200,5.77759521484375,0.13827595952898264,-0.012169161221385002,-0.061116512807086104
1772614467458662100,5.787662109375,0.20158347957432268,-0.027423428976535796,-0.0020201076507568357
1772614467468729300,5.797729248046875,0.19187807811796664,-0.026574118670821188,0.041952378131821746
1772614467478796300,5.80779638671875,0.12107084996700286,0.00917114844918251,0.008582900232449174
1772614467488863200,5.81786328125,-0.01981236945092678,0.047105450046062466,-0.05643719588443637
1772614467498930200,5.82793017578125,-0.12672083855271338,0.06815875946879386,-0.07522628670223057
1772614467508996400,5.837996337890625,-0.16780629765689373,0.1041466031730175,-0.023656623788923022
1772614467519063300,5.848063232421875,-0.16407529443502425,0.06131926883757114,0.0481155769366771
1772614467529130200,5.858130126953125,-0.05405716888010501,0.1774368803113699,-0.004834434419125318
1772614467539197200,5.868197265625,-0.05534837773442268,0.11177052218019962,0.015324410381913183
1772614467549264100,5.87826416015625,-0.027604338501393794,0.06717325556278228,0.022774799453094602
1772614467559331000,5.8883310546875,0.002776478976011276,0.048481999096274375,-0.025227380236983298
1772614467569398300,5.898398193359375,-0.019515140070021152,0.010690320840477942,-0.0358613677803427
1772614467579465200,5.90846533203125,0.003634557110071182,0.027813305076956747,-0.026421047000959513
1772614467589532400,5.918532470703125,0.04474398161172866,0.03159340813755989,0.003995280181244016
1772614467599599400,5.928599365234375,0.022239888858795166,0.022479542833566665,0.007157981995865702
1772614467609666300,5.938666259765625,0.04401449829339981,0.06096914022564888,0.005837400916591286
1772614467619733200,5.948733154296875,0.03636749067157507,0.0572428131788969,-0.03781213652193546
1772614467629800200,5.95880029296875,0.049687867754697794,0.046288872966170305,-0.051618616621568796
1772614467639866400,5.968866455078125,0.06013327392339706,0.0680786799699068,0.008333236320316791
1772614467649933300,5.978933349609375,0.05543371793031692,0.09818623346388339,0.07399762169010937
1772614467660000300,5.989000244140625,0.10226152007877826,0.19734686491787432,0.08704699981212616
1772614467670067200,5.999067138671875,0.08629968857616185,0.07435001532435417,0.17632365837246178
1772614467680134400,6.009134521484375,0.07861147216111421,0.005361819294095039,0.11042115339785813
1772614467690201300,6.019201416015625,0.045594460961222646,0.009459902262687683,0.02927110266983509
1772614467700268300,6.029268310546875,-0.04068973778486252,-0.0743266344487667,-0.010099953731894493
1772614467710335200,6.039335205078125,-0.02224631859958172,0.008133622094988822,-0.14377324177101253
1772614467720402200,6.049402099609375,-0.10995061327666043,-0.0275713130146265,-0.12701339175850151
1772614467730469000,6.05946923828125,-0.1771060409218073,-0.03390519221127033,-0.10073657553382218
1772614467740536300,6.069536376953125,-0.17354864070117473,-0.028171032473444938,-0.12156170222386717
1772614467750603300,6.079603271484375,-0.14609657015204427,-0.04785071545541286,-0.08341755726858972
1772614467760670200,6.089670166015625,-0.05680442176163196,-0.029562779092788694,-0.00785107882656157
1772614467770736000,6.099736083984375,0.025196985098719597,-0.01552022521495819,0.05459668258428573
1772614467780803300,6.10980322265625,0.05879939497113228,-0.029696050083637234,0.07172310088686644
1772614467790870300,6.119870361328125,0.1441524503469467,0.10181143822371959,-0.011760142029076813
1772614467800937200,6.129937255859375,0.13951777628362177,0.0025046762973070145,0.011137333955615758
1772614467811004200,6.140004150390625,0.12037497665733098,0.03494739474058151,-0.007669073323160409
1772614467821071000,6.150071044921875,0.06896656872034072,0.03593932838737964,-0.03748816526457667
1772614467831138300,6.16013818359375,0.00011047463715076445,0.03704699736833572,-0.006697305681556463
1772614467841205200,6.170205322265625,-0.11205752242803572,0.06304945363104343,-0.00941430955529213
1772614467851272400,6.1802724609375,-0.1864373483687639,0.13796937779784202,-0.05229030533805489
1772614467861339400,6.19033935546875,-0.210650583127141,0.08287468256354331,0.009359729823842644
1772614467871406300,6.20040625,-0.14366612813472748,0.06189443837702274,0.024358999904617665
1772614467881473300,6.210473388671875,-0.05984101297855377,0.07117956859469414,0.009269567322358488
1772614467891540200,6.220540283203125,0.03604921850264072,0.04718728311061859,-0.008028554285317659
1772614467901606400,6.2306064453125,0.12681377753317355,0.04136544508934021,-0.02799282636232674
1772614467911673300,6.24067333984375,0.14281798687279224,0.03641863633692265,-0.056706441279873246
1772614467921740300,6.250740234375,0.1386976920723915,0.04722060085833072,-0.054901510749757285
1772614467931807200,6.26080712890625,0.09842238030731677,0.012931377765536307,-0.006212883165478706
1772614467941874200,6.270874267578125,0.00921732567846775,0.018061141869425774,-0.006404460214823484
1772614467951941400,6.28094140625,-0.05121522345244884,0.10562193642258644,-0.038803339516371486
1772614467962008300,6.29100830078125,-0.10516893195807933,0.039327801781892775,0.07546038771905005
1772614467972075300,6.3010751953125,-0.0890098243176937,0.04630640862286091,0.12777626588977872
1772614467982142200,6.31114208984375,-0.0666258508130908,0.05776303766071796,0.0938393633659929
1772614467992209200,6.321209228515625,-0.03191051126271486,0.04478489814400673,0.01329378133714199
1772614468002276000,6.331276123046875,-0.0009925181686878204,0.00812894591987133,-0.11691226898282765
1772614468012343300,6.34134326171875,0.04245090223848819,-0.01196925473511219,-0.17141762002184985
1772614468022410200,6.35141015625,0.06500467935204506,-0.05651332986056804,-0.17976313130185007
1772614468032476200,6.36147607421875,0.022551731286942957,-0.06389701037108898,-0.17245931109450757
1772614468042543000,6.371543212890625,-0.047401802644133566,0.0055073652446269985,-0.12174465757533907
1772614468052610000,6.381610107421875,-0.10203180297613143,0.03397241222858429,0.000459580335766077
1772614468062676500,6.391676513671875,-0.11217384228408336,0.0548813447445631,0.10573533366918564
1772614468072743400,6.401743408203125,-0.09942132821679114,0.09550561607778071,0.14551592071987687
1772614468082810400,6.411810302734375,-0.05856324812769889,0.1085860469251871,0.13862104663960634
1772614468092877300,6.421877197265625,-0.0027986908078193665,0.11586334445178507,0.07326638480611145
1772614468102944300,6.4319443359375,0.049615971562266346,0.09715689041614532,-0.015957812914624808
1772614468113011500,6.442011474609375,0.07889467301666736,0.046555999469757074,-0.10019545439444481
1772614468123078400,6.452078369140625,0.08002513835132122,0.013372691792249678,-0.16053155741356312
1772614468133145300,6.462145263671875,0.041885669571161264,-0.00836509276330471,-0.1840278030090034
1772614468143212300,6.47221240234375,-0.014179624260962009,-0.03421791142225265,-0.1591764895427972
1772614468153279500,6.482279541015625,-0.03861585412025451,-0.03774140937328339,-0.12335611135996877
1772614468163345400,6.492345458984375,-0.03258504952341318,0.023100889602303505,-0.07196480068825185
1772614468173412400,6.502412353515625,-0.008805237746238708,0.0702133539110422,0.0013708499617874621
1772614468183479600,6.5124794921875,0.0290396320015192,0.08688859438002108,0.05202478626966476
1772614468193546500,6.52254638671875,0.03013064210861921,0.13142857785224915,0.08853709223940968
1772614468203613400,6.532613525390625,0.0093371526658535,0.1576204192072153,0.08589052325338124
1772614468213680400,6.542680419921875,-0.00010024550408124924,0.15251462050080297,0.05320391305163502
1772614468223747600,6.55274755859375,-0.026008009220659732,0.12162848384976387,-0.02241444170810282
1772614468233814500,6.562814453125,-0.03296615779548883,0.07486205649971961,-0.10322751556672155
1772614468243881500,6.572881591796875,-0.01991086138933897,0.06891162366271018,-0.09824198223911225
1772614468253948400,6.582948486328125,-0.0012169745743274688,0.03283727071881294,-0.045432548397779465
1772614468264015400,6.593015380859375,0.002160977426171303,0.018785949012637138,-0.017633710237592456
1772614468274082300,6.603082275390625,0.016249416272342204,0.04398819480836391,0.014703282808884978
1772614468284149500,6.6131494140625,0.030683015294373034,0.08430617667138576,0.04949285663925111
1772614468294215400,6.62321533203125,-0.006405190867185592,0.08892097699046135,0.044290977147221564
1772614468304282400,6.633282470703125,-0.025225042149424552,0.06457330219745636,-0.01381144853569567
1772614468314349300,6.643349365234375,-0.008926818299293518,0.02435118192434311,-0.05286942040026187
1772614468324416500,6.65341650390625,0.009133739048242568,0.006282441270351409,-0.058068815674260255
1772614468334483500,6.6634833984375,0.0206610952347517,0.018103811967372894,-0.016689122863858936
1772614468344550400,6.67355029296875,0.009441197562217712,-0.00549684385061264,0.0142970400955528
1772614468354617300,6.683617431640625,-0.04668810141682624,-0.01230477029979229,-0.007571969624236226
1772614468364684300,6.693684326171875,-0.10671791496574878,0.002557283267378807,-0.051815673563629386
1772614468374751200,6.703751220703125,-0.08785890071690082,0.015390461355447768,-0.024415771593153474
1772614468384818400,6.713818359375,-0.04632628236711025,0.020972645401954648,0.027227906404435634
1772614468394885600,6.7238857421875,0.0367693494707346,0.023573183289170265,0.050315644264221186
1772614468404952600,6.73395263671875,0.07922785049378872,0.012170330265164375,0.027006007282063364
1772614468415018200,6.744018310546875,0.04111351615488529,0.02308276942372322,-0.030599136403203008
1772614468425085400,6.75408544921875,0.001875146222114563,0.03637479719519615,-0.04423668967671692
1772614468435152600,6.764152587890625,-0.015595628538727759,0.05404781652987003,0.015023820000141859
1772614468445219600,6.774219482421875,-0.034973698225617404,0.05677987184226513,0.08512224229462444
1772614468455286500,6.78428662109375,-0.0335012875854969,0.08472878599762916,0.07976590289324521
1772614468465353500,6.794353515625,-0.04156009087860584,0.05166939696073532,0.09073993604592978
1772614468475420400,6.80442041015625,-0.02689385214447975,0.060784431308507914,0.05324314908348023
1772614468485487400,6.8144873046875,-0.0071831895023584365,0.030678631380200383,-0.001123158811032772
1772614468495554600,6.824554443359375,-0.009464578437805175,-0.032605800050497055,-0.016057108570635317
1772614468505621500,6.83462158203125,0.02388064180314541,-0.02998421937525272,-0.08277239123284816
1772614468515688400,6.8446884765625,0.010606734210252761,-0.018407178828120232,-0.11015431915521622
1772614468525755400,6.85475537109375,-0.0028618191719055174,-0.008761398604512215,-0.08920797723829746
1772614468535822300,6.864822265625,-0.038159634785354134,0.005684475377202034,-0.08376257131397724
1772614468545888500,6.874888427734375,-0.09229688316434621,0.012903320714831351,-0.07459142286479473
1772614468555955500,6.88495556640625,-0.11180033279657363,0.03567337092757225,-0.024277093774825332
1772614468566022400,6.8950224609375,-0.07809446254968642,0.024656302350759506,0.033227439080178736
1772614468576089300,6.90508935546875,0.016397008049488068,0.06140636259913444,0.07334931384921073
1772614468586156300,6.91515625,0.1171656592220068,0.09682897363603114,0.10117737810388207
1772614468596223200,6.92522314453125,0.1558037251740694,0.11304711798727511,0.07728606877624988
1772614468606290400,6.93529052734375,0.1487456233561039,0.11073358034789561,0.005391776040941477
1772614468616357400,6.945357421875,0.11789221993088722,0.05403320348262786,-0.043970659151673315
1772614468626424600,6.955424560546875,0.10826982058286666,0.09903262116014958,-0.10576295232847333
1772614468636491500,6.965491455078125,0.009686404494941235,0.01576689345240593,-0.08164309494197368
1772614468646558500,6.975558349609375,-0.07348638423234224,0.0023760814815759657,-0.048647126530110836
1772614468656625400,6.98562548828125,-0.15226444513201712,0.036761750686168666,-0.02679959798976779
1772614468666692600,6.995692626953125,-0.14407178632616996,0.0022281974434852597,-0.02177081004232168
1772614468676758500,7.005758544921875,-0.11717734965980052,-0.030755203747749326,-0.038190614445507524
1772614468686825500,7.015825439453125,-0.06394201855659484,-0.00015489830076694487,-0.0721244482293725
1772614468696892400,7.025892333984375,0.0007709843724966049,0.01749181754887104,-0.06025412382408976
1772614468706959400,7.03595947265625,0.0730938777834177,0.008190905240178108,-0.0035460020437836645
1772614468717026600,7.046026611328125,0.10996171919256448,0.026894436666369436,0.04832096331566572
1772614468727093500,7.056093505859375,0.08992226298749446,0.056361938691139216,0.07010156409963965
1772614468737160400,7.066160400390625,0.01770750612616539,0.04779109422266483,0.05216492539271712
1772614468747227400,7.076227294921875,-0.08169336382448673,0.019659224715828896,-0.023420330815017223
1772614468757294300,7.08629443359375,-0.16223580404818058,0.012595277678966522,-0.14414119830057023
1772614468767361300,7.096361328125,-0.16912644034475088,-0.032578327521681785,-0.1894419370122254
1772614468777428500,7.106428466796875,-0.11809037285149097,-0.0408475586950779,-0.1607163393959403
1772614468787495400,7.116495361328125,-0.05870353338122367,-0.028951953718066213,-0.11628376182094216
1772614468797562400,7.126562255859375,0.011891513323783874,0.01903203272819519,-0.05877572183459997
1772614468807628300,7.136628173828125,0.061363107979297636,0.05299743069410324,0.001948942110687494
1772614468817695500,7.146695556640625,0.08487433194816112,0.05314180760085582,0.020464403618872164
1772614468827762400,7.156762451171875,0.08829495404660702,0.06599485943317412,0.008156564579159021
1772614468837829400,7.166829345703125,0.08359159866124391,0.06720481974482535,-0.03325900326222181
1772614468847896300,7.176896240234375,0.06501666205078363,0.05808394017815589,-0.08162862802520394
1772614468857963300,7.18696337890625,0.06954904478341341,0.043835634595155715,-0.05561915749981999
1772614468868030500,7.197030517578125,0.09037292936444281,0.07105097377896308,-0.008993746055662631
1772614468878097400,7.207097412109375,0.11041793852746486,0.0949357072353363,0.0753298201419413
1772614468888164600,7.21716455078125,0.09755085816979407,0.09421732983291149,0.09961261300519109
1772614468898231600,7.2272314453125,0.07977496298253536,0.11240823556184767,0.036273967169225214
1772614468908298500,7.237298583984375,0.00881342105269432,0.09931085357964038,-0.04396145293191075
1772614468918365400,7.247365478515625,-0.06658113488852978,0.07062719540894032,-0.11077961144670843
1772614468928432400,7.257432373046875,-0.09452712643444537,0.04815934301316738,-0.12057196053415536
1772614468938498600,7.26749853515625,-0.06949965268373488,-0.0018991116195917128,-0.10950973764136433
1772614468948565500,7.2775654296875,-0.02134206323623657,-0.013367431095242499,-0.11752207144424319
1772614468958632400,7.287632568359375,0.030410043571889398,-0.008550386202335357,-0.08196955041736363
1772614468968699400,7.297699462890625,0.07735650366395712,-0.01175356615781784,-0.047232291296124454
1772614468978766300,7.307766357421875,0.0957633902311325,-0.018755553874373436,-0.014368570961803197
1772614468988833500,7.31783349609375,0.06564706890881061,0.002710428002476692,0.032076661609858274
1772614468998900500,7.327900390625,0.01591536201238632,0.035244331860542294,0.046576019344478845
1772614469008967400,7.337967529296875,-0.03965747212767601,0.04200725012421608,0.062186845452338456
1772614469019034400,7.348034423828125,-0.07112813066840172,0.05194178416132927,0.06140446290299296
1772614469029101300,7.358101318359375,-0.079715926271677,0.04998538939654827,0.018635580756515262
1772614469039168300,7.368168212890625,-0.04325520435869693,0.031002456507086752,-0.002097264540195465
1772614469049235500,7.3782353515625,-0.04255553165674209,-0.009756254860758781,0.013349457047134637
1772614469059303200,7.38830322265625,-0.03128536510169506,-0.012239888370037078,-0.0005123334363102913
1772614469069369000,7.398369140625,-0.02072247003316879,-0.02694002937376499,-0.01992781252413988
1772614469079436000,7.40843603515625,-0.031739538609981535,-0.02067103210687637,-0.020251637651026246
1772614469089503000,7.4185029296875,-0.028560031791031358,-0.005631283885240554,-0.029719577089697122
1772614469099570000,7.42856982421875,-0.040484570601582524,0.027211247530579564,0.005322656327486038
1772614469109637000,7.43863720703125,-0.08088993848711251,0.06721943279206752,0.03831248725950718
1772614469119704000,7.4487041015625,-0.07981675629764795,0.09330722925066948,0.07730754995569586
1772614469129771000,7.45877099609375,-0.00874327842593193,0.07115209606587887,0.10207914924919605
1772614469139838000,7.468837890625,0.011939444118738174,0.04884089553654194,0.08527867496535181
1772614469149905000,7.47890478515625,0.007443009482324123,0.01852349868416786,0.0007917348995804786
1772614469159971800,7.488971923828125,0.01289864453971386,-0.005220364996790886,-0.09249781256392597
1772614469170039300,7.499039306640625,-0.00994447090923786,-0.0117465518951416,-0.1321390642091632
1772614469180106200,7.509106201171875,-0.08158756536245346,-0.009683189624547959,-0.15082856711000203
1772614469190173200,7.519173095703125,-0.14153876071721314,0.0013514146089553833,-0.11054887143075466
1772614469200238800,7.52923876953125,-0.1737684209316969,0.022180267626047134,-0.0843335030697286
1772614469210306000,7.53930615234375,-0.1622381421357393,0.058957215881347655,-0.02363397356569767
1772614469220373200,7.549373291015625,-0.06940145300626754,0.07673720272183418,0.0957681394714862
1772614469230440200,7.559440185546875,0.029175825601816176,0.0654033232808113,0.14220591938905416
1772614469240507100,7.569507080078125,0.04016016095280647,0.054153614991903305,0.08842164916619658
1772614469250574000,7.579573974609375,0.09198124134391546,0.1478513048648834,0.03320383900888264
1772614469260641000,7.58964111328125,0.10460662190020084,0.05593523771166801,0.08342427927032113
1772614469270708000,7.5997080078125,0.10400456435382366,0.09703414081931114,0.0745021371461451
1772614469280775200,7.609775146484375,0.1057844335079193,0.11266776328086853,0.01458016788586974
1772614469290842000,7.619842041015625,0.04835691141188144,0.0698912823498249,-0.08249437800906598
1772614469300909000,7.629908935546875,0.04642331300079822,0.10023498268723487,-0.1939353759739548
1772614469310976000,7.63997607421875,0.014803601378202438,-0.006873392900824547,-0.06010309798084199
1772614469321043000,7.65004296875,0.04649754728078842,-0.004021510601043701,0.023920170095935462
1772614469331109000,7.660109130859375,0.04831307227015495,-0.00592296030819416,0.05710340470820665
1772614469341176000,7.670176025390625,0.03374795582294464,-0.0058615855097770685,0.0661809565898031
1772614469351243000,7.680242919921875,0.003045651306211948,-0.007132336097955703,0.028113310936838387
