time,seconds_elapsed,z,y,x
1772699661446050800,0.10505078125,0.07683598692119122,0.009079310013842769,-0.0018275590620993169
1772699661456007700,0.115007568359375,0.07294482470154762,0.008572826363006606,0.0076587585667672094
1772699661465964800,0.12496484375,0.06860533419251441,0.003922854265850037,0.0007449360449652885
1772699661475922000,0.134921875,0.06396656847596169,0.013284397020866163,-0.0034496963542362206
1772699661485878800,0.144878662109375,0.06426409011781216,0.018721007717377506,0.0013438980227801949
1772699661495836000,0.1548359375,0.08311725914776324,0.010745142600522376,0.013867486146936425
1772699661505792800,0.164792724609375,0.07982289377748966,-0.00643726193930488,-0.010098119109479012
1772699661515750000,0.17475,0.07802548896670342,0.013386893847538158,-0.005568847357609774
1772699661525706800,0.184706787109375,0.08595394387841224,0.00918006240800023,-0.017995976811880244
1772699661535663900,0.194663818359375,0.07742343142032623,-0.0013844811949180439,-0.000512495549803134
1772699661545621000,0.20462109375,0.05886661498844623,0.005416394458967261,0.0012492482883128104
1772699661555577900,0.214577880859375,0.07532558235824108,0.0150105951923877,-0.0039757857483185945
1772699661565534700,0.22453466796875,0.06993745957911014,0.013868553584371692,-0.01053568511790363
1772699661575491800,0.234491943359375,0.08205576739609241,0.008213701593875885,-0.005216741417732555
1772699661585448700,0.24444873046875,0.08070727539658545,0.006982776126009412,-0.0017236371779101318
1772699661595405800,0.25440576171875,0.06978080771267414,-0.009744728819746524,-0.006936323760444065
1772699661605363000,0.264363037109375,0.08379355097413063,-0.008915150694386103,0.031655406273773404
1772699661615319800,0.27431982421875,0.07605038950145245,0.0039346954006934535,0.021213358822651206
1772699661625277000,0.28427685546875,0.06063830083608627,0.0032885475508403032,-0.00249822258198983
1772699661635233800,0.29423388671875,0.08770926311314106,-0.010928449578443541,0.017369325963652225
1772699661645190700,0.304190673828125,0.0700438425630331,-0.007535939329629764,-0.0014227365542959886
1772699661655147800,0.314147705078125,0.06690145288407802,-0.0021839244769187643,0.0012595259412657468
1772699661665105000,0.32410498046875,0.07797638912796974,-0.0068210918914293865,-0.00006098778099403716
1772699661675061800,0.334061767578125,0.06736147161126137,-0.0031954030744032933,-0.00042385143525898455
1772699661685019000,0.344018798828125,0.08292904309928417,0.0022303163353353736,-0.004407477711327374
1772699661694975700,0.353975830078125,0.07814063977897166,-0.018511662115901707,0.002418559212455875
1772699661704932900,0.363932861328125,0.08053367239534855,-0.00024505623567383733,0.002645501548593165
1772699661714888400,0.373888427734375,0.07006371630728245,-0.017707816653419285,-0.01204550744225271
1772699661724845300,0.38384521484375,0.06752046156525611,-0.006894147994485684,0.004410306135119754
1772699661734802400,0.393802490234375,0.0664712447732687,0.0016095403887564316,0.0075505124193208754
1772699661744759600,0.403759521484375,0.07559972312450408,0.008537471921835094,0.0132599898070388
1772699661754716700,0.413716552734375,0.08098667685985565,-0.00042326691336929794,0.0021478251128311966
1772699661764673500,0.423673583984375,0.07709493011832237,-0.009572815452096983,0.00976561976908124
1772699661774630700,0.433630615234375,0.06887012260854244,-0.0008724126200890168,-0.0049529958937870105
1772699661784587500,0.44358740234375,0.08383329846262931,0.00045001792297698557,-0.005698444537050091
1772699661794544400,0.45354443359375,0.08129296633005141,-0.022536460652574895,-0.005544931050838204
1772699661804501500,0.46350146484375,0.06827624836862087,0.011475831495248712,0.013585587907547596
1772699661814458600,0.473458740234375,0.08997370091378688,-0.004736294107162393,-0.005136319996372912
1772699661824415500,0.48341552734375,0.06348609148263931,-0.00393691932382062,0.006808888855337863
1772699661834372600,0.49337255859375,0.07680325369536876,-0.0010814065951155498,0.006110096361150499
1772699661844329500,0.50332958984375,0.05854863508045673,-0.007932861658767797,0.006111561090807663
1772699661854286300,0.513286376953125,0.07455927416086197,0.00823475808163639,0.007692398258176399
1772699661864243500,0.523243408203125,0.0788975956261158,0.00012452599538955838,0.009835121933382469
1772699661874200600,0.53320068359375,0.08443710957467555,-0.002707742855045944,0.0007868275414890377
1772699661884157400,0.543157470703125,0.06947218015491963,-0.0008218880092492327,-0.0008878647759032901
1772699661894114600,0.553114501953125,0.06887479878365993,0.006059546634135767,-0.009397742012981325
1772699661904071700,0.56307177734375,0.07755436432361602,0.005615300864819437,-0.007670414184409309
1772699661914028300,0.5730283203125,0.07126958496570587,0.002887592933978885,-0.005269751959069981
1772699661923985400,0.5829853515625,0.07052256599068642,-0.0007784826923627405,0.007857391548805753
1772699661933942500,0.592942626953125,0.056605099797248835,-0.007794567432929761,0.015725513412535655
1772699661943899600,0.602899658203125,0.06767886699736118,0.006480918417940847,-0.015312955122848505
1772699661953856500,0.6128564453125,0.065883215752244,-0.0000020275603048503396,0.0007554286124606733
1772699661963813600,0.622813720703125,0.07276654552519321,-0.0021793578996555877,0.009960504162008874
1772699661973770500,0.6327705078125,0.06812719528675079,-0.0025389438930898903,-0.006556270938538364
1772699661983728400,0.642728271484375,0.06229074421823024,-0.004396024735551327,0.0024745009255741023
1772699661993684500,0.6526845703125,0.07785247048735618,0.001380188612290658,0.00028675365266390144
1772699662003641600,0.6626416015625,0.08189268578886985,0.007026743131899275,-0.012279840212868293
1772699662013599700,0.672599853515625,0.08817980323433876,-0.010367025436554104,-0.003635337138549948
1772699662023555600,0.6825556640625,0.07665653870105743,0.0010005873107118532,-0.009745881880505475
1772699662033513500,0.692513427734375,0.07665712322294711,0.003907323336577974,-0.004084171461782534
1772699662043470600,0.702470703125,0.06453706184029578,0.004539949551154859,-0.007960085309122223
1772699662053427500,0.712427490234375,0.07531096931099891,-0.013870855139312334,-0.00725288060879393
1772699662063384600,0.722384521484375,0.07396423087716102,0.00005083513809368014,-0.001964846072239743
1772699662073341700,0.732341796875,0.06767886699736118,0.015151264038402586,-0.008366798950734665
1772699662083298600,0.742298583984375,0.08324000874459743,0.007771145458146929,0.004131783167150569
1772699662093255400,0.75225537109375,0.07516074718534946,-0.002665492882207036,0.0025373798403772524
1772699662103212500,0.762212646484375,0.08159516414701938,-0.0035021811683662234,-0.006118429223011481
1772699662113169400,0.77216943359375,0.08713117096424103,-0.004124039393756538,-0.0038154312439553904
1772699662123126500,0.78212646484375,0.0847358002603054,-0.011333048323960974,-0.002020590566302417
1772699662133083600,0.792083740234375,0.07605798828601837,0.003741679879510775,0.0008649673866835655
1772699662143040500,0.80204052734375,0.0806967540025711,-0.004823438101075589,-0.009714662475045769
1772699662152997400,0.811997314453125,0.07321370477080345,0.00213689329768531,0.015773709068971218
1772699662162954500,0.82195458984375,0.08892506864368915,0.006716960230097174,0.013657047991850413
1772699662172911400,0.831911376953125,0.08548340375721454,-0.009022716421820223,0.002550872363723465
1772699662182868500,0.841868408203125,0.08338847730457782,0.004650510953273624,0.0005526683008094551
1772699662192825600,0.85182568359375,0.06438508614897727,0.014133154770731925,-0.010615298825909848
1772699662202782700,0.86178271484375,0.08174363270699977,-0.00714698111123871,-0.006884701458594645
1772699662212739600,0.871739501953125,0.06782675103545188,0.014654936455399729,-0.015258285201498073
1772699662222696400,0.881696533203125,0.0685755235761404,0.002027930197608657,0.004291942164924694
1772699662232653600,0.891653564453125,0.07800269261300563,-0.006615239721559919,-0.0022713607317768037
1772699662242610400,0.9016103515625,0.06782733555734158,-0.002191482162289321,0.004630368351787911
1772699662252567600,0.911567626953125,0.07141863804757595,0.0078650388532551,0.009887706070567947
1772699662262524700,0.921524658203125,0.0712684159219265,0.0017710647931322454,0.0049715852881810855
1772699662272481500,0.9314814453125,0.06722761609852314,-0.00045713265035301446,0.006136879907621187
1772699662282438400,0.9414384765625,0.06947276467680931,-0.010207674722955562,-0.0031127092100330625
1772699662292395500,0.9513955078125,0.0648328299164772,-0.0036869220515480263,-0.00522486421703943
1772699662302352400,0.961352294921875,0.07410977682769299,-0.010257760942378081,0.011501391769835027
1772699662312309500,0.9713095703125,0.07949731508493423,-0.0003375568247167393,0.006489536690880777
1772699662322266600,0.9812666015625,0.07530804670155047,-0.0013705759671516716,0.004023776765010552
1772699662332223500,0.991223388671875,0.08204115434885025,-0.012304108146089128,0.0030947054791729896
1772699662342180600,1.0011806640625,0.07530746217966079,0.009862167487223633,-0.0205441269247327
1772699662352137500,1.011137451171875,0.08428630292713642,-0.01235854174706619,-0.01018646753814537
1772699662362094600,1.021094482421875,0.08458499361276627,-0.004909974740212783,0.012007088827737607
1772699662372051500,1.031051513671875,0.07276362291574477,0.000029682752210646867,-0.0007060213859949726
1772699662382008600,1.041008544921875,0.06378653573393821,0.00034301388454623517,0.008633848393330118
1772699662391965700,1.050965576171875,0.08638181390166282,-0.006692547308048233,0.001376517084171064
1772699662401922600,1.060922607421875,0.09416296929717063,-0.004005513880890794,-0.004568395331749343
1772699662411879400,1.07087939453125,0.08249240524768829,-0.001505248897220008,-0.0036141045521537307
1772699662421836500,1.08083642578125,0.0824918207257986,0.0032887347805080932,0.0004982033046137075
1772699662431793400,1.09079345703125,0.08324000874459743,0.004147484201425686,-0.0023584590599173678
1772699662441750500,1.10075048828125,0.07471066533029079,-0.00888960069459863,-0.005995403348252875
1772699662451707600,1.110707763671875,0.08743044617176056,-0.01988878198827151,0.0016909778735571307
1772699662461664500,1.12066455078125,0.07411211491525173,-0.010356298546562902,0.002959966333734337
1772699662471621600,1.13062158203125,0.06782792007923126,-0.0023138299003243445,-0.016328386092954315
1772699662481578500,1.14057861328125,0.07067220359444618,-0.006957527520321309,-0.02072426241474459
1772699662491535400,1.150535400390625,0.05885141741931438,0.0036355297910282388,-0.010049236183165338
1772699662501492500,1.160492431640625,0.07336626498401165,-0.0019324750330764798,0.008533163927009445
1772699662511449600,1.17044970703125,0.06528466533720494,0.00897542951426003,-0.005618963830606663
1772699662521406500,1.180406494140625,0.06812777980864047,0.011608595596021041,0.005415586745613836
1772699662531363600,1.190363525390625,0.06678104137480259,-0.00955749915195629,-0.0074906982486834745
1772699662541320400,1.200320556640625,0.07441255916655064,-0.006152864640508778,0.004555788724392187
1772699662551277600,1.210277587890625,0.06528524985909462,-0.0023160583900287746,0.00022305846217495853
1772699662561234400,1.220234375,0.07980009742379188,0.0031601353981997814,-0.00429709783065482
1772699662571191600,1.230191650390625,0.07112111640572548,-0.0070992558122612535,-0.016785210499342066
1772699662581148700,1.240148681640625,0.07261807696521282,-0.0052931745046749705,-0.009107534315439989
1772699662591105500,1.25010546875,0.08189443935453891,0.005942907117679715,0.004797157448926009
1772699662601062700,1.260062744140625,0.0759083506822586,-0.0010845757997361943,-0.004548364611406577
1772699662611019500,1.27001953125,0.07530980026721953,-0.0008135540057439357,0.014636453233927023
1772699662620976400,1.279976318359375,0.07845218994617462,0.003713645661692135,0.010089841046545188
1772699662630933500,1.28993359375,0.06857610809803008,0.008350525381835177,-0.009607342201139544
1772699662640890600,1.299890625,0.06752922939360141,0.00979853679963853,-0.00692891220554593
1772699662650847500,1.309847412109375,0.06857669261991978,-0.0035168581476900723,-0.00375785640864342
1772699662660804600,1.3198046875,0.07261690792143344,0.006509865951212123,0.00018080677686957642
1772699662670761500,1.329761474609375,0.06603343787789344,-0.02043081187652424,0.00495378591165354
1772699662680718300,1.33971826171875,0.06543547198474407,-0.005710632731765509,-0.005546505378349684
1772699662690675500,1.349675537109375,0.07755611788928508,-0.00546154877494555,-0.003276011154608568
1772699662700632600,1.359632568359375,0.07620937945544719,-0.007674078291840851,0.0008685846866981591
1772699662710589400,1.36958935546875,0.0682791709780693,0.005909278842713683,-0.01032403339490993
1772699662720547000,1.379547119140625,0.06663315733671188,0.01250704683966469,0.004345835197318229
1772699662730504000,1.38950390625,0.07426409060657024,-0.0037307246606564145,0.007573458899246179
1772699662740461000,1.3994609375,0.07620937945544719,-0.0068614650010131294,-0.00801447438597097
1772699662750418000,1.40941796875,0.06573533171415329,0.004453536209603771,-0.0010662889410858042
1772699662760375000,1.419375,0.06004910277128219,0.002737521505379118,0.005185589369287481
1772699662770332200,1.429332275390625,0.08653437411487103,-0.00528650273529347,-0.014179703034419799
1772699662780289300,1.439289306640625,0.07291735217273235,0.008165209109918213,0.01599059180621989
1772699662790246000,1.449245849609375,0.0696253248900175,0.009368232790706678,0.008608266427501803
1772699662800203000,1.459203125,0.0627414105951786,0.006600772804790176,0.013889079207525355
1772699662810160000,1.46916015625,0.07785539309680461,-0.006059532934403978,0.011969113171217032
1772699662820117000,1.479116943359375,0.06902735899686813,-0.002305482197087258,-0.008729497637395979
1772699662830074000,1.48907421875,0.08458966978788375,0.01098006103467196,-0.008608900610919226
1772699662840031200,1.49903125,0.07710720507800578,-0.006535457050194963,-0.0036573180727951693
1772699662849988000,1.508988037109375,0.08009937263131141,-0.014342057414213195,0.006493234476819634
1772699662859945000,1.518945068359375,0.06812836433053017,0.003951354274549521,-0.0025187938709161244
1772699662869902000,1.528902099609375,0.08084697612822056,0.00044685785151086745,-0.0048104010938113785
1772699662879859000,1.53885888671875,0.08009878810942173,0.014059135119873098,0.00791582261735457
1772699662889816000,1.548816162109375,0.07261632339954376,-0.008024416966317222,-0.005836531554444809
1772699662899773200,1.558773193359375,0.072466685795784,-0.0057415849924553185,0.007679811629594769
1772699662909730000,1.56872998046875,0.07545885334908962,-0.011012054474977776,-0.01259035148374387
1772699662919687000,1.57868701171875,0.06378770477771759,-0.015657491960912012,0.010887759091740008
1772699662929644000,1.58864404296875,0.07875263419747353,-0.006226107973232865,0.004649420112129882
1772699662939601200,1.59860107421875,0.07995031954944133,0.005180909769237041,0.000006061560494708828
1772699662949558000,1.60855810546875,0.07576105116605758,0.006409889875189401,-0.000868502488307422
1772699662959515100,1.61851513671875,0.06857669261991978,-0.0017168275549774988,0.0038873548358504192
1772699662969472300,1.62847216796875,0.05914952358305454,0.016012881269841454,-0.004024242555891396
1772699662979429000,1.63842919921875,0.06079729079008102,0.006122414703317917,-0.005537702729852753
1772699662989386000,1.648385986328125,0.08967734831571579,-0.008211231075576506,0.0005648798992333468
1772699662999343000,1.658343017578125,0.06618482904732227,0.0060965724425856025,-0.005261691379378317
1772699663009300000,1.668300048828125,0.08069967661201953,0.0010200774624710902,0.0021814453962870173
1772699663019257000,1.678257080078125,0.07217033319771289,0.005948405276704579,-0.00044625392166781235
1772699663029214200,1.688214111328125,0.07082359476387501,-0.016650731648807413,-0.01045880564803374
1772699663039171000,1.698171142578125,0.06289221724271774,-0.005801096627349033,-0.0008474191719054943
1772699663049128000,1.7081279296875,0.0609463438719511,-0.0011136374974390492,0.0027689030243316665
1772699663059085000,1.7180849609375,0.07456278129220008,-0.00045480826252605766,0.001088725676824106
1772699663069042000,1.7280419921875,0.0821954681277275,-0.008232036401587537,-0.007995652096136473
1772699663078999000,1.7379990234375,0.07157061373889446,0.0017606118977768345,-0.011647674080950673
1772699663088956200,1.7479560546875,0.08324234683215617,0.004844225160777569,0.003431152625614777
1772699663098913000,1.7579130859375,0.07830313686430454,0.0031341515735723077,-0.0025460751743084983
1772699663108870100,1.7678701171875,0.07665829226672649,-0.006529328703507781,0.001545477017975645
1772699663118827000,1.777826904296875,0.07516250075101852,-0.00008028499486390501,-0.011088711324206087
1772699663128784100,1.7877841796875,0.07501286314725876,0.007009079611045308,-0.0021374007585836805
1772699663138741000,1.797740966796875,0.07995031954944133,0.010707390706287696,0.0056362192136177325
1772699663148698000,1.807697998046875,0.07411503752470017,-0.0008322861056774854,0.013619675123528576
1772699663158655200,1.8176552734375,0.08414134149849414,0.004763615938927978,0.01113497760174796
1772699663168612000,1.827612060546875,0.08683423384428024,0.011219883972802198,-0.007593377738445997
1772699663178569000,1.83756884765625,0.07037292838692664,0.007817788478313013,0.001233608332008589
1772699663188526000,1.847526123046875,0.06558394054472447,-0.002595094527117908,-0.0015115958687936654
1772699663198483000,1.85748291015625,0.07141922256946563,-0.0007962329781847074,-0.006775465505526517
1772699663208440000,1.867440185546875,0.07231587914824486,0.006954303516773507,-0.0077615082676551535
1772699663218397200,1.877397216796875,0.08264028928577899,-0.01249353433754295,0.004149928461905802
1772699663228354000,1.88735400390625,0.07545709978342056,-0.004980706455442123,0.010537290269811638
1772699663238311200,1.897311279296875,0.06318681627511978,0.011450939082587137,-0.002446108231440303
1772699663248268000,1.90726806640625,0.06647884355783462,-0.011611162012442946,-0.002662297990589286
1772699663258225000,1.917224853515625,0.06947159563302993,0.003961355078755877,-0.002538253769100993
1772699663268182000,1.92718212890625,0.08877426199615002,0.004788649915484711,-0.013148461432184557
1772699663278139100,1.93713916015625,0.07111644023060798,-0.003160354593908414,0.014960046607017283
1772699663288096000,1.947095947265625,0.0685714319229126,-0.006346135890018195,0.0037214784833427984
1772699663298053000,1.95705322265625,0.06812310363352299,0.0015143957514781503,-0.008932000793665065
1772699663308010000,1.967010009765625,0.07500701792836188,-0.001973629027372226,0.007950306554735288
1772699663317967000,1.976967041015625,0.07156476851999759,-0.007311268294858746,-0.005605495281791081
1772699663327924000,1.986924072265625,0.07904723322987556,0.004050946758082136,0.00390814417884103
1772699663337881000,1.996881103515625,0.08637889129221439,-0.00655924435115885,0.0005248538495216052
1772699663347838200,2.006838134765625,0.0768015001296997,-0.019459706388623453,-0.025870637443428858
1772699663357795000,2.016795166015625,0.0759042590290308,-0.010498373898374847,-0.014148464221006725
1772699663367752200,2.026752197265625,0.08024433405995368,0.005148308974155224,-0.011184223570954053
1772699663377709000,2.036708984375,0.0639350042939186,-0.007120526929153129,-0.01260292441259371
1772699663387666000,2.046666015625,0.06992050844430923,-0.0006694328273180872,0.008869582532343337
1772699663397623000,2.056623046875,0.079646952688694,0.008825435717473738,-0.013050378202437422
1772699663407580200,2.066580078125,0.07545709978342056,-0.003104190260148607,0.016434282736398746
1772699663417537000,2.076537109375,0.07605506567656993,-0.013380062247952445,-0.004404926136281574
1772699663427494100,2.086494140625,0.07425882990956306,-0.0134916419968009,-0.012217210747348144
1772699663437451000,2.096450927734375,0.06557926436960697,-0.007427222824725322,0.00003871258792642038
1772699663447407900,2.106407958984375,0.05899520980417728,-0.004723644688143395,-0.003188095979960053
1772699663457365000,2.116364990234375,0.08129004372060299,-0.0006367224343819543,0.006918342862470308
1772699663467322000,2.126322021484375,0.07485445771515369,-0.014304182222392409,0.0008048746548331109
1772699663477279000,2.136279052734375,0.09206278214752674,0.009108088583755307,0.003026628657800029
1772699663487236000,2.146236083984375,0.07769698766469955,0.0025715538213262334,-0.006650056448258692
1772699663497193200,2.156193115234375,0.07784720979034901,-0.018454757996625267,-0.006689301042436272
1772699663507150000,2.166150146484375,0.08069032426178455,-0.012602186910365708,-0.0015733108772168635
1772699663517107000,2.17610693359375,0.07126140165925025,-0.009317822344298473,-0.00442689765196119
1772699663527064000,2.18606396484375,0.07964110746979713,-0.006537443511304445,0.011290888541023014
1772699663537021200,2.196021240234375,0.07320610598623752,-0.017581418361351825,-0.0037920241105486637
1772699663546978000,2.20597802734375,0.0724579179674387,-0.005879052667808719,0.01028825197876431
1772699663556935200,2.21593505859375,0.07649754874706267,0.00010248312694020569,0.018450883255817462
1772699663566892000,2.22589208984375,0.07485153510570526,0.007023263400024734,0.024763795012957415
1772699663576849000,2.235848876953125,0.06826806506216526,-0.00286767352395691,0.00043469077721529175
1772699663586806000,2.245805908203125,0.07664835539460181,0.007245582647505216,-0.005638820450191269
1772699663596763100,2.25576318359375,0.07500175723135472,-0.006581652545789256,-0.011004125755204586
1772699663606720000,2.265719970703125,0.08158522727489471,-0.01132710264036432,-0.004338217004798935
1772699663616677000,2.275677001953125,0.06243278303742408,-0.017995506454422137,0.002967317952305893
1772699663626634200,2.28563427734375,0.08248480646312237,-0.013055237040645443,-0.014892544603557325
1772699663636590800,2.2955908203125,0.062434536603093144,-0.0027614047044655305,0.000680629503945238
1772699663646548000,2.3055478515625,0.06408055024445057,0.0006905441140057519,0.008963897765026194
1772699663656505000,2.315505126953125,0.06797054342031479,0.0012968394440831617,0.011875593093800124
1772699663666462200,2.325462158203125,0.07111293309926986,-0.004072921127872542,-0.01469914548988454
1772699663676419000,2.335419189453125,0.09056640610992908,-0.004362629356025718,-0.009487495805800427
1772699663686376200,2.345376220703125,0.06841945623159408,0.005124179179896601,-0.0009227990919665898
1772699663696333000,2.3553330078125,0.06512742894887924,-0.0063833215286722405,-0.007968949606412206
1772699663706290000,2.3652900390625,0.07380757901072502,-0.004218211350077763,0.0071743069387594
1772699663716246500,2.37524658203125,0.07784720979034901,-0.009223138931323774,-0.0050373086097970365
1772699663726203400,2.385203369140625,0.08338380112946032,0.004637459675455466,0.006598160722595639
1772699663736160500,2.395160400390625,0.06692308019399643,0.003961528608691879,0.01039209137915168
1772699663746117600,2.40511767578125,0.06572656388580798,-0.012701007642340846,-0.006206378076167311
1772699663756074500,2.415074462890625,0.07201134324371815,-0.003698123865574598,-0.007757945766567718
1772699663766031600,2.425031494140625,0.08398118250072002,-0.016360475431382655,0.0031804252718022324
1772699663775988500,2.434988525390625,0.06602467004954815,-0.0009778274896321817,0.0025634338761301475
1772699663785945300,2.4449453125,0.07275894674062729,-0.009835877701919526,-0.01279155601960374
1772699663795902500,2.45490234375,0.06961597253978252,-0.007676215450000017,-0.002988106724474346
1772699663805859600,2.464859619140625,0.07994096719920635,-0.013431728503108024,-0.00034449859297892545
1772699663815816700,2.474816650390625,0.058842065069079394,-0.004254273610725067,0.0010812022407830227
1772699663825773600,2.484773681640625,0.06856967835724354,-0.0010979558711173012,0.027500371236843055
1772699663835730400,2.49473046875,0.05166004461050033,0.002838776223035529,0.0011445880456623853
1772699663845687600,2.5046875,0.056448447930812835,-0.002048146435152739,-0.017924565818283007
1772699663855644400,2.51464453125,0.06946750397980213,-0.012894014030368998,-0.0012136466811469289
1772699663865601500,2.5246015625,0.07934358582794666,0.002256505655939691,-0.00361774468505464
1772699663875558700,2.53455859375,0.07605272758901119,-0.0036800584859214723,-0.004516664573689922
1772699663885515500,2.544515625,0.08667758197784424,0.001860268313391134,0.016313090342411306
1772699663895472600,2.55447265625,0.0738087480545044,-0.003454780096374452,0.012198983254202175
1772699663905429500,2.564429443359375,0.0685714319229126,-0.009041023830068298,-0.016661919763102197
1772699663915386400,2.574386474609375,0.0663268678665161,-0.003519479363039136,-0.00878339409472246
1772699663925343500,2.584343505859375,0.0765010558784008,0.010333680289378389,-0.006376030417249421
1772699663935300600,2.594300537109375,0.07979366768300533,0.0005116210502572357,-0.009883061861491295
1772699663945257500,2.604257568359375,0.07485504223704338,-0.01332230417872779,-0.007034044518120936
1772699663955214600,2.614214599609375,0.08278583523631096,-0.004046635909145698,-0.004589060235509532
1772699663965171500,2.62417138671875,0.06916881329417228,-0.012918367586913518,0.002287876900093397
1772699663975128300,2.63412841796875,0.07380757901072502,-0.007808847120031714,-0.0033058525953791103
1772699663985085400,2.64408544921875,0.08024199597239494,-0.0009395687053212895,-0.0004253726763097802
1772699663995042600,2.65404248046875,0.07485504223704338,0.004669156288239174,0.017696392218751134
1772699664004999700,2.663999755859375,0.07769874123036861,0.008943764867517166,-0.009468315039650768
1772699664014956500,2.67395654296875,0.074257076343894,0.001524268691521138,-0.00042601542205957226
1772699664024913700,2.68391357421875,0.07006663891673087,0.01206314813022036,-0.0038194994934747225
1772699664034870500,2.69387060546875,0.0787450354129076,0.005192449509981088,0.006162938509951346
1772699664044827400,2.703827392578125,0.06572656388580798,0.0014636473783524707,-0.0011097638982755598
1772699664054784500,2.713784423828125,0.057496495679020876,-0.009060354151623323,-0.012794026537903118
1772699664064741600,2.72374169921875,0.08128770563304424,0.012637249090592375,-0.007973774195290752
1772699664074698500,2.733698486328125,0.0744055449038744,0.013699873353424482,0.015577330263634212
1772699664084655600,2.743655517578125,0.06737140848338603,0.0021270614568376913,0.008809677600982831
1772699664094612500,2.753612548828125,0.06467910065948963,-0.011469625516748055,0.011369344621693016
1772699664104569300,2.7635693359375,0.08128770563304424,0.007554045808478258,0.0001878992421814473
1772699664114526500,2.7735263671875,0.06692191115021705,0.0009424319492653012,-0.0005422839041129919
1772699664124483600,2.783483642578125,0.06557458819448947,-0.000973822601372376,-0.011349901277350727
1772699664134440400,2.7934404296875,0.07170914542675018,0.006966934669483452,-0.015226349985052364
1772699664144397600,2.8033974609375,0.06781856772899628,-0.01555783554529771,0.01673459569860133
1772699664154354700,2.813354736328125,0.07814414691030978,-0.0022158676848746833,0.001162006683810614
1772699664164311300,2.823311279296875,0.06378010599315166,0.0036206381825730203,0.004649937847827096
1772699664174268400,2.833268310546875,0.06557634176015853,-0.004660470658284612,0.001244497906314791
1772699664184225500,2.8432255859375,0.08128712111115455,-0.0012205228048609569,-0.00951664198518265
1772699664194182700,2.8531826171875,0.09086392775177955,-0.010444456320628523,0.001487100177531829
1772699664204140500,2.863140625,0.06317980201244354,0.004316945317084901,-0.010651426160283153
1772699664214096600,2.8730966796875,0.06303016440868377,0.0057921415693359445,-0.015112082805484532
1772699664224053500,2.883053466796875,0.061385319811105725,0.0015238439998356624,0.02417260135388933
1772699664234010400,2.89301025390625,0.07200900515615939,-0.0034463319284375755,0.0056795800063759085
1772699664243967500,2.902967529296875,0.07993979815542697,0.0017799422193318605,0.011640270517562749
1772699664253925600,2.912925537109375,0.08517769880890846,-0.010986330945254303,-0.006286269774564425
1772699664263881500,2.922881591796875,0.08383154489696025,-0.0007287115667713805,-0.01582111927411752
1772699664273838600,2.932838623046875,0.085476974016428,-0.003675423409999348,-0.00822853954504826
1772699664283796500,2.94279638671875,0.06243278303742408,-0.005526147576910443,-0.007336298846482531
1772699664293752300,2.95275244140625,0.061085460081696505,-0.009558617963385767,0.007377623516603489
1772699664303709400,2.96270947265625,0.0833808785200119,-0.008755649283737874,0.0093940898928151
1772699664313666600,2.97266650390625,0.05689677622020244,-0.005919571907864883,0.004525245172367431
1772699664323623400,2.98262353515625,0.07694821512401104,-0.0108235278992448,0.004596822846034774
1772699664333581600,2.99258154296875,0.07425473825633526,0.005206797695741988,0.005993056127539603
1772699664343537700,3.00253759765625,0.08068915521800518,-0.009042960058827884,-0.018463566924165932
1772699664353494500,3.01249462890625,0.07829553807973862,-0.007237951896898448,-0.006479719691409263
1772699664363452400,3.022452392578125,0.08981763356924057,0.004527163134817965,-0.00200565500454104
1772699664373408500,3.032408447265625,0.07814531595408916,-0.024527264577033928,-0.001647848263772903
1772699664383365600,3.04236572265625,0.0796422765135765,-0.008069361219741403,0.005880484860602882
1772699664393323500,3.052323486328125,0.0639309126406908,-0.014189752929331735,0.0004585551391704939
1772699664403280400,3.0622802734375,0.07335925072133541,-0.0036973886466352265,-0.005934365334908943
1772699664413237500,3.072237548828125,0.07395721661448479,-0.004183930054563098,0.010799998609896283
1772699664423194400,3.0821943359375,0.0669242492377758,-0.007010846876446157,0.004218996801367029
1772699664433151500,3.0921513671875,0.06617606121897697,-0.0010775113047100603,0.014255507075344212
1772699664443108600,3.102108642578125,0.07290975338816642,-0.00008152253730222582,0.0034459831560991003
1772699664453065700,3.112065673828125,0.07365794140696526,-0.0039088577065384015,0.002836974708305206
1772699664463022600,3.122022705078125,0.07635141827464104,-0.013756791172432713,0.004168954535250668
1772699664472979500,3.1319794921875,0.07665127800405025,-0.012469020950794218,0.0035365988903766263
1772699664482936600,3.1419365234375,0.0729103379100561,0.0070999681983143085,0.0037986747595103224
1772699664492893400,3.1518935546875,0.06662555855214596,-0.01131699680488091,0.003159275169207831
1772699664502850600,3.1618505859375,0.06827215671539306,-0.0007187153291422873,-0.00018014233987778425
1772699664512807700,3.1718076171875,0.0663274523884058,0.008987498977966605,-0.022424058919819072
1772699664522764500,3.1817646484375,0.07530570861399173,0.0039457145516294985,-0.00044434452154964673
1772699664532721400,3.191721435546875,0.07530629313588141,0.005845835384796373,-0.006783785809300024
1772699664542678500,3.201678466796875,0.07276245387196541,0.008521187507314607,-0.011416963747749104
1772699664552634400,3.21163427734375,0.05660100814402103,0.001209786781715229,-0.0008712310182221698
1772699664562592500,3.221592529296875,0.06812310363352299,0.002465604662243277,-0.009576320300146471
1772699664572549600,3.231549560546875,0.0759042590290308,-0.0018541993322083725,-0.009501996401077486
1772699664582506500,3.241506591796875,0.08473287765085696,-0.021640251598367466,-0.014564658647839677
1772699664592463600,3.251463623046875,0.07201368133127689,0.004237724334723316,-0.0008605612104467581
1772699664602420500,3.26142041015625,0.05615151081085205,-0.007383780975220725,0.005836905442958232
1772699664612377300,3.27137744140625,0.07739946602284908,-0.012307638110313563,0.0046191973621578656
1772699664622334500,3.28133447265625,0.0703659141242504,0.0012371177466353402,-0.003700436266136239
1772699664632291600,3.29129150390625,0.06303367154002189,-0.0018212240777909755,0.0013598348066065228
1772699664642248700,3.301248779296875,0.07425590730011462,0.0035750226422911506,-0.008033443377100047
1772699664652205600,3.31120556640625,0.07290916886627674,-0.001906929599866271,0.0009966800330410478
1772699664662162400,3.321162353515625,0.061088382691144937,0.0033491277648136017,-0.004233400356877246
1772699664672119600,3.33111962890625,0.07874620445668697,-0.003004492745338939,-0.00615198728685209
1772699664682076400,3.341076416015625,0.07889642658233642,-0.006739724617754109,-0.003438023041107226
1772699664692033500,3.351033447265625,0.07605448115468025,-0.0015573718101019038,0.0047521172973793
1772699664701990700,3.36099072265625,0.07695230677723884,-0.006734514153096825,-0.003077724661619868
1772699664711947500,3.370947509765625,0.0649807139545679,-0.009184418922709301,-0.005343236749566859
1772699664721905200,3.3809052734375,0.05959434474110603,-0.008351776624005287,0.00356820702572586
1772699664731862000,3.390862060546875,0.07754968814849852,0.0010095697681885211,0.004366541771095945
1772699664741819100,3.400819091796875,0.0750064334064722,-0.004558969345455989,0.003570647861273028
1772699664751776300,3.4107763671875,0.07291209147572517,-0.0028242179747205226,-0.0016786452608357648
1772699664761733000,3.420733154296875,0.06782441294789314,-0.013719852128950879,-0.009352997547312406
1772699664771690200,3.430690185546875,0.07919745535552501,-0.010696554218442178,0.009636405040486715
1772699664781647000,3.440647216796875,0.06752513774037361,0.00540602832857985,0.0020741274056694237
1772699664791604000,3.45060400390625,0.07321253572702408,0.00742060585427098,-0.00557539297529438
1772699664801561000,3.46056103515625,0.07381108614206314,-0.005632188067538664,-0.00246758256102039
1772699664811518200,3.470518310546875,0.07111760927438736,-0.002163927435083315,0.006022888435155619
1772699664821475000,3.48047509765625,0.07291267599761486,0.0007069015937624499,-0.0066666279863246015
1772699664831432200,3.49043212890625,0.07351064189076423,-0.00488774464209564,-0.002779117316025076
1772699664841389000,3.50038916015625,0.07590484355092048,0.006754588826745748,-0.010175206358614377
1772699664851346200,3.51034619140625,0.08563128779530525,-0.004174883665004745,-0.00552992699041788
1772699664861303000,3.520302978515625,0.08069266234934329,-0.008044445974193513,-0.00594520753097604
1772699664871260200,3.53026025390625,0.0759042590290308,-0.005251527320034801,-0.006281140366653562
1772699664881217300,3.54021728515625,0.06947101111114025,-0.002616470675286837,0.0032457981086132346
1772699664891174100,3.550174072265625,0.05600362677276134,-0.007320693710329942,-0.005185699537963956
1772699664901131300,3.56013134765625,0.0570510899990797,0.007297769492468797,0.004001032356129144
1772699664911088000,3.570088134765625,0.07545651526153087,-0.006936210737656802,-0.0037827282717073103
1772699664921045000,3.580044921875,0.08039455618560314,-0.012880720723955892,0.012110930511413607
1772699664931002000,3.590002197265625,0.08189093222320079,0.0001475050121778622,0.002688199046003865
1772699664940959200,3.599959228515625,0.07276303839385509,-0.004174303709692321,0.0030469984465045855
1772699664950916000,3.609916015625,0.07366144853830336,-0.018267112770304083,0.007339301941855228
1772699664960873200,3.619873291015625,0.07889934919178486,0.004581879863585345,-0.006990498208161443
1772699664970830000,3.629830078125,0.06797638863921165,0.016337633411912248,-0.001140431318708579
1772699664980787000,3.639786865234375,0.07889993371367454,0.0005983403524849563,-0.0033092780991486504
1772699664990744000,3.649744140625,0.07545768430531025,0.0013858283352106808,0.012398552955401827
1772699665000701200,3.659701171875,0.07321312024891376,0.006503194181830622,-0.010759114043659064
1772699665010658300,3.669658203125,0.07291442956328392,-0.0017553922999650239,-0.01611154217161238
1772699665020615200,3.679615234375,0.06498422108590603,-0.006191981941345148,0.007772432662112987
1772699665030572300,3.689572265625,0.07111877831816672,0.006365342913987115,0.0004992924332909752
1772699665040529200,3.699529052734375,0.059896542558073994,0.01103833969370462,0.011200254540436435
1772699665050486000,3.709486083984375,0.09805354699492454,-0.009401116713578812,-0.002710576987059903
1772699665060443100,3.719443115234375,0.07231646367013454,0.0053692993476521225,-0.016804463189083615
1772699665070400300,3.729400146484375,0.08039689427316188,0.0022720776844071225,-0.004341395913396264
1772699665080357000,3.739357177734375,0.07860124302804469,-0.007586532439128496,0.00006717492236348334
1772699665090314200,3.749314208984375,0.08264204285144805,0.01226078046101611,-0.008147958864306564
1772699665100271000,3.75927099609375,0.09236907161772251,0.0025041648406535387,-0.002690510875743348
1772699665110228000,3.76922802734375,0.06693126350045203,-0.004728498959774151,-0.017578443236264864
1772699665120185000,3.77918505859375,0.05645487767159939,-0.01427136223160196,0.006733740689072874
1772699665130142200,3.78914208984375,0.07665653870105743,-0.014146420677681452,0.004101651177901658
1772699665140099000,3.79909912109375,0.06139350311756134,-0.003587973455409519,-0.008874359742982778
1772699665150056200,3.80905615234375,0.06827624836862087,-0.005502734735282138,-0.013837156082398723
1772699665160013300,3.819013427734375,0.07321487381458282,0.007873701650323346,0.012713252919272054
1772699665169970000,3.828969970703125,0.06378770477771759,0.006863638691790402,-0.009247159127728081
1772699665179927000,3.838927001953125,0.0637871202558279,0.011335550808301195,-0.01739621168728918
1772699665189884200,3.84888427734375,0.08024667214751244,-0.002303956960281357,0.010514884358469862
1772699665199841300,3.85884130859375,0.08279051141142844,-0.008266422728379257,-0.011351834081177367
1772699665209798100,3.868798095703125,0.08129413537383079,-0.008592887336923741,-0.012621744419139576
1772699665219755300,3.87875537109375,0.06408522641956806,0.0006861236672149971,0.010220575303724035
1772699665229712100,3.888712158203125,0.07860007398426533,-0.013874864594149402,0.007456387270416598
1772699665239669000,3.8986689453125,0.07815057665109634,0.0002565731435315683,-0.005595559551310725
1772699665249626000,3.908626220703125,0.07500877149403094,-0.0019107563916128127,0.004015071727102622
1772699665259583200,3.918583251953125,0.06617956835031509,0.00028657555615063755,-0.005657363607990555
1772699665269540000,3.9285400390625,0.0774029731541872,0.0035025282282382247,-0.007011276134708896
1772699665279497200,3.938497314453125,0.0934147812783718,0.0010677251296350731,-0.004021093330046278
1772699665289454300,3.948454345703125,0.06498363656401634,0.003076188008370809,0.010452720683830557
1772699665299411000,3.958410888671875,0.08159341058135032,-0.002182650401862338,0.009336517911613919
1772699665309368000,3.9683681640625,0.08308861757516861,-0.009417766454280354,0.014815358031366485
1772699665319325200,3.9783251953125,0.0844353560090065,-0.004360072072758339,0.0022265483382710952
1772699665329282000,3.988281982421875,0.07500818697214126,-0.0053990734314080325,0.0016723553714778972
1772699665339239200,3.9982392578125,0.07994622789621353,-0.0017153251510579138,-0.003432982681452995
1772699665349196300,4.0081962890625,0.0735118109345436,0.012675786436116322,0.006101017434729146
1772699665359153200,4.018153076171875,0.06498246752023697,-0.00619995061866939,-0.0028959126669302346
1772699665369110000,4.028110107421875,0.07410977682769299,-0.010265122264926322,-0.011115347027737879
1772699665379067100,4.038067138671875,0.05196341147124767,-0.01096545255400706,-0.006249674366021645
1772699665389024300,4.048024169921875,0.07171499064564704,-0.0021955190165899694,-0.0011406722056592116
1772699665398981000,4.057981201171875,0.06288578750193119,-0.013681200618995353,0.013609334109316114
1772699665408938200,4.067938232421875,0.08518237498402595,-0.0037366749108303336,0.011632250466244295
1772699665418895400,4.077895263671875,0.07111702475249766,0.001440366967464797,0.003099300597544061
1772699665428852000,4.08785205078125,0.07007014604806899,-0.007561945987143553,0.014258397718751802
1772699665438809000,4.09780908203125,0.08593173204660415,0.005213615595595911,0.005033710146913654
1772699665448766200,4.10776611328125,0.0808446380406618,0.00472582294549793,0.00039434792120591734
1772699665458723000,4.11772314453125,0.0703705902993679,-0.012055206852359697,0.003331404878455214
1772699665468680200,4.12768017578125,0.07246551675200462,0.008431344666238873,-0.00841990481937246
1772699665478637300,4.13763720703125,0.06393675785958766,0.0020982006885344163,-0.005814625112491194
1772699665488594200,4.14759423828125,0.0920686273664236,-0.0004168143396964296,-0.012499772282084449
1772699665498551000,4.157551025390625,0.08039689427316188,0.006974647618480958,0.0005487182114768074
1772699665508508200,4.167508056640625,0.07845218994617462,0.004071204094821587,0.009269704319676384
1772699665518465000,4.177465087890625,0.08294190258085728,-0.01464557953858748,0.0003168445427174447
1772699665528422100,4.187422119140625,0.061245034557580944,-0.0148553315654397,0.00028525153415539535
1772699665538379300,4.197379150390625,0.06648293521106242,-0.0076860701237339525,-0.008564828002930153
1772699665548336000,4.207336181640625,0.07680792987048625,-0.004513509068801068,0.0016281212208181387
1772699665558293000,4.21729296875,0.08025017927885054,0.00008008863204158841,0.008704679431614931
1772699665568250000,4.22725,0.06723112322986126,0.00196663303100504,-0.0003315666169917676
1772699665578207200,4.237207275390625,0.083990534850955,-0.00765691252790857,-0.010395935295562958
1772699665588164000,4.2471640625,0.06827800193428993,0.00019219353727530688,-0.0003847050224925624
1772699665598121200,4.257121337890625,0.06483692156970501,0.010622023110929876,-0.004739758141427592
1772699665608078300,4.267078369140625,0.08294248710274696,0.01769064632290974,-0.00012181401931738945
1772699665618035200,4.27703515625,0.078453358989954,0.006437567899981513,0.008334059445868479
1772699665627992000,4.286991943359375,0.06722995418608188,0.007558781349100172,-0.018091540432622424
1772699665637949200,4.29694921875,0.07351414902210235,-0.0010954488201998173,0.00363394690118439
1772699665647906000,4.306906005859375,0.06872574570178985,0.0005676209872355684,-0.004094958858922473
1772699665657863200,4.31686328125,0.07890110275745392,-0.0046250933842267835,0.00683662282070145
1772699665667820300,4.3268203125,0.0868313112348318,-0.0012269662453792988,-0.0030685004609593306
1772699665677777200,4.336777099609375,0.07052081242501736,-0.0036708522661589083,-0.0015259540439423289
1772699665687734000,4.346734130859375,0.07156769112944603,0.0029327792159980163,0.02100726462418679
1772699665697691100,4.356691162109375,0.06767594438791275,0.008551463914569468,0.005171174968156265
1772699665707648000,4.36664794921875,0.08114332872629165,-0.0010355809922795742,-0.005002382285243948
1772699665717604000,4.37660400390625,0.06378653573393821,0.002754842532938346,-0.013285201880108797
1772699665727561200,4.386561279296875,0.06947334919869899,-0.011328267117566428,-0.005731694927747594
1772699665737518300,4.396518310546875,0.05929799214303493,-0.00965819218060933,-0.0004838516939198598
1772699665747475500,4.406475341796875,0.07605740376412869,-0.004328320661047473,-0.012347933588083834
1772699665757432300,4.416432373046875,0.0729150140851736,-0.0018961981432978063,-0.010583435533056035
1772699665767389200,4.42638916015625,0.08009703454375267,0.0064146756481612095,0.010086808839242439
1772699665777346300,4.43634619140625,0.07755261075794696,0.0064637617871630935,0.00328509293514071
1772699665787303200,4.44630322265625,0.0771025289028883,-0.012031529149250127,-0.0028316198256419737
1772699665797260300,4.45626025390625,0.08308686400949955,-0.0010645513584371655,-0.00985839549440425
1772699665807217400,4.466217529296875,0.08458265552520751,-0.005841236841492355,-0.011788639754487667
1772699665817174300,4.47617431640625,0.07096563358306884,-0.005826066671824082,-0.0038579152538790367
1772699665827131400,4.48613134765625,0.06647708999216556,0.00031043592235073444,-0.004936206301656784
1772699665837088300,4.496088134765625,0.06872223857045173,-0.004402696504932828,0.0015812190473923691
1772699665847045000,4.506045166015625,0.07246376318633556,-0.01164558487185277,-0.006642060942293028
1772699665857002200,4.516002197265625,0.0679740505516529,-0.009586880510067567,-0.0024921484634076478
1772699665866959400,4.52595947265625,0.07725216650664805,-0.0035047156187472863,0.010686005424964241
1772699665876916200,4.535916259765625,0.06827332575917243,0.005122083120932802,-0.007387079185649054
1772699665886873300,4.545873291015625,0.053309565383195874,0.00062646590184886,-0.0071015436674701045
1772699665896830200,4.555830322265625,0.07770107931792736,-0.007574513207771815,-0.001431872562933131
1772699665906787000,4.565787109375,0.08862462439239024,-0.010912297594663686,0.0007702582867117598
1772699665916744200,4.575744140625,0.07411036134958267,-0.005431436764472164,-0.003423939146005432
1772699665926701300,4.585701416015625,0.07695347582101822,-0.001992653388250619,-0.004228003804196487
1772699665936658400,4.595658447265625,0.06602993074655532,-0.0033742713392246513,0.008547441330822766
1772699665946615300,4.605615234375,0.06902268282175064,0.005344292770558968,0.0018525525102828396
1772699665956572400,4.615572509765625,0.0783007987767458,0.004058751038624905,-0.004024186044497765
1772699665966529300,4.625529296875,0.07411094587147235,-0.00025612561895977705,-0.0030194688354735263
1772699665976486100,4.635486083984375,0.07022095269560813,-0.0008725678837159648,-0.008548154858520137
1772699665986443300,4.645443359375,0.07291442956328392,0.0018055607177782803,0.008721217861995683
1772699665996400400,4.655400390625,0.08503507546782493,0.0019412565611535682,-0.006474929922682349
1772699666006357200,4.665357177734375,0.07530921574532985,-0.003014689912367612,0.01077207627322059
1772699666016314400,4.675314453125,0.06767828247547149,0.005606085511902347,-0.0017128757531783775
1772699666026271200,4.685271240234375,0.08144552654325962,0.004804623802751302,-0.013743308353063184
1772699666036228000,4.69522802734375,0.07067220359444618,-0.005046364703332073,0.006747459257993614
1772699666046185200,4.705185302734375,0.07336568046212195,-0.013203299175249412,0.004852510073577287
1772699666056142300,4.715142333984375,0.0800999571532011,-0.010992504957714118,0.0010822696782182902
1772699666066099200,4.72509912109375,0.06498655917346477,0.007543168221437372,-0.006604363846985506
1772699666076056300,4.735056396484375,0.08174597079455852,0.004809820567676797,0.00009264443622669205
1772699666086013400,4.745013427734375,0.07710778959989548,0.005384410151815973,-0.0017988158831605686
1772699666095970300,4.75497021484375,0.07396598444283008,0.0033290302582783624,0.0077989165269507785
1772699666105927200,4.76492724609375,0.07306815882027148,0.0031581489370903,0.005036168107125559
1772699666115884300,4.77488427734375,0.07217033319771289,0.0013330706680892035,-0.011340875437390058
1772699666125841400,4.78484130859375,0.08429039458036422,-0.004280207203002646,0.007292299874551826
1772699666135798300,4.79479833984375,0.08668459624052047,-0.019514254154032094,0.0016371099573385436
1772699666145755400,4.80475537109375,0.08144728010892868,0.0006139854461885988,-0.0023785776868724498
1772699666155712300,4.814712158203125,0.09177227476835251,0.0024865332858404142,0.017595859020302303
1772699666165669000,4.824669189453125,0.06932721872627735,0.004478300758101977,0.018427972737688106
1772699666175626200,4.834626220703125,0.06364040526151657,-0.004099347910494543,-0.004583152226175297
1772699666185583400,4.844583251953125,0.06588555383980274,0.005103008527704515,0.003465354006027337
1772699666195540200,4.854540283203125,0.07621054849922657,-0.011412086643232032,0.003236993176827673
1772699666205497300,4.864497314453125,0.07231938627958297,-0.010303554579173214,0.007911696143975131
1772699666215454500,4.874454345703125,0.07187047346830368,0.0063248602065490555,0.00833984587008308
1772699666225411000,4.8844111328125,0.06558627863228321,-0.00975772073206026,-0.003285526189158554
1772699666235368200,4.8943681640625,0.06962707845568657,0.0009994365332415328,0.00027593200619448904
1772699666245325300,4.9043251953125,0.07800619974434375,0.00913782613489311,-0.003332608742386219
1772699666255282200,4.9142822265625,0.055710196784138674,0.008095025383960456,-0.0049296115932665995
1772699666265239300,4.9242392578125,0.07531272287666797,-0.0010739950402174144,-0.016025334326038136
1772699666275196400,4.934196533203125,0.07950199126005172,-0.0025328201129799707,0.0015580716380674856
1772699666285153300,4.9441533203125,0.07845452803373336,0.007183089037658646,-0.010799207450385437
1772699666295110100,4.954110107421875,0.08264496546089649,0.015308189899474382,0.0023589100094221064
1772699666305067300,4.9640673828125,0.07306874334216118,-0.003783811121340841,-0.002195687409126549
1772699666315024400,4.9740244140625,0.07785656214058399,-0.0016915606829803437,-0.00939072375454998
1772699666324981200,4.983981201171875,0.07201952655017375,0.0021769421802833675,-0.005506052353663835
1772699666334938400,4.9939384765625,0.07725567363798617,-0.009319868170912377,0.002056849189772038
1772699666344895500,5.0038955078125,0.07994798146188259,-0.01044932429199107,-0.0067286860588646955
1772699666354852000,5.01385205078125,0.08279109593331814,-0.0060248041143175215,0.016951080001983792
1772699666364809200,5.023809326171875,0.06842588597238064,-0.008867114868154748,0.0006946837162948213
1772699666374766300,5.033766357421875,0.06588204670846462,-0.008097368038096464,-0.01475383253589971
1772699666384723200,5.04372314453125,0.07082067215442657,0.014134611508878878,0.003303991144322208
1772699666394680300,5.053680419921875,0.06692950993478297,0.0012106726977042853,-0.001141894906721427
1772699666404637400,5.063637451171875,0.0633382074445486,-0.0005651641686679795,0.007810260475694667
1772699666414594000,5.073593994140625,0.062141106614470476,0.00861547362806741,-0.00857537679640809
1772699666424551200,5.08355126953125,0.05780161610543728,0.0016091019973391667,0.009300573811153299
1772699666434508300,5.09350830078125,0.06887479878365993,-0.002140404995600693,0.008414862176429597
1772699666444465200,5.103465087890625,0.07456044320464134,0.0038812207809416576,0.0052406640035478624
1772699666454422300,5.11342236328125,0.06408522641956806,0.012170691024768166,0.00848368163742998
1772699666464379400,5.12337939453125,0.062139353048801416,-0.004430694190133363,-0.010488591148232808
1772699666474336500,5.13333642578125,0.07425999895334243,-0.0023530156998196614,-0.009438612879486753
1772699666484293000,5.143293212890625,0.06543079580962657,0.01455206060281489,0.00439210432897089
1772699666494249200,5.153249267578125,0.062138768526911733,0.006289957856526598,0.008001646870438708
1772699666504207400,5.163207275390625,0.07874737350046634,-0.01276058777589351,-0.0020317632683989357
1772699666514164200,5.173164306640625,0.07171440612375736,-0.002739462300715968,-0.0011581068268278613
1772699666524121300,5.183121337890625,0.0750064334064722,0.0054067041820148,-0.011276824624696745
1772699666534078500,5.193078369140625,0.07216273441314697,0.00033487624386325474,-0.020034592800284735
1772699666544035000,5.20303515625,0.07724865937530993,-0.010081020702561363,-0.00277258825218305
1772699666553992200,5.2129921875,0.0675210460871458,-0.0031459059434477236,0.0010487475761736277
1772699666563949300,5.22294921875,0.05539923113882542,-0.0009552548982203007,-0.010315803281037369
1772699666573906200,5.23290625,0.07619944258332252,-0.0013755763692548497,-0.0044420586884749355
1772699666583863300,5.24286328125,0.07141162378489971,-0.008439377275644802,0.0021148504292359573
1772699666593820400,5.2528203125,0.07545183908641338,-0.00810053724271711,0.010245677778939716
1772699666603776300,5.2627763671875,0.07575111429393291,-0.010680927391047588,0.0086232179722836
1772699666613734100,5.272734130859375,0.058842065069079394,0.0003497541525866836,-0.004328912032803054
1772699666623690200,5.282690185546875,0.07186170563995838,-0.004564791731466539,0.006460852306624292
1772699666633648000,5.292648193359375,0.08562836518585681,-0.007379515792056918,-0.008011414208382485
1772699666643605200,5.302605224609375,0.0787450354129076,0.004063482012669556,-0.018853730718954465
1772699666653561300,5.312561279296875,0.07425532277822494,-0.0036054543131729586,0.0003892290735049755
1772699666663519500,5.32251953125,0.06018997254669666,0.004936730316397734,0.007624170168931596
1772699666673476000,5.33247607421875,0.08128887467682361,0.0037357570288004353,-0.011515994542278349
1772699666683432400,5.342432373046875,0.07904489514231682,-0.008417165443836711,-0.009021240275719902
1772699666693389000,5.35238916015625,0.06842062527537346,-0.0014590808010892943,0.004791679268676671
1772699666703346200,5.36234619140625,0.06333353126943111,0.01053212090434972,0.006346309990776353
1772699666713303300,5.37230322265625,0.07096563358306884,-0.006571533010574057,0.015362030987051547
1772699666723262000,5.382261962890625,0.0738087480545044,-0.009703255165042356,-0.0007481143827404594
1772699666733218000,5.392218017578125,0.06797288150787353,0.00015739165195263922,-0.010049264724273234
1772699666743175000,5.4021748046875,0.05869535007476806,-0.01282093966100365,-0.011981085595156763
1772699666753132000,5.412132080078125,0.07889642658233642,-0.0006414945076219737,0.009686214981984811
1772699666763089200,5.422089111328125,0.07620236519277096,0.004539287397451699,0.0028884012181544677
1772699666773046000,5.4320458984375,0.06498012943267822,-0.004330266022961587,-0.0008677495738811557
1772699666783003100,5.442003173828125,0.07754968814849852,-0.007730224359291605,-0.005123368612432387
1772699666792960300,5.451960205078125,0.06887070713043213,-0.002259359766729176,-0.01216106696318602
1772699666802917000,5.461917236328125,0.06602759265899658,0.007574421876226551,0.007834023231305763
1772699666812874000,5.4718740234375,0.06857201644480228,-0.0121584343313938,0.0025382560523896243
1772699666822831000,5.4818310546875,0.06423369497954845,0.00009639587944839149,0.0024450059738534034
1772699666832788000,5.4917880859375,0.05450725073516369,-0.016228912340430543,-0.020736158348515162
1772699666842745000,5.5017451171875,0.06692658732533455,0.0004431863233912736,-0.004154681127192452
1772699666852702200,5.5117021484375,0.06602876170277595,0.0035726617218460885,-0.01027732415937353
1772699666862659000,5.5216591796875,0.0693207889854908,0.0013415508020669222,0.003219392446411075
1772699666872616000,5.531615966796875,0.07874854254424571,-0.008610313395760022,0.002977965498017147
1772699666882573000,5.541572998046875,0.07515724005401134,-0.0032156695442972704,-0.006619493488280568
1772699666892530000,5.551530029296875,0.08832534918487071,-0.005096368724363856,-0.008373030616232426
1772699666902487000,5.561487060546875,0.07710311342477798,-0.007559406970185228,0.012475780626788037
1772699666912444200,5.571444091796875,0.07904840227365494,0.002043401761376299,0.009088957479133387
1772699666922401000,5.581401123046875,0.07994564337432385,0.003549125582631677,-0.009535319286189042
1772699666932358100,5.591358154296875,0.08443418696522713,0.004480232420284301,-0.010639988025883212
1772699666942315000,5.60131494140625,0.07859773589670657,-0.012668087186850606,-0.008197886965991347
1772699666952272100,5.611272216796875,0.060492170363664624,0.0034383358516497536,-0.0057578522823110686
1772699666962229000,5.62122900390625,0.08218903838694096,-0.012315561121865175,-0.006486640910073766
1772699666972186000,5.63118603515625,0.06842237884104252,-0.007378817105735651,0.004030811577284476
1772699666982143200,5.641143310546875,0.07665244704782963,-0.0013798917847685514,-0.00008264876941975671
1772699666992100000,5.65110009765625,0.08188917865753173,-0.007434565880964509,-0.004234641324248514
1772699667002057000,5.661056884765625,0.07770049479603768,-0.006699794466164894,0.015287864064075982
1772699667012014000,5.67101416015625,0.07620411875844,0.008587818436161614,-0.007689586959048756
1772699667021971000,5.680970947265625,0.05899579432606697,0.021047683399543164,0.005463080861617345
1772699667031928000,5.690927978515625,0.05540449183583259,-0.002917476615589112,0.00021258672968833706
1772699667041885200,5.70088525390625,0.06572948649525642,0.00008672843538224697,-0.0013488507612331886
1772699667051842000,5.710842041015625,0.0757563749909401,-0.00496281917230226,-0.002050339248472301
1772699667061799200,5.720799072265625,0.06692658732533455,0.0026171876279171553,-0.008092606239655287
1772699667071756000,5.730756103515625,0.05869710364043712,-0.006278495747596025,0.002038514667471463
1772699667081713000,5.740712890625,0.0771025289028883,-0.005041113139479421,-0.004400616999811609
1772699667091670000,5.750669921875,0.0769540603429079,0.0031096838525962083,-0.014285284584033069
1772699667101627100,5.760627197265625,0.0744096365571022,0.0017846001281403004,-0.00957712401774479
1772699667111584000,5.770583984375,0.062139353048801416,-0.002106589490966871,-0.0029094086152093948
1772699667121541000,5.780541015625,0.06992050844430923,0.0037652114521479233,-0.006700433786981739
1772699667131498000,5.790498046875,0.06049275488555431,0.006499641384719871,0.007079777076945174
1772699667141455000,5.800455078125,0.06602934622466564,-0.008036819790164008,0.01128140832662466
1772699667151412000,5.810411865234375,0.09341361223459244,-0.016407255448866634,-0.010630899395485175
1772699667161369000,5.820369140625,0.08084346899688244,-0.005516658229357562,-0.007033075832918984
1772699667171326200,5.830326171875,0.0762047032803297,-0.011245895196893252,-0.006198876902190386
1772699667181283000,5.840282958984375,0.07650456300973892,0.008688369900919497,0.002561602678647614
1772699667191240200,5.850240234375,0.07680383821725845,0.011580730341561138,-0.004943770836893236
1772699667201197000,5.860197021484375,0.07141688448190689,0.009304684301512316,-0.009767211221257456
1772699667211154000,5.87015380859375,0.06572948649525642,0.009969810846471227,-0.014206821653497171
1772699667221111000,5.880111083984375,0.08069383139312267,0.006226605730154551,-0.0014149414069077465
1772699667231068200,5.890068115234375,0.07111760927438736,-0.009854344940371811,-0.009394740059252945
1772699667241025000,5.90002490234375,0.06677753424346447,-0.0030413404572755096,0.0014787513326504267
1772699667250982100,5.909982177734375,0.07201543489694595,-0.0011703543870477005,-0.004115794438507873
1772699667260939000,5.91993896484375,0.06887304521799087,0.009483881359896622,-0.0011228305882919811
1772699667270895900,5.929895751953125,0.07620528780221938,-0.018790574955404735,-0.01449306613279623
1772699667280853000,5.93985302734375,0.07650397848784923,-0.011389345088461414,-0.0013025082789332371
1772699667290810000,5.94981005859375,0.06827332575917243,0.0024113993901293722,0.006196526256544166
1772699667300767200,5.959767333984375,0.06453297018706798,-0.007180974712385796,-0.010623378242732724
1772699667310724000,5.96972412109375,0.07007014604806899,-0.018149418374500237,-0.011388007081323303
1772699667320681200,5.97968115234375,0.0618394933193922,-0.0019175879911985246,0.0004491908016701927
1772699667330638000,5.98963818359375,0.06049275488555431,0.0013328332060715182,0.0008567332770559005
1772699667340595000,5.999594970703125,0.05794833109974861,-0.002673310862481594,0.004503194312407868
1772699667350552000,6.009552001953125,0.07470832724273205,-0.009183893766324036,-0.012735122257785406
1772699667360509200,6.01950927734375,0.07800035452544689,0.00924803134398535,0.008075959353064535
1772699667370466000,6.029466064453125,0.06602934622466564,-0.0023265112853841853,0.020844169317232444
1772699667380423200,6.039423095703125,0.07276245387196541,-0.017395723063522016,0.004536800325309741
1772699667390380000,6.049380126953125,0.07006897700428963,-0.004620928665762767,0.008378435160423395
1772699667400337000,6.0593369140625,0.06917115138173104,-0.0038580043021356684,-0.008599395280345925
1772699667410294000,6.0692939453125,0.06288754106760025,-0.007750267066899686,0.0073815404982509785
1772699667420251100,6.079251220703125,0.07515782457590103,-0.013221264090202748,0.01102134745970834
1772699667430208000,6.0892080078125,0.0839864431977272,0.00278160267570056,0.004734360732513596
1772699667440165000,6.0991650390625,0.06543138033151626,0.0015906027928460388,0.008475076493399684
1772699667450122200,6.109122314453125,0.08069441591501235,0.0013758731967769562,-0.004828032077802345
1772699667460078800,6.119078857421875,0.08383622107207775,0.0002605917315231636,-0.006611536227399483
1772699667470036000,6.129035888671875,0.06258826586008072,0.004874839494749903,-0.002531886818751809
1772699667479993000,6.1389931640625,0.06812544172108173,0.008796652580983937,0.007489672481265733
1772699667489950200,6.1489501953125,0.07545768430531025,-0.011483316115383058,0.0018393453980155754
1772699667499907000,6.158906982421875,0.066480012601614,-0.003926521227392368,0.0026428980287309966
1772699667509864200,6.1688642578125,0.07111877831816672,-0.0049028919788775965,-0.00031704946787212973
1772699667519821000,6.178821044921875,0.08189268578886985,-0.006178063013846985,0.0007292704016639618
1772699667529778000,6.18877783203125,0.08159282605946064,0.0054853908748365935,-0.005622747810691362
1772699667539735000,6.198735107421875,0.06258943490386008,-0.0011366804463090374,0.011457327724178321
1772699667549692200,6.208692138671875,0.0751595781415701,0.003096838070754893,0.02774352549308678
1772699667559649000,6.21864892578125,0.08398819676339626,0.012560521459416486,-0.006679710088539286
1772699667569606100,6.228606201171875,0.06977262440621852,-0.004224335130187683,-0.011736130965827032
1772699667579563300,6.238563232421875,0.07710369794666766,-0.01263685179837048,-0.020100680306437423
1772699667589520000,6.248519775390625,0.09431202237904071,-0.010999660784285515,0.003899632078822469
1772699667599477000,6.25847705078125,0.08473404669463634,0.00865525308260694,0.014261612589145078
1772699667609434000,6.26843408203125,0.0718652127712965,0.005177174309035763,-0.004961344738668412
1772699667619391000,6.278390869140625,0.06632862143218517,-0.011499253470031544,-0.0018201937437959713
1772699667629348000,6.28834814453125,0.07410977682769299,0.012593907705787569,0.006793316826870432
1772699667639305200,6.29830517578125,0.0745581051170826,0.0023647609365405513,0.0010990695451473583
1772699667649261800,6.30826171875,0.0745581051170826,-0.005009434793004766,-0.02127509666396072
1772699667659219000,6.318218994140625,0.06812368815541267,0.0012478446366265415,-0.0037346924454759573
1772699667669176000,6.328176025390625,0.06393383525013924,0.0034994594883173704,0.00241283329539001
1772699667679133200,6.33813330078125,0.07949497699737548,-0.008345451914495788,-0.004757310066549689
1772699667689090000,6.348090087890625,0.06677519615590571,-0.008685648220870644,-0.015328948418068465
1772699667699047200,6.358047119140625,0.06273439633250236,-0.021018658234458417,0.004655039000041142
1772699667709004300,6.36800439453125,0.07919511726796627,-0.003324596111755818,-0.0032390127456223125
1772699667718961000,6.3779609375,0.07470598915517329,0.0069783967784140255,-0.006370162936288397
1772699667728918000,6.38791796875,0.06333294674754142,-0.007479692797479219,-0.00879231147847313
1772699667738875000,6.397875,0.06153671098053455,-0.02174248813013546,0.004127883310167817
1772699667748832000,6.40783203125,0.08323474804759025,-0.0052122775884578,0.00944134198022366
1772699667758789000,6.4177890625,0.07275953126251697,-0.0020392507426440715,-0.0036215534959032083
1772699667768746200,6.427746337890625,0.06557751080393791,-0.008648129222076386,-0.0034328742252429947
1772699667778702800,6.437702880859375,0.0703664986461401,-0.010579307347210123,0.0004959154494048562
1772699667788660000,6.447659912109375,0.07081599597930907,0.0018297361778095364,0.008633452242752537
1772699667798617000,6.4576171875,0.06527940464019776,-0.00030285997067112474,-0.0049514963439782145
1772699667808574000,6.467573974609375,0.06647650547027588,0.0016864506830228491,-0.0018661591980606317
1772699667818531000,6.477531005859375,0.06946984206736087,-0.005071028787130489,-0.0036089254827151307
1772699667828488200,6.48748828125,0.08518295950591563,0.006889238923927768,-0.0227212015357567
1772699667838445000,6.497445068359375,0.06647884355783462,0.013951541992975398,-0.013274421332834753
1772699667848402000,6.50740185546875,0.06228957517445087,-0.006101065954612568,0.0006432863183756126
1772699667858359000,6.517359130859375,0.0865308669835329,0.0024535945640411227,0.011163783571124077
1772699667868316000,6.52731591796875,0.06722761609852314,0.005707965850643813,0.0031540955289470728
1772699667878273000,6.53727294921875,0.07291442956328392,-0.0011532297223107888,0.00046027331386576403
1772699667888230100,6.547230224609375,0.08383739011585711,0.005716783911339007,-0.010825773513613966
1772699667898187000,6.55718701171875,0.06977145536243916,-0.009546827060892247,0.008690487651125295
1772699667908143900,6.567143798828125,0.07470949628651141,-0.01996613980710972,0.00032341727445455034
1772699667918101000,6.57710107421875,0.08308861757516861,-0.013266418406181037,0.005914318060723599
1772699667928057900,6.587057861328125,0.0913192703038454,0.011344720495445652,0.0028718841936046374
1772699667938015000,6.597014892578125,0.08623159177601337,-0.004824684776668436,-0.0015878651297767646
1772699667947972000,6.60697216796875,0.08099486016631126,0.009850531848357059,-0.010452208085532766
1772699667957929200,6.61692919921875,0.08398761224150657,0.002546017521270551,-0.0037689471977602803
1772699667967886000,6.626885986328125,0.07680442273914813,-0.012882264227070846,-0.005438319738052087
1772699667977843000,6.636843017578125,0.0630377631932497,-0.013212701757834292,-0.0031703051657648753
1772699667987800000,6.646800048828125,0.06124211194813251,-0.012298737851227632,-0.003666684408173023
1772699667997757000,6.6567568359375,0.0712684159219265,0.0012527628403389826,-0.02113584802347468
1772699668007714000,6.666714111328125,0.06977145536243916,-0.012995008453121407,0.0041183751254837255
1772699668017671200,6.676671142578125,0.07904898679554462,-0.010654774603061377,0.00432047699377581
1772699668027628000,6.6866279296875,0.09191782071888446,0.003517159541789442,-0.00499567169995571
1772699668037585000,6.6965849609375,0.06423486402332783,0.0007661483671749011,-0.00529813380758278
1772699668047542000,6.7065419921875,0.07725392007231711,0.009384645069390535,0.009834805697906995
1772699668057499000,6.716498779296875,0.08279168045520782,0.017367277853749693,0.002034301714535104
1772699668067456000,6.7264560546875,0.08518588211536407,0.005266478293994441,0.00048656110129231817
1772699668077413000,6.7364130859375,0.08234276764392852,0.0005033509788336232,-0.010192398380365921
1772699668087370000,6.746369873046875,0.06887479878365993,0.0013520493631949647,-0.010924707268376369
1772699668097327000,6.7563271484375,0.07276537648141383,-0.0025864636960905045,0.004862173521888326
1772699668107284000,6.766283935546875,0.06244038182199001,-0.0019885754347546023,-0.0039683573541668005
1772699668117240800,6.77624072265625,0.07171791325509548,-0.001982291824440472,0.007705064801860135
1772699668127198000,6.786197998046875,0.06917348946928978,-0.0004102293352829292,0.0019823991390061566
1772699668137155000,6.796155029296875,0.0717167442113161,-0.0038250792800681665,-0.009439471396012231
1772699668147112200,6.8061123046875,0.06169102475941181,-0.013382245071884244,-0.0035246424494573144
1772699668157069000,6.816069091796875,0.08428630292713642,0.009977637959900311,-0.00024001416355313266
1772699668167026000,6.82602587890625,0.07336334237456321,-0.00046438437504693863,-0.00886534474864311
1772699668176983000,6.835983154296875,0.07381108614206314,-0.023084659986710176,-0.013686663387046428
1772699668186940000,6.84593994140625,0.08129238180816173,-0.009943502794858068,-0.003337816352932714
1772699668196897000,6.85589697265625,0.08548165019154548,0.001236884851194918,-0.0004159700937248999
1772699668206854100,6.865854248046875,0.0853325971096754,0.013378669441887177,-0.0033702795798744773
1772699668216811000,6.87581103515625,0.07889818014800548,0.008841542035480961,0.008779211680771549
1772699668226768100,6.88576806640625,0.07440905203521252,0.005109757928899489,-0.009041539853299037
1772699668236725000,6.89572509765625,0.07276303839385509,-0.0018464315842837095,-0.010348567331256345
1772699668246681900,6.905681884765625,0.06617956835031509,-0.00012338435107376425,-0.009397353283091797
1772699668256639000,6.915638916015625,0.07186579729318618,-0.01143435327396728,-0.012379122169147012
1772699668266596000,6.92559619140625,0.058847910287976264,-0.0042897422163281585,0.003525660796187003
1772699668276553000,6.935552978515625,0.07336334237456321,0.005508726084651425,0.007411764960689469
1772699668286510000,6.945510009765625,0.08189151674509047,0.011141585439047776,0.005311727366450941
1772699668296467000,6.955467041015625,0.07036825221180916,0.0030771835222141814,-0.024409972040029242
1772699668306424000,6.965424072265625,0.08308686400949955,0.008370595488906837,-0.0006727310377464163
1772699668316381000,6.975380859375,0.06797346602976322,0.0007038830861914902,0.0005290165701080696
1772699668326338000,6.985338134765625,0.07081658050119877,0.0062424882858758786,-0.0015780193037862771
1772699668336295200,6.995295166015625,0.08323591709136963,-0.00350451925592497,0.00040996618626813866
1772699668346252000,7.005251953125,0.0850321528583765,-0.00694131160445977,0.00045229293468728425
1772699668356209200,7.015209228515625,0.06662672759592533,-0.008458292038668878,-0.0027085154628366578
1772699668366166000,7.025166015625,0.06273556537628174,-0.0045082301054848355,-0.009507083568148663
1772699668376123000,7.035122802734375,0.07036766768991946,-0.0140053134402493,-0.01039027273975662
1772699668386080000,7.045080078125,0.0684229633629322,-0.0028453931934898716,0.0031927010877188873
1772699668396037000,7.055037109375,0.0723135410606861,0.00483873613490723,-0.0035549448291203587
1772699668405994000,7.064993896484375,0.08787585185170173,-0.0011581935917958617,0.005979094959201756
1772699668415951000,7.074951171875,0.0563017329365015,-0.0016200572161935269,0.019344219932926354
1772699668425908000,7.084907958984375,0.0872761323928833,-0.005979380370280705,0.01214729188287165
1772699668435864800,7.09486474609375,0.07365911045074462,-0.02139755628313869,-0.0011525844078612863
1772699668445822000,7.104822021484375,0.08697627266347407,-0.005000041343574412,0.0008869748641591286
1772699668455779000,7.114779052734375,0.08114040611684321,0.0033211392127675933,0.010632414357492233
1772699668465736000,7.12473583984375,0.07440612942576408,-0.0053739937890786675,-0.002745794145502441
1772699668475693000,7.134693115234375,0.05704875191152096,0.0008131247474811971,0.0006078622369008371
1772699668485650200,7.144650146484375,0.07081541145741939,0.009875643456727265,0.004408071080960508
1772699668495607000,7.15460693359375,0.06902092925608158,0.005436912090610713,-0.010438931903784395
1772699668505564000,7.16456396484375,0.08398410511016845,0.004863066858565434,0.001028845290816389
1772699668515521000,7.17452099609375,0.06557867984771729,-0.006206727419327944,0.005485628336854279
1772699668525478100,7.18447802734375,0.05839665938913822,0.0018028755703475324,0.004625691320437181
1772699668535435000,7.19443505859375,0.06363397552073001,-0.00878134541399777,0.006978730709376395
1772699668545392000,7.20439208984375,0.06243687469065189,-0.018206993780634364,-0.003358957322372589
1772699668555349000,7.214348876953125,0.07410860778391361,-0.02060923718335107,-0.0005443046145519474
1772699668565305900,7.224305908203125,0.07799918548166751,-0.004953338957903906,-0.0018421980817496658
1772699668575263000,7.234262939453125,0.07246317866444588,0.0006809132025577128,0.0022235138476797145
1772699668585220000,7.24422021484375,0.06543021128773689,-0.0018390382956946269,-0.01205159811467747
1772699668595177000,7.254177001953125,0.06243687469065189,0.0029766914229607208,-0.0026872072425045187
1772699668605134000,7.264134033203125,0.059443538093566894,0.002821560226753354,-0.011654135787778068
1772699668615091200,7.27409130859375,0.06976853275299072,-0.009248355570971034,-0.014609820955328177
1772699668625047800,7.2840478515625,0.06857201644480228,0.010941409524716436,-0.021852864585875067
1772699668635005000,7.2940048828125,0.06677636519968509,-0.0036481244111200794,-0.006450292667525354
1772699668644962000,7.303962158203125,0.0738081635326147,-0.011752753307064994,0.0038744000269769455
1772699668654919000,7.3139189453125,0.08173954105377197,0.014353145063808187,-0.0060412255261559035
1772699668664876000,7.3238759765625,0.06812310363352299,-0.0026082645359449086,-0.00402327244363405
1772699668674833200,7.333833251953125,0.07650280944406986,-0.01571020852883812,-0.0006283470462702098
1772699668684790000,7.3437900390625,0.08682897314727306,-0.00787639593090862,-0.004141138086085266
1772699668694747000,7.353746826171875,0.08338789278268814,-0.004744856439530849,-0.005310086823569145
1772699668704704000,7.3637041015625,0.06842354788482188,-0.0024904240096686407,0.004451194697112078
1772699668714661000,7.3736611328125,0.09116846365630626,0.004250538150523789,-0.007574541178057552
1772699668724617200,7.3836171875,0.067076809450984,-0.0009140187055338174,-0.0029577244297091963
1772699668734574300,7.39357421875,0.08054536283314227,-0.006654334189509972,-0.0023447382077079965
1772699668744531200,7.40353125,0.0790495713174343,0.0026130685752257703,-0.0005111281453238916
1772699668754488300,7.41348828125,0.07875029610991477,-0.00867496243007481,0.0175806648761034
1772699668764445200,7.423445068359375,0.07815174569487571,-0.0024065542516531423,-0.010874375595425954
1772699668774402300,7.43340234375,0.07096972523629665,0.004304912385996431,-0.008119146045064553
1772699668784359200,7.443359130859375,0.07186813538074494,0.009765762474620715,0.012146125122380908
1772699668794316300,7.45331640625,0.06857610809803008,-0.012465796947246416,-0.008415802320523653
1772699668804273400,7.4632734375,0.078453358989954,0.0034676304447930303,-0.0007160533000089344
1772699668814230300,7.473230224609375,0.08339139991402626,-0.003996088465419598,-0.006602169035788392
1772699668824187400,7.4831875,0.07680676082670689,-0.0013773482012329622,-0.00986759943087818
1772699668834144300,7.493144287109375,0.07142039161324501,-0.0023638658873969686,-0.008749805206485325
1772699668844101000,7.50310107421875,0.07800444617867469,-0.007931455152970739,0.002154231735320354
1772699668854058200,7.513058349609375,0.06199263805449009,0.005378720196546055,-0.004967103763419436
1772699668864015400,7.523015380859375,0.06378945834338665,0.007360993754677474,-0.014050256552029168
1772699668873972200,7.53297216796875,0.07995090407133101,-0.0031784930387977507,-0.024730655361758544
1772699668883929300,7.542929443359375,0.07022445982694625,0.010965014162589794,-0.010812661728647071
1772699668893886200,7.55288623046875,0.08099895181953906,-0.0028742767946794627,-0.0066370354240149025
1772699668903843000,7.562843017578125,0.08428981005847454,0.0029294410480186343,-0.0007037363848969107
1772699668913800200,7.57280029296875,0.06513678129911422,-0.006435124781145714,-0.0042548709761133065
1772699668923757300,7.58275732421875,0.06184475401639938,-0.014640117912180721,-0.009888335116585949
1772699668933714400,7.59271435546875,0.09057458941638469,0.00249529654760845,0.006159969093085965
1772699668943671300,7.60267138671875,0.0866834271967411,0.0008295096267014741,0.009629614540096372
1772699668953628400,7.61262841796875,0.058252282482385634,-0.006215371950087137,-0.020910745447152292
1772699668963585300,7.622585205078125,0.06573357814848423,-0.00946133616794832,0.010396039185195695
1772699668973542100,7.632542236328125,0.07441314368844032,-0.001303524913196452,-0.006886156484275124
1772699668983499300,7.642499267578125,0.08144669558703899,-0.006199128634762019,-0.011394274708617012
1772699668993456400,7.652456298828125,0.07980068194568157,0.0075495522964512925,-0.01609859478342696
1772699669003413200,7.662413330078125,0.07620937945544719,0.006096248215599917,0.002164807357439713
1772699669013370400,7.672370361328125,0.08279401854276656,-0.004893694892269559,-0.004248571668189834
1772699669023327200,7.6823271484375,0.06468845300972462,-0.002700559629010968,0.007400113909624633
1772699669033284000,7.6922841796875,0.07336801854968071,0.012955096567841246,-0.005973427265995997
1772699669043241200,7.7022412109375,0.07606032637357711,0.00015801727303769438,-0.006731019579846178
1772699669053198300,7.7121982421875,0.07620937945544719,0.003506601615156978,-0.01191113704792806
1772699669063155200,7.7221552734375,0.07830372138619422,-0.002130445290589705,-0.011994120889954501
1772699669073112300,7.7321123046875,0.0684276395380497,-0.012941542966524139,-0.0013782632291520712
1772699669083068400,7.742068359375,0.06199380709826946,0.006933160264044999,-0.0009783389462856575
1772699669093026000,7.752026123046875,0.06962590941190719,0.00026385683426633476,0.005459456711736857
1772699669102982400,7.761982421875,0.06438859328031539,-0.01283810542493593,0.0011323978530694149
1772699669112939300,7.771939208984375,0.07187047346830368,-0.001585839852760546,-0.0024030259998951806
1772699669122896100,7.781896240234375,0.09147299956083298,-0.0071784813612001015,-0.011298955399758415
1772699669132853200,7.791853271484375,0.07890402536690234,0.008356110305828042,-0.02998717623403063
1772699669142810400,7.801810302734375,0.07441489725410938,0.001196845101751387,-0.011236546271591213
1772699669152767200,7.811767333984375,0.07366670923531055,-0.0032673586323391643,0.0025153315491173995
1772699669162724400,7.821724365234375,0.06513678129911422,0.000497341363155283,-0.00032100412378204056
1772699669172681200,7.83168115234375,0.07291910573840141,0.0069150172525784,-0.01287591896796366
1772699669182638000,7.84163818359375,0.07366670923531055,-0.0020423788480693475,0.003099787223433668
1772699669192595200,7.85159521484375,0.08279518758654594,0.003962368858908303,-0.00776043683446478
1772699669202552300,7.86155224609375,0.08728373117744923,0.0029005391805199906,-0.008952471047069411
1772699669212509200,7.87150927734375,0.07291793669462203,0.005786912838369607,-0.002903300818119896
1772699669222466300,7.88146630859375,0.07396481539905071,-0.003021169885504059,0.010593642974883551
1772699669232423400,7.89142333984375,0.07501227862536906,-0.006825083079957403,-0.005105509299578261
1772699669242380300,7.90138037109375,0.06753098295927047,-0.0003966026687296107,-0.009393588710960465
1772699669252337200,7.911337158203125,0.07800503070056437,-0.003396259408746846,-0.003720292029487609
1772699669262294300,7.921294189453125,0.08324176231026649,-0.000760659341304563,-0.013340560212981653
1772699669272251400,7.93125146484375,0.06184300045073032,0.0056486003462225196,0.0031086729265545725
1772699669282208300,7.941208251953125,0.06378828929960727,0.0030850289019523185,0.0037728350674777174
1772699669292165400,7.951165283203125,0.06812719528675079,-0.0009876090981299056,0.0024136016220145393
1772699669302122200,7.961122314453125,0.07845218994617462,-0.0029780339966760947,0.00747277899950277
1772699669312079000,7.9710791015625,0.050319735917448996,-0.010625151216355152,-0.007728694555908441
1772699669322036200,7.9810361328125,0.07007131509184837,-0.01370380974302534,-0.013557539989997166
1772699669331993300,7.990993408203125,0.06797697316110134,0.00313011471927166,-0.010244761038554134
1772699669341950200,8.0009501953125,0.0720177729845047,0.0026689086819998917,0.004293176567841147
1772699669351907300,8.0109072265625,0.06797697316110134,-0.01405925385088194,-0.001941391560593911
1772699669361864400,8.020864501953126,0.07934884652495383,-0.010323122362745926,0.003113405898476776
1772699669371821000,8.030821044921876,0.07336275785267353,0.00483351653709542,0.009177224851053324
1772699669381778200,8.040778076171875,0.08204173887073993,0.011888435450708492,0.0062577657701098355
1772699669391735300,8.0507353515625,0.07246551675200462,-0.0023203327063471076,-0.004346522752607416
1772699669401692400,8.0606923828125,0.061392334073781966,0.001575259093241766,0.0028104234864527824
1772699669411649300,8.070649169921875,0.06707856301665306,0.0043078212957130746,-0.008583298666315386
1772699669421606400,8.0806064453125,0.06273907250761986,0.003091476909047924,-0.008599908449465874
1772699669431563300,8.090563232421875,0.08713058644235133,0.0007870039255358279,0.0005979362103971653
1772699669441520000,8.10052001953125,0.0699216774880886,-0.00045693628753069784,-0.0008408218948155991
1772699669451477200,8.110477294921875,0.07456102772653102,-0.0033581376217538487,-0.017422452381887703
1772699669461434400,8.120434326171875,0.07889993371367454,0.000016330080293118953,0.005976083301496691
1772699669471391200,8.13039111328125,0.05840016652047634,-0.00892032462642528,-0.002491697513902909
1772699669481348400,8.140348388671875,0.06932254255115985,0.014107116147177292,0.008400750311042066
1772699669491305500,8.150305419921875,0.08278992688953876,-0.010555720975645817,0.006321158995677251
1772699669501262000,8.160261962890624,0.06752689130604267,-0.0124341140341945,-0.01008488973514759
1772699669511219200,8.17021923828125,0.07455868963897228,0.011470360735687427,-0.0009861672013590577
1772699669521176300,8.18017626953125,0.07530687765777111,0.00655516183108557,-0.0017740747383708365
1772699669531133200,8.19013330078125,0.06767535986602306,0.003235881215264089,-0.020574211535742504
1772699669541090300,8.20009033203125,0.07829904521107674,-0.0023783556370530275,-0.011353634454263373
1772699669551047400,8.21004736328125,0.08263853572010993,-0.0001327184349996969,-0.015473614160832948
1772699669561004300,8.22000439453125,0.0672252780109644,-0.003711713999509811,-0.009433623323004577
1772699669570961200,8.229961181640626,0.08129062824249267,-0.01475164742867928,-0.01285699963836232
1772699669580918300,8.239918212890625,0.0788970111042261,-0.009043224920309147,0.0029327227046043844
1772699669590875400,8.24987548828125,0.07620294971466064,-0.003468370230309665,-0.009257929400203284
1772699669600832300,8.259832275390625,0.07051613624989986,-0.002070399366156198,0.0150252904380206
1772699669610789400,8.269789306640625,0.0833849701732397,-0.012240290228836237,0.013239281520794611
1772699669620746500,8.27974658203125,0.07365911045074462,-0.00660501972164493,-0.01697555114789284
1772699669630703000,8.289703125,0.07650280944406986,0.006569829677254893,0.0020680823990172938
1772699669640660200,8.29966015625,0.07096680262684822,0.009631477703619747,-0.014744332913547986
1772699669650617300,8.309617431640625,0.07785013239979743,-0.005335474709863774,-0.0035381740741213434
1772699669660574200,8.31957421875,0.07545476169586181,-0.01827746063438244,-0.016634745203453347
1772699669670531300,8.32953125,0.05375672462880611,0.0009650593396043404,0.005263532280837534
1772699669680488400,8.339488525390625,0.07964344555735588,0.0008514976962236687,0.001490754010164528
1772699669690445300,8.3494453125,0.07740005054473877,-0.005709116628114134,0.010025835899624507
1772699669700402200,8.359402099609374,0.08533201258778572,-0.0046627676466479894,0.009897247933759354
1772699669710359300,8.369359375,0.07740121958851814,0.004186117445072159,-0.007071331763119087
1772699669720316200,8.379316162109374,0.07770049479603768,0.004168358026095666,0.0018884617905918274
1772699669730273500,8.3892734375,0.07261223174631595,-0.006071100074611604,-0.007652521193047868
1772699669740230700,8.399230712890626,0.07216390345692635,-0.001353195574088022,-0.008246887481669546
1772699669750187500,8.4091875,0.07156535304188728,0.002107744835014455,-0.010965579276526114
1772699669760144400,8.419144287109376,0.07545651526153087,-0.011609449545969255,-0.0078804242228769
1772699669770101500,8.4291015625,0.06857318548858166,-0.004727708941907622,-0.0013322783669340423
1772699669780058600,8.43905859375,0.07605565019845963,-0.00642795982141979,0.0037249022746458646
1772699669790015500,8.449015380859375,0.08727788595855236,-0.013643284327979198,-0.016333434444118757
1772699669799972600,8.45897265625,0.07949673056304454,0.0005682603080524131,0.005977360801486065
1772699669809929700,8.4689296875,0.060792030093073844,-0.006509322528517805,-0.008645767159987008
1772699669819886300,8.47888623046875,0.06692658732533455,-0.007869016342051326,-0.009189548330620164
1772699669829843500,8.488843505859375,0.08009469645619392,-0.005446323806350119,0.0006205927126662573
1772699669839800600,8.498800537109375,0.07006839248239993,-0.02582404465561267,0.0008254841888439841
1772699669849757400,8.50875732421875,0.06288637202382087,-0.007192779314611107,-0.0017071920769521965
1772699669859714600,8.518714599609375,0.06767477534413337,0.008242758725001477,-0.010941117263771593
1772699669869671700,8.528671630859375,0.06842354788482188,-0.015796128680044784,-0.008521074484527344
1772699669879628500,8.538628662109375,0.06917115138173104,-0.0013395780406892299,0.0029991452833637595
1772699669889585400,8.54858544921875,0.05405658435821533,0.009667097006272524,-0.002557886626399704
1772699669899542500,8.55854248046875,0.07036708316802978,-0.005880249111051671,-0.0014912734583282143
1772699669909499400,8.56849951171875,0.07829846068918704,-0.00744388169858139,-0.003666874206540524
1772699669919456500,8.57845654296875,0.06408230381011963,0.009042412069556303,-0.014337950919609283
1772699669929413600,8.58841357421875,0.06393208168447018,-0.0163355556192575,0.0009190173951705219
1772699669939370800,8.598370849609376,0.06662497403025627,-0.011103070926410146,0.004904320175916655
1772699669949327400,8.608327392578126,0.07006663891673087,0.012569545016088523,-0.004330653611206798
1772699669959284500,8.618284423828126,0.061986208313703536,-0.011197210916690528,0.0020193541655084118
1772699669969241600,8.62824169921875,0.07440612942576408,-0.0002994944032281637,0.013776189992646687
1772699669979198500,8.638198486328125,0.06617547669708729,0.002310149239050224,-0.003868952671124134
1772699669989155600,8.648155517578125,0.06423018784821033,0.00014428557520732282,-0.005317069691026699
1772699669999112700,8.65811279296875,0.0800911893248558,-0.002740508046909235,-0.005330003379480331
1772699670009069600,8.668069580078125,0.08054068665802479,0.007984418316069058,-0.009945357966871233
1772699670019026400,8.6780263671875,0.0757516988158226,-0.0022372620993526653,-0.007365254371264018
1772699670028983600,8.687983642578125,0.06931845089793205,-0.004422908175899647,0.008378539050056134
1772699670038940400,8.6979404296875,0.07111468666493892,0.0007794142741244285,-0.009519677617418346
1772699670048897500,8.7078974609375,0.08607844704091548,0.002385844823764637,-0.01970981097546173
1772699670058854700,8.717854736328125,0.0717126525580883,0.005699700345797464,-0.002040806803846499
1772699670068811500,8.7278115234375,0.07605155854523181,-0.0023022855930030345,-0.000971521617253893
1772699670078768400,8.737768310546874,0.06841945623159408,0.005265418848069385,-0.009337166936407447
1772699670088725500,8.7477255859375,0.058094461572170256,-0.0004572879139799624,-0.0045726028618752025
1772699670098682600,8.7576826171875,0.07320785955190658,-0.01591084566747304,-0.003296449441972072
1772699670108639500,8.767639404296874,0.06422960332632065,-0.00014636793443933128,0.011093736842484212
1772699670118596600,8.7775966796875,0.06452946305572986,-0.001662508118432015,0.0022381137660122475
1772699670128553700,8.7875537109375,0.07126432426869869,-0.0025998163680080325,-0.015991936663223894
1772699670138510600,8.797510498046876,0.07425766086578368,0.009012642552377655,0.0012149287477135659
1772699670148467500,8.807467529296876,0.07994388980865479,0.00974752813160885,0.014051840012695174
1772699670158424600,8.817424560546876,0.07096504906117916,0.01023855391840916,-0.005542267023827298
1772699670168381400,8.82738134765625,0.05689911430776119,-0.007235275882622226,-0.008326561126002344
1772699670178338600,8.837338623046875,0.064680269703269,-0.007926272087777034,-0.0010394882699503796
1772699670188295700,8.847295654296875,0.07440671394765376,0.012809121359046547,-0.0032744385395635615
1772699670198252500,8.85725244140625,0.08248831359446049,-0.013387546868086792,0.001886667125727399
1772699670208209400,8.86720947265625,0.06423194141387939,-0.005228224076260812,-0.03054935157787986
1772699670218166500,8.87716650390625,0.07186345920562744,0.006013880861504003,-0.015990687704342418
1772699670228123400,8.887123291015625,0.07470715819895267,-0.006430316175287589,-0.0010246115028712665
1772699670238080500,8.89708056640625,0.07799918548166751,-0.006467346550314687,-0.011182202860515099
1772699670248037600,8.90703759765625,0.06004267303049564,0.013867443906096741,0.004228910269783228
1772699670257994500,8.916994384765625,0.0750064334064722,-0.003431307889241725,-0.006633530575965415
1772699670267951600,8.92695166015625,0.04822130233347416,-0.007265794318472035,-0.009549147452964098
1772699670277908500,8.936908447265624,0.07216331893503665,-0.014902992932335473,0.01570187795026577
1772699670287865600,8.946865478515624,0.08877250843048096,-0.013776783647690898,0.019459784020436927
1772699670297822500,8.956822509765624,0.07051672077178954,-0.006114039600617252,-0.0039348010027926645
1772699670307779600,8.966779541015624,0.06842237884104252,-0.003641306511266157,-0.005144804696927895
1772699670317736700,8.97673681640625,0.07006839248239993,-0.0070333418360445646,0.013269847905705682
1772699670327693600,8.986693603515626,0.07395838565826415,-0.0016579963400959968,0.012005411752237705
1772699670337650400,8.996650390625,0.08323591709136963,0.002946520046982914,-0.0014231481170718324
1772699670347607600,9.006607666015626,0.06423135689198971,-0.002696239646920003,0.0035588170012284532
1772699670357564400,9.016564453125,0.0847317086070776,0.012846462261327542,-0.008329015661281301
1772699670367521500,9.026521484375,0.09415829312205314,-0.005370938748889603,-0.004694073817075695
1772699670377478700,9.036478759765625,0.06572656388580798,0.0020438812519889323,0.0032817684668931175
1772699670387435500,9.046435546875,0.06288344941437245,0.0019903153006918728,-0.0039361926672136175
1772699670397391600,9.0563916015625,0.05869418103098869,-0.0059627762953517955,-0.012091208605858264
1772699670407349500,9.066349609375,0.06198679283559322,0.006949819137901068,-0.007058406066175666
1772699670417306400,9.076306396484375,0.0678220748603344,0.0013879883262561633,0.0144046332224505
1772699670427262500,9.086262451171875,0.058843818634748454,-0.01034328380136285,-0.010591704462835331
1772699670437219600,9.096219482421875,0.07096388001739978,-0.008014849986950866,-0.0029543985344062094
1772699670447176400,9.106176513671874,0.07500409531891346,-0.006168701530457474,-0.008884650524845347
1772699670457133600,9.116133544921874,0.07575286785960197,0.0009728773198788985,0.016360964055149814
1772699670467090700,9.126090576171874,0.07231120297312736,0.005854813275695778,0.012175028131523867
1772699670477047600,9.136047607421874,0.08143792775869368,-0.010974750105314887,-0.009650824008195195
1772699670487004400,9.14600439453125,0.07979191411733627,-0.00009359656758606433,-0.009127749982161912
1772699670496961500,9.15596142578125,0.06318214010000228,-0.00619238836672157,-0.010861551504826638
1772699670506918400,9.16591845703125,0.0709632954955101,-0.006036649815738201,0.0006538339702092344
1772699670516875500,9.17587548828125,0.07365735688507556,-0.015622804240020922,0.012134430118009912
1772699670526832600,9.18583251953125,0.06453004757761954,0.005413627113145776,-0.005013900334745995
1772699670536789500,9.19578955078125,0.07799743191599845,-0.001899577410472557,0.01502628138528671
1772699670546746400,9.205746337890625,0.06318330914378166,-0.00330096407441888,0.0068950556017167396
1772699670556703500,9.215703369140625,0.06497837586700916,0.007128043515328317,0.0018252289660507812
1772699670566660400,9.225660400390625,0.08907061459422111,-0.006907742694998159,-0.012354201215377543
1772699670576617500,9.235617431640625,0.08054127117991447,-0.002787402228824794,0.019802469111420213
1772699670586574600,9.24557470703125,0.074257076343894,-0.006730947656254284,-0.000874757557513658
1772699670596531700,9.25553173828125,0.06722410896718502,-0.008516388034611008,-0.010250843719468685
1772699670606488600,9.265488525390625,0.0619920535326004,-0.002918590860441327,-0.007894689639424905
1772699670616445400,9.275445556640625,0.06349310574531555,-0.006655087674758396,0.0019013666525264851
1772699670626402600,9.285402587890625,0.0771112967312336,0.0026727263405919074,0.012923653400095644
1772699670636359400,9.295359375,0.0780085378319025,0.0032373059873702,-0.006931454647437203
1772699670646316500,9.305316650390624,0.07546236048042773,-0.012437808395200409,0.0021668292095229844
1772699670656273700,9.315273681640624,0.07875088063180447,-0.017441690230253153,0.0018376092424223316
1772699670666230500,9.32523046875,0.07216448797881603,-0.006414556917152367,0.0004391606001227046
1772699670676187400,9.3351875,0.04956687172353268,0.006555869650561362,0.0033073487202549584
1772699670686144500,9.34514453125,0.0782961226016283,0.010613396846479736,-0.0199561344363261
