time,seconds_elapsed,z,y,x
1772699661446050800,0.10505078125,0.00004775309935212135,-0.00023714592680335045,-0.0000011478550732135773
1772699661456007700,0.115007568359375,0.0008799911011010408,-0.0022891112603247166,0.0003772871568799019
1772699661465964800,0.12496484375,0.0011854555923491716,-0.0013213185593485832,0.002224988304078579
1772699661475922000,0.134921875,-0.001095009152777493,-0.0015077400021255016,0.00017968099564313889
1772699661485878800,0.144878662109375,-0.000795242958702147,-0.001464025117456913,0.0022627818398177624
1772699661495836000,0.1548359375,-0.0010687733301892877,0.0004979339428246021,-0.0017350150737911463
1772699661505792800,0.164792724609375,-0.0010437396122142673,0.0004713023081421852,0.0010767504572868347
1772699661515750000,0.17475,0.002505222335457802,-0.002083213534206152,-0.0005625160411000252
1772699661525706800,0.184706787109375,-0.0009518268052488565,0.0004537138156592846,0.0004657302051782608
1772699661535663900,0.194663818359375,-0.0002828119322657585,0.00042440881952643394,0.0006645531393587589
1772699661545621000,0.20462109375,-0.0027821885887533426,0.0011573107913136482,0.000623007770627737
1772699661555577900,0.214577880859375,0.0008255764842033386,-0.001592662651091814,0.0033252169378101826
1772699661565534700,0.22453466796875,-0.0010439626639708877,0.00022361334413290024,0.0006237062625586987
1772699661575491800,0.234491943359375,0.0012541317846626043,0.0010238736867904663,-0.0007328963838517666
1772699661585448700,0.24444873046875,0.0006117771845310926,0.00020788097754120827,0.0008130688220262527
1772699661595405800,0.25440576171875,-0.0020519739482551813,-0.0014970535412430763,-0.002369179390370846
1772699661605363000,0.264363037109375,-0.002172615146264434,0.00022441381588578224,-0.00018458859995007515
1772699661615319800,0.27431982421875,-0.0002609596122056246,-0.0016403459012508392,0.0004875296726822853
1772699661625277000,0.28427685546875,0.002913262229412794,-0.0033210667315870523,-0.0001010289415717125
1772699661635233800,0.29423388671875,0.0015323839616030455,0.0011370759457349777,-0.0004561804234981537
1772699661645190700,0.304190673828125,-0.0020615519024431705,0.0028369715437293053,0.00035475194454193115
1772699661655147800,0.314147705078125,-0.0013334288960322738,-0.00122355530038476,0.0011495151557028294
1772699661665105000,0.32410498046875,-0.0015882934676483274,0.0010241526179015636,0.002299468033015728
1772699661675061800,0.334061767578125,0.0012772870250046253,-0.0013149087317287922,-0.0005348327104002237
1772699661685019000,0.344018798828125,0.0007715525571256876,0.00007046759128570557,-0.001291436841711402
1772699661694975700,0.353975830078125,0.001451424090191722,-0.0006722756661474705,-0.0001895981840789318
1772699661704932900,0.363932861328125,-0.0005312995053827763,-0.002080821432173252,-0.00043540773913264275
1772699661714888400,0.373888427734375,-0.001032501575537026,-0.0015308805741369724,-0.00034376978874206543
1772699661724845300,0.38384521484375,-0.004246670752763748,0.0011778208427131176,-0.0021390067413449287
1772699661734802400,0.393802490234375,0.001898602582514286,0.0002307896502315998,-0.000878380611538887
1772699661744759600,0.403759521484375,-0.0019411431858316064,0.00022200122475624084,0.00024547334760427475
1772699661754716700,0.413716552734375,-0.0011057384544983506,-0.0009399252012372017,-0.001277207862585783
1772699661764673500,0.423673583984375,-0.0005158481653779745,-0.00014816736802458763,0.0023390986025333405
1772699661774630700,0.433630615234375,-0.0005094567313790321,0.001827365718781948,-0.001226074993610382
1772699661784587500,0.44358740234375,0.0007283806335180998,-0.00012819375842809677,-0.0003514927811920643
1772699661794544400,0.45354443359375,0.0004708338528871536,-0.0008403165265917778,0.00021166494116187096
1772699661804501500,0.46350146484375,0.0029595578089356422,-0.000999839510768652,0.0007067462429404259
1772699661814458600,0.473458740234375,0.0015628158580511808,-0.000520236324518919,0.0018979008309543133
1772699661824415500,0.48341552734375,0.00009727827273309231,-0.0009641852229833603,0.0012454264797270298
1772699661834372600,0.49337255859375,-0.0007707176264375448,0.0017432114109396935,-0.00179575034417212
1772699661844329500,0.50332958984375,-0.00035792775452136993,0.0004180227406322956,0.0003350446932017803
1772699661854286300,0.513286376953125,0.0004676668904721737,0.002587961032986641,0.00014443788677453995
1772699661864243500,0.523243408203125,-0.0019691255874931812,0.00023905280977487564,-0.002514461986720562
1772699661874200600,0.53320068359375,0.00008733849972486496,0.0005306792445480824,-0.0026451079174876213
1772699661884157400,0.543157470703125,0.0003776231314986944,0.0023086052387952805,0.00335020013153553
1772699661894114600,0.553114501953125,0.0016045751981437206,-0.00016095582395792007,0.0031458456069231033
1772699661904071700,0.56307177734375,0.0006279938388615847,-0.002137021627277136,-0.001008685678243637
1772699661914028300,0.5730283203125,-0.0002948204055428505,-0.0009090276435017586,0.0000154152512550354
1772699661923985400,0.5829853515625,-0.0007470250129699707,0.0011301548220217228,-0.0008336007595062256
1772699661933942500,0.592942626953125,0.0027763464022427797,0.0015240334905683994,0.0006492976099252701
1772699661943899600,0.602899658203125,0.0002639202866703272,-0.0005673468112945557,0.00027538975700736046
1772699661953856500,0.6128564453125,0.000931071350350976,-0.00027600815519690514,0.0006683580577373505
1772699661963813600,0.622813720703125,-0.0011153016239404678,0.0012574396096169949,0.0011647716164588928
1772699661973770500,0.6327705078125,0.00098325009457767,0.000986604019999504,-0.001245224615558982
1772699661983728400,0.642728271484375,0.0012458378914743662,0.00010722782462835312,-0.0006526713259518147
1772699661993684500,0.6526845703125,0.0025457267183810472,-0.0018659080378711224,0.0021569635719060898
1772699662003641600,0.6626416015625,-0.0018783165141940117,0.002808472141623497,-0.0007125923875719309
1772699662013599700,0.672599853515625,-0.0007683688309043646,0.0005173748359084129,0.002906342037022114
1772699662023555600,0.6825556640625,0.0041414350271224976,-0.001092506106942892,-0.0018862825818359852
1772699662033513500,0.692513427734375,0.0018242665100842714,0.00163348950445652,0.0037859687581658363
1772699662043470600,0.702470703125,0.0015986969228833914,0.0006145639345049858,0.001205099280923605
1772699662053427500,0.712427490234375,-0.0002681408077478409,0.0005887169390916824,-0.0005827443674206734
1772699662063384600,0.722384521484375,0.0011582484003156424,-0.00201265886425972,-0.002174249617382884
1772699662073341700,0.732341796875,0.002660547150298953,-0.0014786990359425545,-0.0004426119849085808
1772699662083298600,0.742298583984375,-0.0000846395269036293,-0.0005782842636108398,0.00015952903777360916
1772699662093255400,0.75225537109375,0.0006189772393554449,-0.00008666841313242912,0.0006858198903501034
1772699662103212500,0.762212646484375,-0.00022630998864769936,-0.0024262552615255117,-0.0008923693094402552
1772699662113169400,0.77216943359375,-0.0015507335774600506,-0.0013154377229511738,-0.0027104192413389683
1772699662123126500,0.78212646484375,0.003014190588146448,0.0006584972143173218,-0.0030363902915269136
1772699662133083600,0.792083740234375,-0.0019521149806678295,0.0023171300999820232,-0.000668268883600831
1772699662143040500,0.80204052734375,-0.0006740640383213758,0.0012356201186776161,-0.001896785106509924
1772699662152997400,0.811997314453125,-0.0011776149040088058,-0.0017958758398890495,0.0012870356440544128
1772699662162954500,0.82195458984375,0.0006106977816671133,0.0006752712652087212,-0.0011881061363965273
1772699662172911400,0.831911376953125,0.002383559476584196,-0.0018403492867946625,0.0009871385991573334
1772699662182868500,0.841868408203125,-0.0010420647449791431,-0.0012134411372244358,0.0008768835105001926
1772699662192825600,0.85182568359375,0.0017201225273311138,0.0005248198285698891,0.001238047145307064
1772699662202782700,0.86178271484375,-0.0017758088652044535,-0.0007329909130930901,-0.00021470710635185242
1772699662212739600,0.871739501953125,-0.0008798373164609075,0.0006731860339641571,0.0016405722126364708
1772699662222696400,0.881696533203125,-0.00004946370609104633,0.002804247196763754,-0.0011376375332474709
1772699662232653600,0.891653564453125,-0.0010434954892843962,-0.001068850513547659,0.0017118239775300026
1772699662242610400,0.9016103515625,0.00020099966786801815,-0.0007079923525452614,0.0027584461495280266
1772699662252567600,0.911567626953125,-0.0006340276449918747,0.0004845019429922104,-0.0009178828913718462
1772699662262524700,0.921524658203125,-0.000558127649128437,0.00020806584507226944,0.0005378010682761669
1772699662272481500,0.9314814453125,-0.001081106485798955,0.0017449883744120598,0.001069508958607912
1772699662282438400,0.9414384765625,0.0003966814838349819,0.000365471001714468,0.0009747003205120564
1772699662292395500,0.9513955078125,-0.0010885498486459255,0.0036521353758871555,-0.00013712607324123383
1772699662302352400,0.961352294921875,0.00020601274445652962,0.0004962896928191185,-0.000802117632701993
1772699662312309500,0.9713095703125,0.0008084028959274292,0.0003926618956029415,0.0007910286076366901
1772699662322266600,0.9812666015625,0.0017498303204774857,0.00030744075775146484,0.002696254290640354
1772699662332223500,0.991223388671875,0.000566892558708787,-0.0002578124403953552,-0.0010857151355594397
1772699662342180600,1.0011806640625,0.0009373382199555635,-0.00008151121437549591,0.0010421504266560078
1772699662352137500,1.011137451171875,0.0004833450075238943,0.00017871567979454994,-0.002132748020812869
1772699662362094600,1.021094482421875,0.001904141390696168,0.00021573388949036598,0.00027821166440844536
1772699662372051500,1.031051513671875,-0.0031649386510252953,-0.0007816129364073277,-0.0013381615281105042
1772699662382008600,1.041008544921875,-0.0013369448715820909,-0.0009376741945743561,0.0013148793950676918
1772699662391965700,1.050965576171875,0.000170175451785326,-0.0010716081596910954,0.00061429338529706
1772699662401922600,1.060922607421875,0.0009150616824626923,0.00003173947334289551,-0.001479750033468008
1772699662411879400,1.07087939453125,0.0014279435854405165,-0.00008355872705578804,0.002375745214521885
1772699662421836500,1.08083642578125,0.0008841261733323336,-0.0030529832001775503,-0.00042323721572756767
1772699662431793400,1.09079345703125,0.00046966131776571274,0.0013172924518585205,0.0014229952357709408
1772699662441750500,1.10075048828125,0.002273420337587595,-0.00023399898782372475,0.002176137175410986
1772699662451707600,1.110707763671875,0.0007850253023207188,0.0007262909784913063,0.00003593089058995247
1772699662461664500,1.12066455078125,0.0002840848173946142,-0.00044203782454133034,-0.0023915404453873634
1772699662471621600,1.13062158203125,-0.0013649682514369488,0.0027694767341017723,0.002718939445912838
1772699662481578500,1.14057861328125,0.0007138953078538179,-0.0004545459523797035,0.001108525786548853
1772699662491535400,1.150535400390625,0.0006035922560840845,-0.0013608015142381191,0.0010741851292550564
1772699662501492500,1.160492431640625,0.0019535482861101627,-0.000811923760920763,0.001934652216732502
1772699662511449600,1.17044970703125,0.00008562183938920498,0.0018027625046670437,-0.0037631052546203136
1772699662521406500,1.180406494140625,0.000885635381564498,-0.0002944772131741047,0.0005275136791169643
1772699662531363600,1.190363525390625,-0.001001965836621821,0.0009057959541678429,-0.0030525322072207928
1772699662541320400,1.200320556640625,0.0000870006624609232,-0.0011919764801859856,0.00010917242616415024
1772699662551277600,1.210277587890625,0.0006289731245487928,0.002604885958135128,0.00469497125595808
1772699662561234400,1.220234375,0.0007357657887041569,-0.0008931765332818031,-0.0004665008746087551
1772699662571191600,1.230191650390625,-0.002846404444426298,0.00021840864792466164,0.0016363183967769146
1772699662581148700,1.240148681640625,0.0016958829946815968,-0.0004457836039364338,-0.002363483188673854
1772699662591105500,1.25010546875,-0.000385453924536705,-0.0004862346686422825,-0.000028829555958509445
1772699662601062700,1.260062744140625,0.0007967234123498201,-0.00004494888707995415,-0.0016317861154675484
1772699662611019500,1.27001953125,0.0011289296671748161,0.001763325184583664,-0.00022750766947865486
1772699662620976400,1.279976318359375,0.00014249468222260475,0.0003768838942050934,-0.0008733244612812996
1772699662630933500,1.28993359375,-0.0007208571769297123,-0.001048949547111988,0.000394266564399004
1772699662640890600,1.299890625,-0.0009956953581422567,-0.0001165769062936306,0.00011889589950442314
1772699662650847500,1.309847412109375,0.0007345101330429316,0.002225222997367382,-0.002045887056738138
1772699662660804600,1.3198046875,-0.0022293217480182648,0.0004185345023870468,0.0021150358952581882
1772699662670761500,1.329761474609375,-0.0003392698708921671,0.0006470964290201664,-0.0005992134101688862
1772699662680718300,1.33971826171875,-0.0012772352201864123,0.0005666688084602356,-0.0006908262148499489
1772699662690675500,1.349675537109375,0.001306433929130435,0.001893341075628996,0.0005068294703960419
1772699662700632600,1.359632568359375,0.0008038952946662903,-0.0001735384576022625,0.0018296213820576668
1772699662710589400,1.36958935546875,0.0009786372538655996,0.00026214029639959335,0.0009906613267958164
1772699662720547000,1.379547119140625,-0.0007675974629819393,0.002612646669149399,0.00011528050526976585
1772699662730504000,1.38950390625,-0.0017879721708595753,0.0003242022357881069,-0.0008203766774386168
1772699662740461000,1.3994609375,0.0008357742335647345,0.0010192873887717724,-0.0007122522220015526
1772699662750418000,1.40941796875,-0.002519697416573763,0.0004505179822444916,-0.0007778133731335402
1772699662760375000,1.419375,0.0010140510275959969,-0.0014315377920866013,0.0012142308987677097
1772699662770332200,1.429332275390625,-0.0007798655424267054,0.0020416802726686,-0.0044228024780750275
1772699662780289300,1.439289306640625,-0.0011820028303191066,0.00028985273092985153,0.0022649276070296764
1772699662790246000,1.449245849609375,-0.0007325112819671631,-0.0013746898621320724,0.001486090011894703
1772699662800203000,1.459203125,0.0005972050130367279,-0.0003112894482910633,0.000388334970921278
1772699662810160000,1.46916015625,-0.0011519594117999077,0.0002579744905233383,0.002165466081351042
1772699662820117000,1.479116943359375,-0.00012610969133675098,0.0006156368181109428,-0.00021886173635721207
1772699662830074000,1.48907421875,-0.002201383002102375,0.0015211589634418488,-0.0005025777500122786
1772699662840031200,1.49903125,-0.0033484064042568207,0.0013113017193973064,-0.000005098991096019745
1772699662849988000,1.508988037109375,0.00023440923541784286,0.0014973627403378487,-0.0009245346300303936
1772699662859945000,1.518945068359375,-0.0005890403408557177,0.00048722606152296066,0.0006691007874906063
1772699662869902000,1.528902099609375,-0.0002808703575283289,0.00012730620801448822,-0.00008816691115498543
1772699662879859000,1.53885888671875,0.0005561611615121365,0.0016445093788206577,-0.00275452365167439
1772699662889816000,1.548816162109375,0.000927105313166976,-0.0020338958129286766,-0.0013666001614183187
1772699662899773200,1.558773193359375,0.002749772509559989,0.0015009180642664433,0.002068611327558756
1772699662909730000,1.56872998046875,0.001192944822832942,-0.0010806676000356674,0.0014813016168773174
1772699662919687000,1.57868701171875,-0.002288073068484664,-0.0009086276404559612,0.0032421834766864777
1772699662929644000,1.58864404296875,0.0003950907848775387,0.0016109212301671505,-0.001004755962640047
1772699662939601200,1.59860107421875,0.0004531475715339184,-0.0010413210839033127,0.0014695869758725166
1772699662949558000,1.60855810546875,0.0004570141900330782,0.0002548191696405411,-0.0018466569017618895
1772699662959515100,1.61851513671875,0.0007781912572681904,0.00021407287567853928,-0.0005209355149418116
1772699662969472300,1.62847216796875,-0.00004964577965438366,0.0005571981891989708,-0.002487742342054844
1772699662979429000,1.63842919921875,-0.001380427274852991,-0.0002880892716348171,0.00206466531381011
1772699662989386000,1.648385986328125,0.0016252459026873112,-0.0009371102787554264,-0.0012359386309981346
1772699662999343000,1.658343017578125,-0.0011289952090010047,-0.0003924942575395107,0.0003931168466806412
1772699663009300000,1.668300048828125,-0.0004891848657280207,-0.0014461912214756012,-0.0016858747694641352
1772699663019257000,1.678257080078125,-0.0011874657357111573,0.0002502421848475933,0.0023211175575852394
1772699663029214200,1.688214111328125,0.001788541441783309,-0.0011487365700304508,-0.0012209750711917877
1772699663039171000,1.698171142578125,-0.0013726305915042758,-0.000024349894374608994,-0.00003586849197745323
1772699663049128000,1.7081279296875,0.0007176846265792847,0.000006382353603839874,-0.0023597448598593473
1772699663059085000,1.7180849609375,0.00017280178144574165,-0.0013102847151458263,0.0014533689245581627
1772699663069042000,1.7280419921875,0.00018824986182153225,0.0009022671729326248,-0.0006397429388016462
1772699663078999000,1.7379990234375,-0.0008666283683851361,0.0017717890441417694,0.0008140765130519867
1772699663088956200,1.7479560546875,-0.0004613427445292473,-0.0008142176084220409,-0.0010401199106127024
1772699663098913000,1.7579130859375,-0.001525009167380631,0.0022646626457571983,0.0015689791180193424
1772699663108870100,1.7678701171875,0.0015180953778326511,-0.0012806043960154057,0.0025454373098909855
1772699663118827000,1.777826904296875,0.0007122228853404522,-0.0015884656459093094,0.00047696009278297424
1772699663128784100,1.7877841796875,0.0031174432951956987,0.0014309631660580635,-0.0014217167627066374
1772699663138741000,1.797740966796875,-0.001758804777637124,0.0007819505408406258,-0.0007588560692965984
1772699663148698000,1.807697998046875,-0.0005842577666044235,-0.0013614185154438019,0.0013315239921212196
1772699663158655200,1.8176552734375,0.0002522410359233618,0.001605343073606491,0.0012084860354661942
1772699663168612000,1.827612060546875,-0.002244573552161455,-0.00008545815944671631,-0.002686474472284317
1772699663178569000,1.83756884765625,-0.002012345939874649,-0.0011693648993968964,-0.004210335202515125
1772699663188526000,1.847526123046875,0.0008606899064034224,-0.0003308141604065895,-0.0011602090671658516
1772699663198483000,1.85748291015625,-0.0032498990185558796,-0.0008133789524435997,-0.00031465524807572365
1772699663208440000,1.867440185546875,0.0027596482541412115,-0.0007806583307683468,0.00021706754341721535
1772699663218397200,1.877397216796875,-0.0009464068571105599,0.0005325460806488991,-0.0000359327532351017
1772699663228354000,1.88735400390625,-0.00025936798192560673,-0.00014434894546866417,-0.00021976279094815254
1772699663238311200,1.897311279296875,0.0006900487933307886,-0.0004338342696428299,0.003081758040934801
1772699663248268000,1.90726806640625,-0.001274880487471819,0.0009665708057582378,-0.0008305090013891459
1772699663258225000,1.917224853515625,0.0012601823545992374,-0.0032268427312374115,0.003879291471093893
1772699663268182000,1.92718212890625,-0.0017244650516659021,-0.00018131406977772713,-0.00008413242176175117
1772699663278139100,1.93713916015625,0.001329115591943264,0.002111667301505804,-0.0023518139496445656
1772699663288096000,1.947095947265625,-0.0013662774581462145,0.00007864227518439293,-0.0009044988546520472
1772699663298053000,1.95705322265625,-0.0008150031790137291,-0.002010074909776449,0.001613520085811615
1772699663308010000,1.967010009765625,-0.0018193523865193129,0.0004181116819381714,-0.002481672214344144
1772699663317967000,1.976967041015625,-0.0005937656387686729,-0.0007387655787169933,0.0004962743259966373
1772699663327924000,1.986924072265625,-0.00045145279727876186,0.0005343137308955193,-0.001476730452850461
1772699663337881000,1.996881103515625,-0.002156142145395279,-0.0001434609293937683,-0.0028730258345603943
1772699663347838200,2.006838134765625,-0.00043808668851852417,-0.00007902039214968681,-0.000833509024232626
1772699663357795000,2.016795166015625,0.0007736517582088709,0.0000011408701539039612,0.000724439974874258
1772699663367752200,2.026752197265625,0.000388347078114748,-0.0011959662660956383,0.0010718153789639473
1772699663377709000,2.036708984375,-0.00033496739342808723,-0.001303824596107006,0.002476899418979883
1772699663387666000,2.046666015625,-0.0021609298419207335,-0.0007106233388185501,0.0012602866627275944
1772699663397623000,2.056623046875,-0.0011262918123975396,-0.0002248627133667469,-0.0006017955020070076
1772699663407580200,2.066580078125,-0.0002630606759339571,0.0024121548049151897,-0.0023745361249893904
1772699663417537000,2.076537109375,0.0003057904541492462,0.00010559102520346642,-0.0014818445779383183
1772699663427494100,2.086494140625,-0.0027165552601218224,-0.0006711077876389027,-0.0028000734746456146
1772699663437451000,2.096450927734375,-0.00038708816282451153,0.00023010605946183205,0.0011448673903942108
1772699663447407900,2.106407958984375,0.0010399722959846258,0.0014680433087050915,-0.0004873131401836872
1772699663457365000,2.116364990234375,0.00013396493159234524,-0.0009413184598088264,-0.0038053453899919987
1772699663467322000,2.126322021484375,-0.0004775270354002714,-0.0009227143600583076,-0.0002493932843208313
1772699663477279000,2.136279052734375,-0.0021020553540438414,-0.00027023954316973686,-0.0006589875556528568
1772699663487236000,2.146236083984375,0.0005166649352759123,0.0015384741127490997,0.002150451298803091
1772699663497193200,2.156193115234375,-0.0012551359832286835,0.0004598936066031456,-0.0008756986353546381
1772699663507150000,2.166150146484375,-0.0019514814484864473,-0.00031033018603920937,-0.0032328725792467594
1772699663517107000,2.17610693359375,-0.0021858394611626863,0.000011912081390619278,-0.0035753552801907063
1772699663527064000,2.18606396484375,-0.002018814207985997,0.002732273656874895,-0.002467938931658864
1772699663537021200,2.196021240234375,0.002406294457614422,0.001680591143667698,-0.0005318210460245609
1772699663546978000,2.20597802734375,0.00015687057748436928,0.0014106226153671741,-0.00005029933527112007
1772699663556935200,2.21593505859375,-0.000025555957108736038,0.0002382989041507244,0.0021710433065891266
1772699663566892000,2.22589208984375,-0.0007368010701611638,-0.0021306565031409264,-0.00020141713321208954
1772699663576849000,2.235848876953125,0.00007066945545375347,-0.0012430250644683838,-0.00028823595494031906
1772699663586806000,2.245805908203125,0.0008544519077986479,0.00018069567158818245,0.0005781659856438637
1772699663596763100,2.25576318359375,-0.0017170964274555445,0.0004408867098391056,-0.0015749994199723005
1772699663606720000,2.265719970703125,0.00011959206312894821,-0.0002977740950882435,-0.000398129690438509
1772699663616677000,2.275677001953125,-0.0021318444050848484,-0.001258376520127058,-0.0000774851068854332
1772699663626634200,2.28563427734375,0.001686910167336464,-0.0008892910555005074,0.002389970701187849
1772699663636590800,2.2955908203125,-0.00033469521440565586,0.0012399065308272839,0.002397160977125168
1772699663646548000,2.3055478515625,0.0017011770978569984,0.0020641395822167397,-0.0020692499820142984
1772699663656505000,2.315505126953125,-0.0019026121590286493,0.0009064637124538422,-0.001940353075042367
1772699663666462200,2.325462158203125,0.0006239090580493212,0.00006409129127860069,0.002830288838595152
1772699663676419000,2.335419189453125,-0.0010131360031664371,-0.0007130191661417484,0.0010507646948099136
1772699663686376200,2.345376220703125,0.003085095901042223,0.0025560343638062477,-0.00035302480682730675
1772699663696333000,2.3553330078125,-0.00033493549562990665,-0.0022773367818444967,0.0011897440999746323
1772699663706290000,2.3652900390625,-0.0042336988262832165,0.0007071853615343571,0.0011208970099687576
1772699663716246500,2.37524658203125,0.000014043180271983147,-0.0013176160864531994,-0.0031872985418885946
1772699663726203400,2.385203369140625,0.0004723344463855028,0.0005887821316719055,-0.00007921690121293068
1772699663736160500,2.395160400390625,-0.0003066400531679392,-0.0018259063363075256,-0.0016792439855635166
1772699663746117600,2.40511767578125,0.0004089009016752243,0.0019959062337875366,-0.0011116068344563246
1772699663756074500,2.415074462890625,-0.0022281610872596502,-0.0009809755720198154,-0.002495651599019766
1772699663766031600,2.425031494140625,0.001592566492035985,-0.001623920165002346,-0.001756005920469761
1772699663775988500,2.434988525390625,0.0009856321848928928,0.0001633274368941784,0.0026834835298359394
1772699663785945300,2.4449453125,0.0008443871047347784,0.0017044409178197384,0.0023089973255991936
1772699663795902500,2.45490234375,-0.00016255397349596024,-0.0004796171560883522,-0.0016849450767040253
1772699663805859600,2.464859619140625,0.00001278286799788475,-0.001214231364428997,0.0030365269631147385
1772699663815816700,2.474816650390625,-0.0010016151936724782,-0.0010642954148352146,-0.0012234651949256659
1772699663825773600,2.484773681640625,-0.0017460230737924576,-0.00043437257409095764,0.000773351639509201
1772699663835730400,2.49473046875,0.0007014218717813492,-0.0002364995889365673,-0.002304197521880269
1772699663845687600,2.5046875,0.0011897440999746323,-0.003244485706090927,0.0006967172957956791
1772699663855644400,2.51464453125,0.0026169319171458483,0.0007606423459947109,0.00027966639026999474
1772699663865601500,2.5246015625,-0.0015641978243365884,0.0008382233791053295,-0.0009646867401897907
1772699663875558700,2.53455859375,0.0009375757072120905,0.0008944161236286163,0.0010513262823224068
1772699663885515500,2.544515625,0.003201220417395234,-0.0010924716480076313,0.0011311275884509087
1772699663895472600,2.55447265625,0.00006960914470255375,0.0001802528277039528,-0.0015972810797393322
1772699663905429500,2.564429443359375,-0.002659501740708947,0.0026745107024908066,-0.0004968387074768543
1772699663915386400,2.574386474609375,0.0015733262989670038,0.0008334680460393429,-0.0013245493173599243
1772699663925343500,2.584343505859375,-0.0008685054490342736,0.0007343445904552937,-0.0017827870324254036
1772699663935300600,2.594300537109375,0.00196350016631186,0.00011382810771465302,-0.0021367210429161787
1772699663945257500,2.604257568359375,-0.0006031007505953312,0.000009350944310426712,-0.0006440719589591026
1772699663955214600,2.614214599609375,-0.001994336023926735,0.0009723496623337269,-0.0012195808812975883
1772699663965171500,2.62417138671875,-0.0004471160937100649,-0.0015818928368389606,0.0025263559073209763
1772699663975128300,2.63412841796875,0.0020831532310694456,-0.0014434084296226501,-0.0011296316515654325
1772699663985085400,2.64408544921875,-0.00036641722545027733,-0.0009332927875220776,0.0015018782578408718
1772699663995042600,2.65404248046875,0.0008037758525460958,-0.002183380536735058,-0.00008430052548646927
1772699664004999700,2.663999755859375,-0.0006154777947813272,-0.0032243304885923862,0.001110294833779335
1772699664014956500,2.67395654296875,0.0004969246219843626,0.0003421748988330364,-0.0003126319497823715
1772699664024913700,2.68391357421875,0.0008558419067412615,0.0004904745146632195,0.000075572170317173
1772699664034870500,2.69387060546875,-0.00017133913934230804,0.0007349527440965176,-0.0014690612442791462
1772699664044827400,2.703827392578125,-0.0015699864597991109,0.00009913276880979538,-0.0025552655570209026
1772699664054784500,2.713784423828125,0.00019941781647503376,-0.00008356012403964996,-0.0006867917254567146
1772699664064741600,2.72374169921875,0.00038429698906838894,-0.0006441609002649784,0.002232748083770275
1772699664074698500,2.733698486328125,0.0018282628152519464,0.0002527916803956032,0.002024755347520113
1772699664084655600,2.743655517578125,0.0021561826579272747,-0.0011109709739685059,-0.002216125139966607
1772699664094612500,2.753612548828125,-0.003695847699418664,-0.0011815447360277176,0.0003943052142858505
1772699664104569300,2.7635693359375,-0.000058611854910850525,0.0007138079963624477,-0.002481798641383648
1772699664114526500,2.7735263671875,0.0007539184298366308,0.0010467031970620155,-0.0013129373546689749
1772699664124483600,2.783483642578125,-0.0018942890455946326,0.0005868840962648392,-0.0021864979062229395
1772699664134440400,2.7934404296875,-0.001443682238459587,0.0002987300977110863,0.0008364561945199966
1772699664144397600,2.8033974609375,-0.00010060751810669899,-0.0028807236813008785,0.002259311731904745
1772699664154354700,2.813354736328125,-0.000350145623087883,-0.000898000318557024,0.0034116613678634167
1772699664164311300,2.823311279296875,-0.0003178413026034832,-0.0017656069248914719,0.0015622586943209171
1772699664174268400,2.833268310546875,0.0010259898845106363,0.0005377610214054585,0.0022264509461820126
1772699664184225500,2.8432255859375,0.0008780162315815687,-0.0001864507794380188,-0.001634442014619708
1772699664194182700,2.8531826171875,0.0050059156492352486,-0.0014373376034200191,-0.003911977633833885
1772699664204140500,2.863140625,0.0020627269987016916,-0.0010843672789633274,0.0010978630743920803
1772699664214096600,2.8730966796875,-0.0015008490299805999,0.002438461873680353,0.0007662996649742126
1772699664224053500,2.883053466796875,0.001960958121344447,-0.00029134098440408707,0.003080618567764759
1772699664234010400,2.89301025390625,0.0006687922868877649,-0.000022095628082752228,-0.0031511783599853516
1772699664243967500,2.902967529296875,0.0011539764236658812,-0.0003688274882733822,0.0014299391768872738
1772699664253925600,2.912925537109375,0.0007859275210648775,0.0015419907867908478,0.0012280712835490704
1772699664263881500,2.922881591796875,0.0011555850505828857,0.0020871651358902454,-0.00002856506034731865
1772699664273838600,2.932838623046875,-0.00018451758660376072,-0.0026708384975790977,-0.00009647570550441742
1772699664283796500,2.94279638671875,-0.00013518822379410267,0.000825866125524044,-0.0009547851514071226
1772699664293752300,2.95275244140625,-0.0019384145271033049,0.002016564831137657,0.00005375407636165619
1772699664303709400,2.96270947265625,0.001800463767722249,0.00323359202593565,0.0005830223672091961
1772699664313666600,2.97266650390625,0.0012494558468461037,0.0016130581498146057,0.002417940180748701
1772699664323623400,2.98262353515625,0.00010572094470262527,-0.0005669579841196537,0.002462427131831646
1772699664333581600,2.99258154296875,0.0011648600921034813,0.0016991258598864079,-0.001395161496475339
1772699664343537700,3.00253759765625,0.0009665447287261486,0.0022385716438293457,0.0026029134169220924
1772699664353494500,3.01249462890625,-0.0005855455528944731,0.00026277219876646996,-0.0020925060380250216
1772699664363452400,3.022452392578125,0.001082486705854535,-0.0003506825305521488,-0.002533650491386652
1772699664373408500,3.032408447265625,-0.00018784101121127605,0.001284231897443533,-0.0006744975689798594
1772699664383365600,3.04236572265625,0.0016440409235656261,0.0015004952438175678,0.00298174936324358
1772699664393323500,3.052323486328125,0.0011034193448722363,0.001686649862676859,0.002934877760708332
1772699664403280400,3.0622802734375,-0.00024854112416505814,-0.0004765666089951992,-0.00045257341116666794
1772699664413237500,3.072237548828125,0.0008308379910886288,-0.000800140667706728,-0.0027985519263893366
1772699664423194400,3.0821943359375,0.0001643756404519081,-0.0013413680717349052,0.000665170606225729
1772699664433151500,3.0921513671875,0.0007065951358526945,0.0014368416741490364,-0.00035455403849482536
1772699664443108600,3.102108642578125,0.00007355050183832645,0.0008542397990822792,-0.0010870296973735094
1772699664453065700,3.112065673828125,0.0009065873455256224,0.0005224100314080715,-0.0010518759954720736
1772699664463022600,3.122022705078125,-0.001021737465634942,-0.0013957549817860126,0.000004464760422706604
1772699664472979500,3.1319794921875,0.00011543231084942818,0.0013355831615626812,0.00005985843017697334
1772699664482936600,3.1419365234375,0.0017692639958113432,0.0008308715187013149,-0.0007657243404537439
1772699664492893400,3.1518935546875,-0.0008536834502592683,-0.0012296158820390701,0.0023653539828956127
1772699664502850600,3.1618505859375,0.0019556886982172728,0.001691159326583147,-0.0001803431659936905
1772699664512807700,3.1718076171875,0.0010044074151664972,0.00005091819912195206,0.0009818603284657001
1772699664522764500,3.1817646484375,-0.0013041506754234433,-0.0020218035206198692,0.001382994931191206
1772699664532721400,3.191721435546875,0.0006021400913596153,0.0021199448965489864,0.00034702522680163383
1772699664542678500,3.201678466796875,-0.001324919518083334,-0.0014348719269037247,-0.002586288843303919
1772699664552634400,3.21163427734375,-0.0009520769817754626,0.0014932737685739994,0.0024012792855501175
1772699664562592500,3.221592529296875,-0.000554453581571579,0.0008158404380083084,-0.0005901933182030916
1772699664572549600,3.231549560546875,0.0004349108785390854,0.0003055785782635212,-0.0024637270253151655
1772699664582506500,3.241506591796875,0.002478900132700801,-0.0021134973503649235,0.0006971480324864388
1772699664592463600,3.251463623046875,-0.00009531108662486076,0.00006363680586218834,0.0025666868314146996
1772699664602420500,3.26142041015625,-0.0002570482902228832,-0.0004003220237791538,-0.0034629972651600838
1772699664612377300,3.27137744140625,0.000499289482831955,0.0002454943023622036,-0.0017806785181164742
1772699664622334500,3.28133447265625,-0.000012130243703722954,-0.0011590714566409588,-0.0008329786360263824
1772699664632291600,3.29129150390625,0.0006765632424503565,0.0009320429526269436,-0.0018527030479162931
1772699664642248700,3.301248779296875,0.0005129340570420027,0.0007092468440532684,-0.00047440920025110245
1772699664652205600,3.31120556640625,-0.0004284933675080538,-0.0011270027607679367,0.0032689301297068596
1772699664662162400,3.321162353515625,0.0004213494248688221,0.0017738770693540573,0.00004105968400835991
1772699664672119600,3.33111962890625,-0.0029874967876821756,0.001630599144846201,-0.00015468290075659752
1772699664682076400,3.341076416015625,-0.00006676255725324154,0.003332102205604315,0.0032698302529752254
1772699664692033500,3.351033447265625,-0.0008760972414165735,-0.00033400533720850945,0.002509497571736574
1772699664701990700,3.36099072265625,0.00027368776500225067,0.00027295202016830444,-0.000026893801987171173
1772699664711947500,3.370947509765625,0.0008843506220728159,-0.0023848828859627247,0.0023276065476238728
1772699664721905200,3.3809052734375,-0.0006019978318363428,0.0006988770328462124,-0.001672498881816864
1772699664731862000,3.390862060546875,0.000786574324592948,-0.002264688489958644,0.0006236783228814602
1772699664741819100,3.400819091796875,-0.0011676873546093702,0.0028902613557875156,0.003584235440939665
1772699664751776300,3.4107763671875,0.0026624707970768213,0.0008058049716055393,-0.0015751062892377377
1772699664761733000,3.420733154296875,-0.002816635649651289,0.0017092092894017696,0.0004277564585208893
1772699664771690200,3.430690185546875,0.0011432184837758541,0.0008761724457144737,-0.00032085785642266273
1772699664781647000,3.440647216796875,0.0016008871607482433,-0.004205155186355114,0.0014888276346027851
1772699664791604000,3.45060400390625,0.0026616244576871395,0.0007720263674855232,0.0011165174655616283
1772699664801561000,3.46056103515625,0.0005096266977488995,0.00018659979104995728,-0.0002887784503400326
1772699664811518200,3.470518310546875,0.0018649091944098473,0.0005887369625270367,0.00010749977082014084
1772699664821475000,3.48047509765625,-0.00029977248050272465,-0.0005931323394179344,-0.0009242133237421513
1772699664831432200,3.49043212890625,-0.000053163617849349976,-0.003688790602609515,0.0002848617732524872
1772699664841389000,3.50038916015625,0.00007359636947512627,-0.0014444044791162014,-0.0005360571667551994
1772699664851346200,3.51034619140625,0.0032901621889322996,0.00378604419529438,-0.0016793522518128157
1772699664861303000,3.520302978515625,0.0011953555513173342,-0.00039976416155695915,-0.0007507342379540205
1772699664871260200,3.53026025390625,0.00015326077118515968,0.0018085287883877754,0.0023297443985939026
1772699664881217300,3.54021728515625,0.0008442013058811426,-0.0011010998860001564,0.00019114138558506966
1772699664891174100,3.550174072265625,-0.000019461847841739655,0.0003958628512918949,-0.0006237858906388283
1772699664901131300,3.56013134765625,-0.00010721711441874504,-0.00016376841813325882,-0.0002280217595398426
1772699664911088000,3.570088134765625,-0.0013913934817537665,-0.00014459388330578804,0.003558726981282234
1772699664921045000,3.580044921875,-0.0017098261741921306,-0.001374328974634409,0.00014574499800801277
1772699664931002000,3.590002197265625,0.00038954359479248524,0.00018228869885206223,-0.002602637279778719
1772699664940959200,3.599959228515625,-0.0005507869645953178,0.00006067194044589996,0.0015991674736142159
1772699664950916000,3.609916015625,0.0006271291058510542,-0.00015637557953596115,0.001740847248584032
1772699664960873200,3.619873291015625,0.0023024140391498804,-0.0003319024108350277,-0.00040014274418354034
1772699664970830000,3.629830078125,0.00015004724264144897,0.000034815166145563126,0.0012118685990571976
1772699664980787000,3.639786865234375,-0.00024779350496828556,0.0026822779327630997,0.00010504387319087982
1772699664990744000,3.649744140625,0.0001724532339721918,-0.00011830218136310577,-0.0021882038563489914
1772699665000701200,3.659701171875,0.0003143290523439646,-0.0010421606712043285,0.0022080219350755215
1772699665010658300,3.669658203125,0.0005380345974117517,0.00009634066373109818,-0.0002159872092306614
1772699665020615200,3.679615234375,-0.000494108535349369,-0.0018547298386693,0.0002115536481142044
1772699665030572300,3.689572265625,-0.0010765418410301208,-0.0018826932646334171,-0.0027378969825804234
1772699665040529200,3.699529052734375,0.002899573650211096,-0.0009857937693595886,0.00005328375846147537
1772699665050486000,3.709486083984375,0.0010862271301448345,-0.00039244117215275764,0.00009988900274038315
1772699665060443100,3.719443115234375,0.0007915396708995104,-0.0011556758545339108,0.002739380579441786
1772699665070400300,3.729400146484375,0.0008844840340316296,0.00044008996337652206,-0.000636708689853549
1772699665080357000,3.739357177734375,-0.0005691137630492449,-0.00020704464986920357,-0.0023538244422525167
1772699665090314200,3.749314208984375,0.002016283106058836,-0.000013699289411306381,0.0013676765374839306
1772699665100271000,3.75927099609375,-0.0011334799928590655,0.0014577503316104412,0.0002243383787572384
1772699665110228000,3.76922802734375,-0.0009747556177899241,-0.0001561250537633896,-0.00033226190134882927
1772699665120185000,3.77918505859375,-0.0010708874324336648,-0.0004922016523778439,-0.0008607623167335987
1772699665130142200,3.78914208984375,-0.0011920612305402756,0.0020388662815093994,0.0017667124047875404
1772699665140099000,3.79909912109375,-0.00032905256375670433,-0.00025197025388479233,-0.0011907648295164108
1772699665150056200,3.80905615234375,0.0007356794085353613,0.0002473723143339157,0.0003591948188841343
1772699665160013300,3.819013427734375,0.0005711570847779512,0.0003889980725944042,0.002262928057461977
1772699665169970000,3.828969970703125,-0.0020344797521829605,-0.0012563029304146767,-0.0002247304655611515
1772699665179927000,3.838927001953125,-0.0008870337624102831,-0.0007899263873696327,-0.001549329375848174
1772699665189884200,3.84888427734375,-0.00037890253588557243,-0.0001339898444712162,-0.0004603629931807518
1772699665199841300,3.85884130859375,0.0010189935564994812,0.0009610708802938461,-0.0012419577687978745
1772699665209798100,3.868798095703125,0.002402772195637226,-0.0014773192815482616,-0.000544209498912096
1772699665219755300,3.87875537109375,-0.00013377959839999676,0.0014181556180119514,-0.001131801400333643
1772699665229712100,3.888712158203125,-0.0017471225000917912,-0.0006484575569629669,-0.0025035955477505922
1772699665239669000,3.8986689453125,-0.000308444257825613,0.000552845187485218,0.0013825483620166779
1772699665249626000,3.908626220703125,-0.000466369790956378,0.0014857505448162556,0.0019822921603918076
1772699665259583200,3.918583251953125,0.001741250278428197,0.0004964224062860012,-0.002643847605213523
1772699665269540000,3.9285400390625,-0.000005251029506325722,0.0012325202114880085,0.00044861529022455215
1772699665279497200,3.938497314453125,-0.0025519500486552715,0.0013203672133386135,0.002379246987402439
1772699665289454300,3.948454345703125,-0.0009593795984983444,0.0004985160194337368,0.0017001410014927387
1772699665299411000,3.958410888671875,0.001002263044938445,-0.002295905025675893,0.00015109917148947716
1772699665309368000,3.9683681640625,-0.0010137498611584306,0.0006415615789592266,-0.000063285231590271
1772699665319325200,3.9783251953125,-0.0007255640812218189,-0.00015226798132061958,0.00005561206489801407
1772699665329282000,3.988281982421875,-0.0026220011059194803,0.00027676718309521675,0.000648964662104845
1772699665339239200,3.9982392578125,-0.000074814073741436,-0.0015565571375191212,-0.0016463524661958218
1772699665349196300,4.0081962890625,0.001899386988952756,-0.002406371757388115,0.00004954822361469269
1772699665359153200,4.018153076171875,-0.00030627683736383915,-0.00034569110721349716,0.0002583828754723072
1772699665369110000,4.028110107421875,-0.002037864178419113,-0.00046473415568470955,-0.0022990505676716566
1772699665379067100,4.038067138671875,-0.0019954033195972443,-0.000009419862180948257,0.0009553534910082817
1772699665389024300,4.048024169921875,0.0017037272918969393,0.0012931320816278458,0.0005020834505558014
1772699665398981000,4.057981201171875,-0.0027240156196057796,0.0007795733399689198,-0.0034943101927638054
1772699665408938200,4.067938232421875,-0.001234509632922709,0.0002088574692606926,-0.00117576215416193
1772699665418895400,4.077895263671875,-0.00034461147151887417,-0.002219117246568203,0.003513147123157978
1772699665428852000,4.08785205078125,0.0017108162865042686,0.0030076028779149055,0.0010180319659411907
1772699665438809000,4.09780908203125,0.0007423183415085077,0.0006800852715969086,-0.00038977665826678276
1772699665448766200,4.10776611328125,0.0008581657893955708,0.0017669214867055416,0.0012525948695838451
1772699665458723000,4.11772314453125,0.0008780481293797493,0.0010657813400030136,-0.0004653376527130604
1772699665468680200,4.12768017578125,-0.00017336802557110786,-0.000625592190772295,0.0007727658376097679
1772699665478637300,4.13763720703125,0.0015981376636773348,-0.0024436062667518854,0.0005249627865850925
1772699665488594200,4.14759423828125,-0.0013233498902991414,-0.000041701365262269974,-0.0004990226589143276
1772699665498551000,4.157551025390625,0.0005058108363300562,0.0016304808668792248,0.0005353288725018501
1772699665508508200,4.167508056640625,0.0009044860489666462,0.001867236103862524,0.0031718583777546883
1772699665518465000,4.177465087890625,0.000014069722965359688,0.002320157829672098,0.00037333741784095764
1772699665528422100,4.187422119140625,0.000013004522770643234,0.0007552849128842354,0.0035483576357364655
1772699665538379300,4.197379150390625,0.00028667133301496506,0.0001677265390753746,0.0005272324196994305
1772699665548336000,4.207336181640625,0.001493882155045867,0.0001749168150126934,0.0005757021717727184
1772699665558293000,4.21729296875,-0.0012832916108891368,0.0006769453175365925,-0.0006150549743324518
1772699665568250000,4.22725,-0.002217528410255909,0.0014061187393963337,-0.0015282528474926949
1772699665578207200,4.237207275390625,0.0020294059067964554,-0.0025612208992242813,0.0016035656444728374
1772699665588164000,4.2471640625,-0.0010212453780695796,-0.0012003453448414803,-0.0011187174823135138
1772699665598121200,4.257121337890625,-0.0004724666941910982,0.0005778707563877106,-0.0004549706354737282
1772699665608078300,4.267078369140625,0.00027854484505951405,-0.001422695815563202,-0.00012873345986008644
1772699665618035200,4.27703515625,-0.0031529616098850965,0.0004252679646015167,0.0009396052919328213
1772699665627992000,4.286991943359375,0.00033045304007828236,-0.003462947439402342,-0.000864686444401741
1772699665637949200,4.29694921875,0.0005452868063002825,0.0018909117206931114,-0.0013558068312704563
1772699665647906000,4.306906005859375,-0.0022544944658875465,0.0005255090072751045,-0.0028098926413804293
1772699665657863200,4.31686328125,0.0007731753867119551,0.0012997896410524845,-0.0012978236190974712
1772699665667820300,4.3268203125,-0.000014587538316845894,0.00222124345600605,0.0007448210380971432
1772699665677777200,4.336777099609375,-0.001363260205835104,0.0016700448468327522,-0.0013385547790676355
1772699665687734000,4.346734130859375,0.0017419857904314995,0.0015699099749326706,-0.0034120918717235327
1772699665697691100,4.356691162109375,-0.0007802741602063179,0.0005920957773923874,0.00012333830818533897
1772699665707648000,4.36664794921875,-0.00097681547049433,-0.000068634282797575,0.00015982333570718765
1772699665717604000,4.37660400390625,-0.0008804367389529943,-0.00022821687161922455,0.002390450332313776
1772699665727561200,4.386561279296875,0.0012191992718726397,0.001936399843543768,0.0027329325675964355
1772699665737518300,4.396518310546875,-0.00003702356480062008,-0.00021680118516087532,-0.0014361371286213398
1772699665747475500,4.406475341796875,-0.00042264931835234165,-0.000021857675164937973,-0.0004688771441578865
1772699665757432300,4.416432373046875,0.0011986405588686466,0.0006327629089355469,-0.0005051158368587494
1772699665767389200,4.42638916015625,-0.001079693902283907,-0.003309514606371522,-0.000011632218956947327
1772699665777346300,4.43634619140625,0.0012045607436448336,-0.0019033276475965977,-0.0007898036856204271
1772699665787303200,4.44630322265625,-0.0008253005798906088,-0.00020449701696634293,-0.00338638573884964
1772699665797260300,4.45626025390625,-0.0013106510741636157,0.0015442934818565845,-0.0019760800059884787
1772699665807217400,4.466217529296875,0.0011764750815927982,0.00024520372971892357,-0.0009875146206468344
1772699665817174300,4.47617431640625,0.0003382498398423195,-0.0003677145577967167,0.0021245554089546204
1772699665827131400,4.48613134765625,0.0006556985899806023,-0.00045480020344257355,0.0017751487903296947
1772699665837088300,4.496088134765625,0.0004667725879698992,-0.0026244830805808306,0.0018476718105375767
1772699665847045000,4.506045166015625,0.0002414691261947155,0.0005129869095981121,0.002280169166624546
1772699665857002200,4.516002197265625,-0.0009936147835105658,-0.000440315343439579,0.0012537562288343906
1772699665866959400,4.52595947265625,-0.0018162651685997844,-0.0010722838342189789,-0.00008101994171738625
1772699665876916200,4.535916259765625,0.0015094284899532795,0.001039526890963316,0.00018101418390870094
1772699665886873300,4.545873291015625,0.0014524366706609726,-0.0009210919961333275,0.0022196639329195023
1772699665896830200,4.555830322265625,0.0027353025507181883,-0.0010715522803366184,-0.0016341214068233967
1772699665906787000,4.565787109375,0.0009097056463360786,-0.0001141461543738842,-0.0005574054084718227
1772699665916744200,4.575744140625,-0.0010328228818252683,0.0003568846732378006,-0.00005455967038869858
1772699665926701300,4.585701416015625,-0.001091412384994328,-0.0008207652717828751,-0.0003155493177473545
1772699665936658400,4.595658447265625,-0.00007193000055849552,0.0013482426293194294,0.00032449932768940926
1772699665946615300,4.605615234375,-0.0018141698092222214,-0.000922102015465498,0.0015221228823065758
1772699665956572400,4.615572509765625,-0.0012034788960590959,0.0008933260105550289,0.0013151303865015507
1772699665966529300,4.625529296875,-0.000019703758880496025,-0.0008632950484752655,-0.0013424379285424948
1772699665976486100,4.635486083984375,-0.00013512489385902882,-0.001173318363726139,0.0009297099895775318
1772699665986443300,4.645443359375,0.0009144267532974482,-0.001203678548336029,-0.0026935203932225704
1772699665996400400,4.655400390625,-0.001133538200519979,0.0014629997313022614,-0.000029538758099079132
1772699666006357200,4.665357177734375,-0.0010714865056797862,-0.0006225216202437878,0.0030003394931554794
1772699666016314400,4.675314453125,0.0005547956097871065,-0.0025487502571195364,0.003092286642640829
1772699666026271200,4.685271240234375,0.00014520133845508099,-0.0029093422926962376,0.0006277975626289845
1772699666036228000,4.69522802734375,0.0010112083982676268,0.0013057799078524113,0.00014429353177547455
1772699666046185200,4.705185302734375,-0.0005089237820357084,0.0001797955483198166,-0.0002309461124241352
1772699666056142300,4.715142333984375,0.00042444164864718914,0.00178184499964118,0.0005567008629441261
1772699666066099200,4.72509912109375,0.002746718004345894,-0.0009055505506694317,-0.0005149552598595619
1772699666076056300,4.735056396484375,0.0007736808620393276,0.0011419802904129028,-0.0014520562253892422
1772699666086013400,4.745013427734375,-0.0018311571329832077,-0.00042182812467217445,0.0035727964714169502
1772699666095970300,4.75497021484375,-0.000582702923566103,0.0004910649731755257,-0.0004059933125972748
1772699666105927200,4.76492724609375,0.0014330437406897545,0.0006218263879418373,-0.0005095903761684895
1772699666115884300,4.77488427734375,0.001462589018046856,0.0014886008575558662,-0.0020472491160035133
1772699666125841400,4.78484130859375,-0.002645603148266673,0.0010680877603590488,-0.00013829534873366356
1772699666135798300,4.79479833984375,0.002983860205858946,-0.0008276156149804592,-0.0014269538223743439
1772699666145755400,4.80475537109375,-0.0017227442003786564,-0.00014584651216864586,-0.0014591780491173267
1772699666155712300,4.814712158203125,-0.0006879037246108055,-0.000029985792934894562,-0.000003825873136520386
1772699666165669000,4.824669189453125,0.0006559272296726704,0.0004174252972006798,0.002321912907063961
1772699666175626200,4.834626220703125,0.00015005329623818398,0.00006582261994481087,-0.0008314789738506079
1772699666185583400,4.844583251953125,-0.0005982948932796717,-0.0013943887315690517,0.0023765647783875465
1772699666195540200,4.854540283203125,0.0022370426449924707,0.001667434349656105,-0.0011940817348659039
1772699666205497300,4.864497314453125,0.00014486326836049557,-0.0010657678358256817,-0.0008766329847276211
1772699666215454500,4.874454345703125,0.0008940927218645811,0.002427979838103056,-0.00009274203330278397
1772699666225411000,4.8844111328125,0.0013159376103430986,0.0002793408930301666,0.002872687764465809
1772699666235368200,4.8943681640625,0.00030059413984417915,0.0008359686471521854,-0.0006649766582995653
1772699666245325300,4.9043251953125,0.000746673671528697,-0.0030879327096045017,-0.0017342357896268368
1772699666255282200,4.9142822265625,-0.001009640283882618,-0.00003802403807640076,0.0009653805755078793
1772699666265239300,4.9242392578125,0.00020289700478315353,-0.0016505680978298187,-0.0016373270191252232
1772699666275196400,4.934196533203125,0.0006909486837685108,0.00017291028052568436,-0.0012622924987226725
1772699666285153300,4.9441533203125,-0.0007141351234167814,-0.0007605277933180332,0.0019204514101147652
1772699666295110100,4.954110107421875,0.0010791034437716007,0.0004039141349494457,0.0034340103156864643
1772699666305067300,4.9640673828125,0.0008767032995820045,-0.002115969080477953,0.0007985467091202736
1772699666315024400,4.9740244140625,0.0002795786131173372,-0.00013707159087061882,-0.000939027639105916
1772699666324981200,4.983981201171875,-0.0006799583788961172,0.000025381334125995636,-0.002605101093649864
1772699666334938400,4.9939384765625,0.0021220899652689695,0.0006635221652686596,-0.0024555271957069635
1772699666344895500,5.0038955078125,0.003062718315050006,0.0007338295690715313,-0.001531676622107625
1772699666354852000,5.01385205078125,-0.00034624431282281876,-0.0013772966340184212,0.0020804917439818382
1772699666364809200,5.023809326171875,-0.0006120277103036642,-0.0014830240979790688,-0.0009318098891526461
1772699666374766300,5.033766357421875,0.0007642237469553947,-0.0001739906147122383,0.0017587500624358654
1772699666384723200,5.04372314453125,0.0010116314515471458,-0.0020469920709729195,-0.001080179587006569
1772699666394680300,5.053680419921875,-0.00012483610771596432,0.0004663364961743355,0.0002491110935807228
1772699666404637400,5.063637451171875,0.000991560984402895,0.0019100364297628403,0.0005058394744992256
1772699666414594000,5.073593994140625,-0.00027812481857836246,-0.0008391318842768669,-0.000769155565649271
1772699666424551200,5.08355126953125,-0.0009646877879276872,0.0005883225239813328,0.0003632204607129097
1772699666434508300,5.09350830078125,0.00002261134795844555,-0.0008838940411806107,-0.002392176305875182
1772699666444465200,5.103465087890625,0.002018118044361472,0.0012322538532316685,-0.00036338018253445625
1772699666454422300,5.11342236328125,-0.00024181255139410496,0.0005177906714379787,0.0005475659854710102
1772699666464379400,5.12337939453125,-0.0003813621588051319,0.002639797516167164,-0.0017736449372023344
1772699666474336500,5.13333642578125,0.0010520468931645155,0.001874424982815981,-0.00013121450319886208
1772699666484293000,5.143293212890625,0.0015572484117001295,0.0011652256362140179,0.0008187349885702133
1772699666494249200,5.153249267578125,-0.0007321496959775686,0.0011237990111112595,-0.0011016526259481907
1772699666504207400,5.163207275390625,-0.0019508122932165861,-0.0011289692483842373,-0.0020268347579985857
1772699666514164200,5.173164306640625,0.0011306838132441044,-0.00024996139109134674,0.00249705882743001
1772699666524121300,5.183121337890625,-0.001072016661055386,-0.0012044385075569153,0.0004232553765177727
1772699666534078500,5.193078369140625,-0.00004142429679632187,-0.0005863611586391926,-0.003408885095268488
1772699666544035000,5.20303515625,-0.00025048223324120045,0.0015681362710893154,-0.006029169540852308
1772699666553992200,5.2129921875,-0.0000057730358093976974,-0.0011006686836481094,-0.001774956937879324
1772699666563949300,5.22294921875,-0.0008345486130565405,0.0009350515902042389,-0.0024812272749841213
1772699666573906200,5.23290625,-0.0016474705189466476,0.0020562163554131985,0.003354202024638653
1772699666583863300,5.24286328125,-0.00005330238491296768,0.0017158649861812592,0.0013347268104553223
1772699666593820400,5.2528203125,0.0015188276302069426,-0.0001307292841374874,0.0008996035903692245
1772699666603776300,5.2627763671875,0.0011635618284344673,-0.0004045022651553154,0.003416024148464203
1772699666613734100,5.272734130859375,-0.00033136014826595783,-0.0016661216504871845,-0.00022445153445005417
1772699666623690200,5.282690185546875,0.0010841100011020899,0.0009134160354733467,-0.0004103402607142925
1772699666633648000,5.292648193359375,0.000969200162217021,0.0005073533393442631,0.0007868297398090363
1772699666643605200,5.302605224609375,-0.0006060595624148846,0.0025364155881106853,-0.0015173372812569141
1772699666653561300,5.312561279296875,-0.001855039270594716,0.0014917128719389439,0.0015121647156774998
1772699666663519500,5.32251953125,0.00015111989341676235,0.000884511973708868,-0.0026785852387547493
1772699666673476000,5.33247607421875,0.0011701288167387247,-0.0006077112630009651,0.00012342212721705437
1772699666683432400,5.342432373046875,-0.0003151162527501583,0.0009691463783383369,-0.0005689999088644981
1772699666693389000,5.35238916015625,0.0028214494232088327,-0.0009305821731686592,0.001533515751361847
1772699666703346200,5.36234619140625,0.0015029183123260736,-0.0021194173023104668,0.0004030037671327591
1772699666713303300,5.37230322265625,0.0025841868482530117,0.0004985565319657326,0.0010568941943347454
1772699666723262000,5.382261962890625,-0.0028348134364932775,0.00282855611294508,-0.001573243411257863
1772699666733218000,5.392218017578125,-0.002012545708566904,-0.0006655324250459671,-0.0018382191192358732
1772699666743175000,5.4021748046875,-0.0016849769745022058,-0.0004008142277598381,0.002456394489854574
1772699666753132000,5.412132080078125,-0.0007101811934262514,-0.0017489301972091198,-0.0038017453625798225
1772699666763089200,5.422089111328125,0.0008387132547795773,-0.000049567315727472305,-0.0013974434696137905
1772699666773046000,5.4320458984375,-0.0007710435893386602,-0.0019365525804460049,0.00059882877394557
1772699666783003100,5.442003173828125,-0.002818215638399124,-0.0005146912299096584,-0.002333578187972307
1772699666792960300,5.451960205078125,-0.0025959836784750223,0.0012131845578551292,-0.000009217299520969391
1772699666802917000,5.461917236328125,0.000642153900116682,0.00041689909994602203,-0.0008004424162209034
1772699666812874000,5.4718740234375,-0.0004528178833425045,-0.00001874007284641266,0.0019214586354792118
1772699666822831000,5.4818310546875,-0.0019841354805976152,-0.000697313342243433,0.0011491421610116959
1772699666832788000,5.4917880859375,0.0019695155788213015,0.0009862454608082771,-0.0018390913028270006
1772699666842745000,5.5017451171875,0.0005569751374423504,-0.0011480115354061127,-0.00041216984391212463
1772699666852702200,5.5117021484375,0.001725105568766594,0.00015480956062674522,-0.0006577577441930771
1772699666862659000,5.5216591796875,0.00048460508696734905,-0.0003352118656039238,-0.001395986182615161
1772699666872616000,5.531615966796875,-0.000052519841119647026,0.0025743478909134865,-0.0003927396610379219
1772699666882573000,5.541572998046875,0.0007474939338862896,0.0013088136911392212,-0.002305688103660941
1772699666892530000,5.551530029296875,0.000755824614316225,0.00041377171874046326,0.0013706423342227936
1772699666902487000,5.561487060546875,0.00199685781262815,0.0020481538958847523,0.0019376291893422604
1772699666912444200,5.571444091796875,-0.002054629847407341,-0.0018286071717739105,-0.0006428835913538933
1772699666922401000,5.581401123046875,-0.0020189436618238688,0.0003474615514278412,0.00028283102437853813
1772699666932358100,5.591358154296875,-0.0019960803911089897,0.0013984106481075287,-0.003747284412384033
1772699666942315000,5.60131494140625,0.0006140838377177715,-0.0003374377265572548,0.00019712373614311218
1772699666952272100,5.611272216796875,-0.00008641299791634083,0.001024837139993906,-0.00008968356996774673
1772699666962229000,5.62122900390625,-0.0016915000742301345,0.0012450804933905602,-0.003880959702655673
1772699666972186000,5.63118603515625,-0.00012020207941532135,-0.000245572067797184,-0.002180113224312663
1772699666982143200,5.641143310546875,0.0009107077494263649,-0.00027752993628382683,-0.002865877002477646
1772699666992100000,5.65110009765625,0.0012470451183617115,0.0017772251740098,0.00020598899573087692
1772699667002057000,5.661056884765625,0.0009855227544903755,0.0002533639781177044,0.000994550995528698
1772699667012014000,5.67101416015625,-0.0032160996925085783,0.00020542973652482033,-0.000637424411252141
1772699667021971000,5.680970947265625,0.0005466805305331945,0.002467518672347069,-0.0008731142152100801
1772699667031928000,5.690927978515625,-0.0008485050639137626,0.0006832275539636612,-0.0019856819417327642
1772699667041885200,5.70088525390625,-0.0019579781219363213,0.0008078636601567268,0.0043297382071614265
1772699667051842000,5.710842041015625,-0.0023444611579179764,0.0033003869466483593,-0.003068287158384919
1772699667061799200,5.720799072265625,0.0020247206557542086,-0.0002530687488615513,0.0003347001038491726
1772699667071756000,5.730756103515625,0.0018873964436352253,0.001459987834095955,0.001256725750863552
1772699667081713000,5.740712890625,-0.002160075819119811,-0.0021730964072048664,0.004572360776364803
1772699667091670000,5.750669921875,-0.0006020271684974432,0.0015957634896039963,-0.0002678944729268551
1772699667101627100,5.760627197265625,0.000016358913853764534,-0.0023395896423608065,-0.001898281741887331
1772699667111584000,5.770583984375,0.0007447553798556328,-0.0014209272339940071,0.0003145388327538967
1772699667121541000,5.780541015625,-0.00017456780187785625,-0.00041638314723968506,-0.001612790860235691
1772699667131498000,5.790498046875,0.0027389065362513065,-0.0005894163623452187,0.0009193685837090015
1772699667141455000,5.800455078125,-0.0017461231909692287,0.0018005040474236012,0.0014032647013664246
1772699667151412000,5.810411865234375,-0.0009711486054584384,0.0012847152538597584,0.00025423476472496986
1772699667161369000,5.820369140625,-0.000951973837800324,-0.0008838968351483345,-0.0005343272350728512
1772699667171326200,5.830326171875,-0.0017829257994890213,-0.0023779894690960646,-0.0011865554843097925
1772699667181283000,5.840282958984375,-0.0008974247612059116,-0.00040991324931383133,0.0007988312281668186
1772699667191240200,5.850240234375,0.0010244930163025856,0.0001297658309340477,0.002466323785483837
1772699667201197000,5.860197021484375,-0.0031835678964853287,-0.0019709356129169464,-0.001482611522078514
1772699667211154000,5.87015380859375,0.0012709598522633314,0.000497027300298214,-0.0015702126547694206
1772699667221111000,5.880111083984375,0.0010634995996952057,0.000756419263780117,0.002249026671051979
1772699667231068200,5.890068115234375,-0.0015646496322005987,0.00017446698620915413,0.00001468835398554802
1772699667241025000,5.90002490234375,0.0005965055897831917,-0.0023568677715957165,0.0014035268686711788
1772699667250982100,5.909982177734375,0.001963452436029911,0.0005852840840816498,0.000192954670637846
1772699667260939000,5.91993896484375,0.000524014001712203,0.00029899412766098976,0.0009948322549462318
1772699667270895900,5.929895751953125,-0.0004753849934786558,-0.0014546127058565617,0.0014970912598073483
1772699667280853000,5.93985302734375,-0.000868467497639358,-0.0023126835003495216,0.0003154468722641468
1772699667290810000,5.94981005859375,-0.001050923834554851,-0.0007565366104245186,0.0015408876352012157
1772699667300767200,5.959767333984375,-0.0010583807015791535,0.0018192725256085396,0.0010737692937254906
1772699667310724000,5.96972412109375,0.0008746124804019928,0.0014943145215511322,-0.001654680585488677
1772699667320681200,5.97968115234375,0.0004162825644016266,-0.001365121454000473,0.0012028911150991917
1772699667330638000,5.98963818359375,0.0002940450794994831,0.0002158377319574356,-0.0014565740711987019
1772699667340595000,5.999594970703125,0.00048179784789681435,-0.0005138684064149857,0.00011016381904482841
1772699667350552000,6.009552001953125,0.0011234034318476915,0.0002054823562502861,0.0004416918382048607
1772699667360509200,6.01950927734375,-0.002039632759988308,0.0015628957189619541,-0.001637171721085906
1772699667370466000,6.029466064453125,-0.002222087001428008,0.001125164795666933,-0.00010014232248067856
1772699667380423200,6.039423095703125,0.0002695666626095772,0.0005017188377678394,-0.0008671325631439686
1772699667390380000,6.049380126953125,0.00025437562726438046,0.0009645563550293446,0.0003449656069278717
1772699667400337000,6.0593369140625,0.0002359999343752861,-0.002125509548932314,0.0005646767094731331
1772699667410294000,6.0692939453125,0.0009534007403999567,0.001667422242462635,0.0011625615879893303
1772699667420251100,6.079251220703125,-0.0006705950945615768,0.0003148023970425129,-0.0011266914661973715
1772699667430208000,6.0892080078125,0.0027817359659820795,0.0014588544145226479,-0.00035963859409093857
1772699667440165000,6.0991650390625,-0.0003480110317468643,-0.00002346094697713852,-0.0003894660621881485
1772699667450122200,6.109122314453125,0.0020090595353394747,-0.0008139270357787609,0.0006635682657361031
1772699667460078800,6.119078857421875,-0.0010679566767066717,-0.00014813663437962532,0.0004308079369366169
1772699667470036000,6.129035888671875,-0.0008927820017561316,0.001316155306994915,0.0017540166154503822
1772699667479993000,6.1389931640625,-0.0010251411003991961,-0.0017552683129906654,0.0024552266113460064
1772699667489950200,6.1489501953125,-0.0008735506562516093,0.002244915347546339,-0.0012770819012075663
1772699667499907000,6.158906982421875,0.0017091829795390368,-0.002285920549184084,0.0006832708604633808
1772699667509864200,6.1688642578125,-0.00009012455120682716,0.0028842869214713573,-0.0015843186993151903
1772699667519821000,6.178821044921875,0.00011280830949544907,0.001078663393855095,-0.00001917872577905655
1772699667529778000,6.18877783203125,0.0026260109152644873,0.0012945402413606644,-0.00027522072196006775
1772699667539735000,6.198735107421875,-0.000743154319934547,-0.001316689420491457,0.0006225309334695339
1772699667549692200,6.208692138671875,-0.00035994104109704494,-0.00005666818469762802,0.0006220992654561996
1772699667559649000,6.21864892578125,-0.00014955131337046623,-0.00020447373390197754,0.00021516811102628708
1772699667569606100,6.228606201171875,0.0006735604256391525,-0.0007856613956391811,-0.00153581821359694
1772699667579563300,6.238563232421875,-0.0004265913739800453,0.0007150298915803432,0.00045010121539235115
1772699667589520000,6.248519775390625,-0.0004482502117753029,-0.0012900931760668755,-0.0013880862388759851
1772699667599477000,6.25847705078125,0.0011986484751105309,-0.0010259076952934265,-0.001922316150739789
1772699667609434000,6.26843408203125,-0.00004495983012020588,-0.00012633949518203735,0.0006386023014783859
1772699667619391000,6.278390869140625,0.00004931609146296978,0.0022601191885769367,-0.0011816683690994978
1772699667629348000,6.28834814453125,0.0010456384625285864,-0.0012620561756193638,0.001226642169058323
1772699667639305200,6.29830517578125,-0.00007954705506563187,-0.00033607520163059235,-0.002116157440468669
1772699667649261800,6.30826171875,0.002408658852800727,0.00002452172338962555,-0.0015875110402703285
1772699667659219000,6.318218994140625,0.002158588031306863,-0.00057974923402071,-0.00157419522292912
1772699667669176000,6.328176025390625,-0.0010959244100376964,0.0003563505597412586,-0.0011694859713315964
1772699667679133200,6.33813330078125,-0.0011356055038049817,0.002263440750539303,-0.004123464226722717
1772699667689090000,6.348090087890625,0.0002705915831029415,-0.00086930301040411,-0.00186459394171834
1772699667699047200,6.358047119140625,0.0013747382909059525,0.0007387138903141022,0.00109897181391716
1772699667709004300,6.36800439453125,0.000805300660431385,-0.001034839078783989,0.0005720094777643681
1772699667718961000,6.3779609375,0.0015805470757186413,-0.003250588895753026,-0.0006240163929760456
1772699667728918000,6.38791796875,-0.00019919220358133316,0.0028055300936102867,-0.0006526962388306856
1772699667738875000,6.397875,-0.0008290298283100128,-0.0011093169450759888,-0.001590927829965949
1772699667748832000,6.40783203125,-0.0018269793363288045,-0.0007927054539322853,0.0017373347654938698
1772699667758789000,6.4177890625,0.0016010415274649858,0.001029429491609335,-0.0017000071238726377
1772699667768746200,6.427746337890625,0.0002509912010282278,-0.0024873893707990646,0.002167751081287861
1772699667778702800,6.437702880859375,0.00021344074048101902,-0.0007273061200976372,0.0018955757841467857
1772699667788660000,6.447659912109375,0.0013770817313343287,0.001146362628787756,-0.00020785443484783173
1772699667798617000,6.4576171875,-0.0024962197057902813,0.0014819209463894367,-0.002252363134175539
1772699667808574000,6.467573974609375,0.0018642572686076164,-0.00021948153153061867,0.0032384516671299934
1772699667818531000,6.477531005859375,-0.0009198113111779094,-0.000635999720543623,-0.001951250247657299
1772699667828488200,6.48748828125,0.000264129601418972,0.0008036261424422264,0.0009504305198788643
1772699667838445000,6.497445068359375,-0.001152405864559114,-0.0002808128483593464,0.0013112891465425491
1772699667848402000,6.50740185546875,-0.0016478209290653467,0.0023263636976480484,-0.0038847937248647213
1772699667858359000,6.517359130859375,-0.0007711081998422742,0.0002245972864329815,0.001358171459287405
1772699667868316000,6.52731591796875,-0.0012332417536526918,0.00184734258800745,0.0009752106852829456
1772699667878273000,6.53727294921875,-0.0007181864930316806,0.0013301563449203968,-0.0011923362035304308
1772699667888230100,6.547230224609375,-0.000505304429680109,-0.000008196104317903519,-0.0005318238399922848
1772699667898187000,6.55718701171875,-0.001583085861057043,-0.002012757584452629,0.0014154794625937939
1772699667908143900,6.567143798828125,0.000998491421341896,0.0002910778857767582,0.0005955789238214493
1772699667918101000,6.57710107421875,0.0004578696098178625,0.00021144933998584747,0.0006139548495411873
1772699667928057900,6.587057861328125,0.000052458373829722404,-0.001968858763575554,-0.001629262464120984
1772699667938015000,6.597014892578125,-0.0005028105806559324,0.0018357336521148682,0.0036246213130652905
1772699667947972000,6.60697216796875,0.002192187123000622,0.001510190311819315,0.0019397148862481117
1772699667957929200,6.61692919921875,-0.001916804350912571,0.0008521233685314655,-0.003542402060702443
1772699667967886000,6.626885986328125,-0.004006628878414631,0.000946353655308485,-0.0007257766555994749
1772699667977843000,6.636843017578125,-0.001288873259909451,0.0010286453180015087,-0.0002799634821712971
1772699667987800000,6.646800048828125,0.00037283264100551605,-0.003191091353073716,0.0018046526238322258
1772699667997757000,6.6567568359375,-0.00004182150587439537,0.0005621016025543213,-0.0009586433880031109
1772699668007714000,6.666714111328125,0.0025895244907587767,0.0008383649401366711,-0.0009483860339969397
1772699668017671200,6.676671142578125,0.0006827011238783598,-0.0008282414637506008,0.0009693563915789127
1772699668027628000,6.6866279296875,0.002472544787451625,0.00023881718516349792,-0.0005523522850126028
1772699668037585000,6.6965849609375,-0.0017552232602611184,0.0002414807677268982,-0.00002424744889140129
1772699668047542000,6.7065419921875,0.0011042705737054348,0.001362370327115059,0.003130185417830944
1772699668057499000,6.716498779296875,0.0003458024002611637,-0.001914117019623518,0.0014228327199816704
1772699668067456000,6.7264560546875,-0.001302399206906557,0.0011417074128985405,-0.00029274122789502144
1772699668077413000,6.7364130859375,-0.00034312857314944267,-0.0021065501496195793,0.0015496332198381424
1772699668087370000,6.746369873046875,0.002055614721029997,-0.000772528350353241,-0.001647341065108776
1772699668097327000,6.7563271484375,-0.0015630886191502213,-0.0013842564076185226,0.0014200876466929913
1772699668107284000,6.766283935546875,0.0009173003491014242,-0.0008761915378272533,0.0008232551626861095
1772699668117240800,6.77624072265625,-0.0010276061948388815,-0.00020294450223445892,0.00036013126373291016
1772699668127198000,6.786197998046875,-0.00189686450175941,0.001801042351871729,-0.001512354239821434
1772699668137155000,6.796155029296875,0.00047121825627982616,-0.0005388110876083374,-0.0008902398403733969
1772699668147112200,6.8061123046875,-0.000007638242095708847,-0.0021808003075420856,-0.0011800448410212994
1772699668157069000,6.816069091796875,-0.00025983969680964947,0.00011457828804850578,0.0025824690237641335
1772699668167026000,6.82602587890625,-0.0027603611815720797,0.00020675081759691238,0.0011279378086328506
1772699668176983000,6.835983154296875,-0.0018796538934111595,0.001086659263819456,-0.0035909172147512436
1772699668186940000,6.84593994140625,-0.00029147625900804996,-0.001208251342177391,-0.0018838876858353615
1772699668196897000,6.85589697265625,-0.0002525942400097847,-0.00027774320915341377,0.001930557657033205
1772699668206854100,6.865854248046875,0.0007436135783791542,0.001749951858073473,0.0013004522770643234
1772699668216811000,6.87581103515625,0.0003366826567798853,0.0003651082515716553,-0.0004766751080751419
1772699668226768100,6.88576806640625,-0.0017926509026437998,-0.0008969740010797977,-0.0017516107764095068
1772699668236725000,6.89572509765625,0.0010207125451415777,0.0012162444181740284,0.00010088412091135979
1772699668246681900,6.905681884765625,0.003202298656105995,0.0004734015092253685,0.0009839404374361038
1772699668256639000,6.915638916015625,0.00027042441070079803,-0.00020437315106391907,0.002211923711001873
1772699668266596000,6.92559619140625,-0.0003278700169175863,0.0010443809442222118,0.00220357533544302
1772699668276553000,6.935552978515625,0.0019363495521247387,0.0013953852467238903,-0.0012103309854865074
1772699668286510000,6.945510009765625,0.0004940079525113106,0.0018736631609499454,-0.0018957473803311586
1772699668296467000,6.955467041015625,0.0019209296442568302,0.0013106712140142918,-0.0026470250450074673
1772699668306424000,6.965424072265625,0.0003037962596863508,0.0018812627531588078,0.00005863513797521591
1772699668316381000,6.975380859375,0.003091859631240368,0.0008314447477459908,0.0004778169095516205
1772699668326338000,6.985338134765625,0.0016993922181427479,0.003931066021323204,-0.0023643625900149345
1772699668336295200,6.995295166015625,0.0009569027461111546,-0.00036248238757252693,-0.00037897611036896706
1772699668346252000,7.005251953125,0.002280117943882942,-0.00039607565850019455,0.0035757794976234436
1772699668356209200,7.015209228515625,0.001990099437534809,-0.0008586668409407139,-0.0010666430462151766
1772699668366166000,7.025166015625,0.0017520985566079617,-0.0005599656142294407,-0.0007936118636280298
1772699668376123000,7.035122802734375,0.0014636781997978687,0.0008357972837984562,0.0015454422682523727
1772699668386080000,7.045080078125,0.001877588452771306,0.0017229272052645683,0.0002691228874027729
1772699668396037000,7.055037109375,-0.0010747920023277402,0.0019916403107345104,0.002407108899205923
1772699668405994000,7.064993896484375,-0.0017561097629368305,-0.0003883936442434788,-0.0007846376392990351
1772699668415951000,7.074951171875,0.00039945286698639393,0.0003037620335817337,-0.0004453510046005249
1772699668425908000,7.084907958984375,-0.002514465479180217,0.0008118636906147003,0.0018444349989295006
1772699668435864800,7.09486474609375,0.0004285937175154686,0.00144196767359972,0.0018508266657590866
1772699668445822000,7.104822021484375,-0.0000965707004070282,-0.0006655934266746044,-0.0006128726527094841
1772699668455779000,7.114779052734375,-0.0018441369757056236,0.0009541413746774197,-0.002477884292602539
1772699668465736000,7.12473583984375,-0.001112749450840056,-0.00046864524483680725,-0.0013404646888375282
1772699668475693000,7.134693115234375,0.0009554615244269371,-0.0021552250254899263,0.0013951342552900314
1772699668485650200,7.144650146484375,0.0013181152753531933,0.001969242002815008,0.0023970305919647217
1772699668495607000,7.15460693359375,0.0032015028409659863,0.0025175861082971096,0.00016663316637277603
1772699668505564000,7.16456396484375,0.0004839233588427305,0.00295436754822731,0.0018989802338182926
1772699668515521000,7.17452099609375,0.00038458756171166897,0.000280553475022316,-0.000595336314290762
1772699668525478100,7.18447802734375,-0.00003063445910811424,-0.0015666317194700241,0.00017244182527065277
1772699668535435000,7.19443505859375,0.0017709939274936914,0.0007034465670585632,0.002226804383099079
1772699668545392000,7.20439208984375,-0.002996048191562295,-0.0004163677804172039,-0.0005429142620414495
1772699668555349000,7.214348876953125,-0.0007627214072272182,0.0012851259671151638,-0.0014491879846900702
1772699668565305900,7.224305908203125,-0.001594878500327468,0.0035004341043531895,-0.0007443807553499937
1772699668575263000,7.234262939453125,-0.0008348122937604785,0.0009608441032469273,0.0010985266417264938
1772699668585220000,7.24422021484375,0.0002748696133494377,-0.001569022424519062,-0.0005745291709899902
1772699668595177000,7.254177001953125,0.00026847817935049534,0.0028094802983105183,-0.0017151611391454935
1772699668605134000,7.264134033203125,0.0008636608254164457,0.0018739933148026466,0.00047390861436724663
1772699668615091200,7.27409130859375,-0.0010855068685486913,0.0014430936425924301,0.0003716433420777321
1772699668625047800,7.2840478515625,0.0009494668338447809,0.0011814795434474945,-0.0003659389913082123
1772699668635005000,7.2940048828125,-0.0023432655725628138,0.00031222356483340263,-0.002227755030617118
1772699668644962000,7.303962158203125,-0.0005547485779970884,-0.001330159604549408,-0.0006181038916110992
1772699668654919000,7.3139189453125,0.0011259724851697683,-0.0010976656340062618,0.0008503631688654423
1772699668664876000,7.3238759765625,-0.00011076894588768482,-0.0005023423582315445,-0.0015667788684368134
1772699668674833200,7.333833251953125,0.00020241877064108849,-0.0009545469656586647,0.0012889285571873188
1772699668684790000,7.3437900390625,0.0031220645178109407,-0.00022094789892435074,0.0029989201575517654
1772699668694747000,7.353746826171875,-0.000033781398087739944,0.0008363267406821251,-0.0010608022566884756
1772699668704704000,7.3637041015625,0.0007708673365414143,0.0016868654638528824,-0.0026189503259956837
1772699668714661000,7.3736611328125,-0.001731971395201981,0.0014871284365653992,-0.0006234436295926571
1772699668724617200,7.3836171875,0.00010074814781546593,-0.0003300299867987633,0.001753801479935646
1772699668734574300,7.39357421875,0.00038783694617450237,-0.00026158662512898445,0.005362917669117451
1772699668744531200,7.40353125,0.0011523470748215914,0.0022956295870244503,0.0002271556295454502
1772699668754488300,7.41348828125,-0.000004796544089913368,0.001267382875084877,-0.0007100109942257404
1772699668764445200,7.423445068359375,0.0004116229247301817,0.0009755557402968407,-0.0006278532091528177
1772699668774402300,7.43340234375,0.0018912751693278551,0.0007683620788156986,0.00189309474080801
1772699668784359200,7.443359130859375,-0.00026945886202156544,-0.0013400367461144924,0.001426374539732933
1772699668794316300,7.45331640625,0.0003569165710359812,0.0003271019086241722,-0.0009350504260510206
1772699668804273400,7.4632734375,-0.0012643833179026842,0.00012549059465527534,-0.0005369232967495918
1772699668814230300,7.473230224609375,0.0018557761795818806,-0.0013032956048846245,-0.0011166934855282307
1772699668824187400,7.4831875,0.0013804035261273384,0.0023726914077997208,-0.001659515779465437
1772699668834144300,7.493144287109375,-0.001119505614042282,0.0011745351366698742,-0.00005789054557681084
1772699668844101000,7.50310107421875,-0.0016084671951830387,0.0009790998883545399,0.0009840740822255611
1772699668854058200,7.513058349609375,-0.0013852942502126098,-0.0011040247045457363,-0.000039911363273859024
1772699668864015400,7.523015380859375,-0.00000310712493956089,-0.00028156256303191185,0.001730518415570259
1772699668873972200,7.53297216796875,0.0016776137053966522,-0.0005462807603180408,0.0015787179581820965
1772699668883929300,7.542929443359375,-0.0020761042833328247,0.0010298257693648338,-0.0024578897282481194
1772699668893886200,7.55288623046875,-0.0021935496479272842,0.0008399421349167824,0.0009275204502046108
1772699668903843000,7.562843017578125,0.0012728874571621418,-0.002544222865253687,0.000036250799894332886
1772699668913800200,7.57280029296875,-0.0008485867874696851,0.0012851362116634846,-0.00015629548579454422
1772699668923757300,7.58275732421875,0.0011989250779151917,0.0035966699942946434,-0.0008154704701155424
1772699668933714400,7.59271435546875,-0.000368078937754035,-0.0008113943040370941,-0.0019148234277963638
1772699668943671300,7.60267138671875,0.0030296531040221453,-0.000289195217192173,-0.001246937084943056
1772699668953628400,7.61262841796875,-0.00045482651330530643,-0.0006274166516959667,-0.0004650331102311611
1772699668963585300,7.622585205078125,0.0016676441300660372,0.00035439757630228996,0.0024684155359864235
1772699668973542100,7.632542236328125,0.0005051745101809502,-0.000989966094493866,0.0022066268138587475
1772699668983499300,7.642499267578125,0.0005483929999172688,-0.00010523106902837753,0.0019820700399577618
1772699668993456400,7.652456298828125,0.0011835568584501743,-0.0023782390635460615,-0.002798037603497505
1772699669003413200,7.662413330078125,-0.0009284006664529443,0.0009738565422594547,0.00024611176922917366
1772699669013370400,7.672370361328125,0.0019297036342322826,-0.0026640212163329124,0.0034546880051493645
1772699669023327200,7.6823271484375,0.0016859914176166058,-0.0008449293673038483,0.0020181769505143166
1772699669033284000,7.6922841796875,-0.0014070038450881839,-0.0003381296992301941,-0.0013006546068936586
1772699669043241200,7.7022412109375,-0.0009284913539886475,-0.000292391050606966,-0.001340718474239111
1772699669053198300,7.7121982421875,-0.0005766877438873053,0.001275678165256977,-0.000659481855109334
1772699669063155200,7.7221552734375,0.0009120870381593704,0.0016782954335212708,-0.0013698060065507889
1772699669073112300,7.7321123046875,-0.0017867605201900005,0.00005696294829249382,0.0006651151925325394
1772699669083068400,7.742068359375,0.0004913504235446453,-0.002069117035716772,0.0028783874586224556
1772699669093026000,7.752026123046875,0.0019784593023359776,0.0011128275655210018,0.0023886319249868393
1772699669102982400,7.761982421875,-0.0010018590837717056,-0.0004261885769665241,0.0005831499584019184
1772699669112939300,7.771939208984375,-0.00019039399921894073,0.0010891500860452652,0.002244696021080017
1772699669122896100,7.781896240234375,0.0013914350420236588,-0.0019406173378229141,-0.00019831862300634384
1772699669132853200,7.791853271484375,-0.002141247969120741,0.0013393317349255085,-0.0016500076744705439
1772699669142810400,7.801810302734375,0.001089012948796153,-0.0025433204136788845,0.000859296415001154
1772699669152767200,7.811767333984375,-0.0016857346054166555,-0.0007866993546485901,-0.002343687228858471
1772699669162724400,7.821724365234375,0.0016918200999498367,-0.001437569037079811,0.0009878245182335377
1772699669172681200,7.83168115234375,-0.0016131628071889281,0.0009329104796051979,0.0018698633648455143
1772699669182638000,7.84163818359375,0.0007446729578077793,-0.0020311102271080017,-0.0017949489410966635
1772699669192595200,7.85159521484375,-0.0015725434059277177,-0.001218313816934824,-0.0016982762608677149
1772699669202552300,7.86155224609375,-0.0003026304766535759,-0.0005472567863762379,-0.00021674064919352531
1772699669212509200,7.87150927734375,-0.00040196627378463745,-0.003558492986485362,0.0010264227166771889
1772699669222466300,7.88146630859375,0.0008612340316176414,-0.0025013727135956287,-0.0016906908713281155
1772699669232423400,7.89142333984375,0.0032743243500590324,-0.0004515377804636955,0.0022308137267827988
1772699669242380300,7.90138037109375,0.001764470711350441,-0.0013242252171039581,-0.0008966540917754173
1772699669252337200,7.911337158203125,-0.0007618037052452564,0.001887547317892313,-0.0010615037754178047
1772699669262294300,7.921294189453125,-0.000774819403886795,0.0010845130309462547,-0.0023265897762030363
1772699669272251400,7.93125146484375,0.0010984481777995825,-0.00046491390094161034,-0.0022448308300226927
1772699669282208300,7.941208251953125,0.00251710950396955,0.0010003093630075455,0.0022239629179239273
1772699669292165400,7.951165283203125,-0.0008824154501780868,0.00193028524518013,-0.0015577259473502636
1772699669302122200,7.961122314453125,0.0003478920552879572,-0.0013666721060872078,-0.0004206453450024128
1772699669312079000,7.9710791015625,-0.00018580537289381027,-0.0004494795575737953,-0.0017647426575422287
1772699669322036200,7.9810361328125,0.0013355545233935118,-0.002965816529467702,0.00005042273551225662
1772699669331993300,7.990993408203125,0.001222902676090598,0.0003950926475226879,0.0013425881043076515
1772699669341950200,8.0009501953125,-0.0010965258115902543,0.000917043536901474,0.0016576745547354221
1772699669351907300,8.0109072265625,-0.00048453151248395443,0.0013239746913313866,-0.0023671609815210104
1772699669361864400,8.020864501953126,0.001031768973916769,-0.000883086584508419,0.0004743826575577259
1772699669371821000,8.030821044921876,0.000912459334358573,-0.00195554131641984,0.00006425613537430763
1772699669381778200,8.040778076171875,0.0008849331643432379,-0.0004334491677582264,0.0026119891554117203
1772699669391735300,8.0507353515625,-0.0004173524212092161,-0.0006417082622647285,-0.00025357212871313095
1772699669401692400,8.0606923828125,0.0005082963034510612,-0.001325506716966629,0.0007351171225309372
1772699669411649300,8.070649169921875,-0.0020083908457309008,-0.0012717111967504025,0.0034440848976373672
1772699669421606400,8.0806064453125,-0.0013531637378036976,0.0012009171769022942,-0.0005773564334958792
1772699669431563300,8.090563232421875,-0.0016141533851623535,-0.0005367952398955822,-0.000018359161913394928
1772699669441520000,8.10052001953125,-0.001606461824849248,-0.0013866550289094448,0.0007196958176791668
1772699669451477200,8.110477294921875,-0.0024986208882182837,0.00020271958783268929,-0.0023037907667458057
1772699669461434400,8.120434326171875,0.0040684109553694725,-0.0015400052070617676,0.000050380825996398926
1772699669471391200,8.13039111328125,-0.0008294085273519158,-0.000874747522175312,-0.00020048907026648521
1772699669481348400,8.140348388671875,0.0009141608607023954,-0.0004941318184137344,-0.0016659745015203953
1772699669491305500,8.150305419921875,0.00141563406214118,-0.0020081386901438236,-0.0010055105667561293
1772699669501262000,8.160261962890624,0.0017839798238128424,0.0005907299928367138,-0.0003980337642133236
1772699669511219200,8.17021923828125,-0.0009167318930849433,-0.0011118287220597267,-0.001628147903829813
1772699669521176300,8.18017626953125,-0.0006348231108859181,0.002425676677376032,-0.0006491919048130512
1772699669531133200,8.19013330078125,-0.0008555991807952523,-0.0020260638557374477,-0.00014478899538516998
1772699669541090300,8.20009033203125,-0.0014987976755946875,0.0009421510621905327,0.000107527244836092
1772699669551047400,8.21004736328125,0.0031036774162203074,0.0022183372639119625,-0.0017159392591565847
1772699669561004300,8.22000439453125,0.00008794618770480156,0.0002482077106833458,-0.0020745813380926847
1772699669570961200,8.229961181640626,0.00009966408833861351,-0.0019837873987853527,-0.000676688039675355
1772699669580918300,8.239918212890625,0.001133160898461938,-0.0008417353965342045,-0.0012695200275629759
1772699669590875400,8.24987548828125,-0.002362238010391593,0.0037548807449638844,-0.004326828755438328
1772699669600832300,8.259832275390625,0.0004080419894307852,0.0002896413207054138,0.000300772488117218
1772699669610789400,8.269789306640625,-0.0004199347458779812,0.0008875210769474506,0.0015713665634393692
1772699669620746500,8.27974658203125,0.0006658073980361223,-0.00039515597745776176,0.0009150360710918903
1772699669630703000,8.289703125,0.0020911311730742455,0.0016030138358473778,-0.00011454196646809578
1772699669640660200,8.29966015625,-0.0009557218290865421,0.0009885625913739204,-0.0011813114397227764
1772699669650617300,8.309617431640625,0.0013457820750772953,0.00013155722990632057,-0.0028266124427318573
1772699669660574200,8.31957421875,0.0001598983071744442,-0.0022842157632112503,0.0006080581806600094
1772699669670531300,8.32953125,-0.000989788444712758,0.00040557701140642166,-0.0017099573742598295
1772699669680488400,8.339488525390625,-0.00021104095503687859,-0.0004666205495595932,-0.0007153342012315989
1772699669690445300,8.3494453125,0.0004195955116301775,0.0009019779972732067,0.004570507910102606
1772699669700402200,8.359402099609374,-0.002716937568038702,-0.00028104009106755257,-0.00001652166247367859
1772699669710359300,8.369359375,-0.001997351413592696,-0.0010147406719624996,0.0008069276809692383
1772699669720316200,8.379316162109374,-0.0001111314631998539,-0.0013500363565981388,-0.0022004584316164255
1772699669730273500,8.3892734375,0.0003980649635195732,0.0006633130833506584,-0.00005155382677912712
1772699669740230700,8.399230712890626,0.00028613535687327385,0.00045315269380807877,-0.00008078711107373238
1772699669750187500,8.4091875,0.0014866881538182497,-0.0001513846218585968,0.002281437162309885
1772699669760144400,8.419144287109376,0.0010280113201588392,-0.002230867277830839,-0.0016137391794472933
1772699669770101500,8.4291015625,-0.0008630992379039526,-0.0003738449886441231,0.0005455515347421169
1772699669780058600,8.43905859375,-0.0015603903448209167,0.0016500232741236687,0.0002518468536436558
1772699669790015500,8.449015380859375,0.001282800454646349,-0.00018223142251372337,0.000035597942769527435
1772699669799972600,8.45897265625,-0.00006620329804718494,0.0002244650386273861,-0.00104813021607697
1772699669809929700,8.4689296875,0.0016544649843126535,0.00007293140515685081,-0.0009783552959561348
1772699669819886300,8.47888623046875,0.0009046243503689766,-0.0005604131147265434,-0.0034116259776055813
1772699669829843500,8.488843505859375,0.00014322646893560886,-0.0004962310194969177,-0.00017295591533184052
1772699669839800600,8.498800537109375,0.00005758041515946388,0.0002824212424457073,-0.00217807455919683
1772699669849757400,8.50875732421875,-0.0006220581708475947,-0.0008102739229798317,-0.0016888517420738935
1772699669859714600,8.518714599609375,-0.0007297506090253592,-0.0008150464855134487,0.001916294451802969
1772699669869671700,8.528671630859375,0.0002532221842557192,-0.0012906873598694801,-0.0008472676854580641
1772699669879628500,8.538628662109375,0.0005502738058567047,-0.0019156322814524174,-0.00023490749299526215
1772699669889585400,8.54858544921875,-0.001084907096810639,-0.0017909961752593517,-0.0007512941956520081
1772699669899542500,8.55854248046875,-0.0007600572425872087,0.00035364506766200066,0.00028363242745399475
1772699669909499400,8.56849951171875,0.0013635472860187292,0.004368626978248358,0.000029833056032657623
1772699669919456500,8.57845654296875,0.0004298246931284666,-0.0007475991733372211,-0.002789137652143836
1772699669929413600,8.58841357421875,0.0004806912038475275,-0.002473594155162573,-0.0006490214727818966
1772699669939370800,8.598370849609376,-0.00008675036951899529,-0.0020048990845680237,-0.001420609187334776
1772699669949327400,8.608327392578126,0.0014653399121016264,0.0006611915305256844,-0.00019821850582957268
1772699669959284500,8.618284423828126,0.00027775252237915993,-0.0006805420853197575,-0.0010631158947944641
1772699669969241600,8.62824169921875,-0.0016037707682698965,-0.0002850624732673168,0.0024852799251675606
1772699669979198500,8.638198486328125,0.0030021932907402515,-0.0014501428231596947,-0.0032023852691054344
1772699669989155600,8.648155517578125,0.000568596413359046,0.00032698456197977066,-0.0003602597862482071
1772699669999112700,8.65811279296875,0.00030086119659245014,-0.0019371258094906807,0.00026270700618624687
1772699670009069600,8.668069580078125,-0.00007331278175115585,-0.0005232538096606731,-0.001473407493904233
1772699670019026400,8.6780263671875,0.0014970321208238602,-0.0016858256421983242,0.001698213629424572
1772699670028983600,8.687983642578125,-0.001454549259506166,0.001964302733540535,0.0013607912696897984
1772699670038940400,8.6979404296875,0.0004521929658949375,-0.00023419689387083054,0.001233832910656929
1772699670048897500,8.7078974609375,-0.0007624747231602669,-0.0002677524462342262,-0.001803235849365592
1772699670058854700,8.717854736328125,-0.0022040230687707663,0.00041869282722473145,-0.002743998309597373
1772699670068811500,8.7278115234375,-0.00044660293497145176,-0.000769343227148056,0.0004991991445422173
1772699670078768400,8.737768310546874,-0.0013980515068396926,0.0006185625679790974,-0.00022801663726568222
1772699670088725500,8.7477255859375,0.0016086571849882603,-0.001377210021018982,0.0006076833233237267
1772699670098682600,8.7576826171875,0.002750665880739689,-0.00013297982513904572,0.00043237488716840744
1772699670108639500,8.767639404296874,0.001905911136418581,-0.0008397828787565231,0.0034127184189856052
1772699670118596600,8.7775966796875,0.0008171133231371641,-0.0004536956548690796,0.0032214540988206863
1772699670128553700,8.7875537109375,-0.0005874378839507699,0.0005588382482528687,0.003297886811196804
1772699670138510600,8.797510498046876,-0.0016952361911535263,0.0015463721938431263,-0.0008091020863503218
1772699670148467500,8.807467529296876,0.0026020403020083904,0.0006520827300846577,-0.0018599855247884989
1772699670158424600,8.817424560546876,0.000377327436581254,0.0007547922432422638,0.0008365814574062824
1772699670168381400,8.82738134765625,-0.0006192272994667292,-0.0012431112118065357,-0.0003282851539552212
1772699670178338600,8.837338623046875,0.0006281966343522072,-0.00012612994760274887,-0.0006766733713448048
1772699670188295700,8.847295654296875,-0.0001755452249199152,0.000023273751139640808,0.002799550537019968
1772699670198252500,8.85725244140625,-0.00007694447413086891,0.002173906657844782,-0.0037705914583057165
1772699670208209400,8.86720947265625,0.0005659426096826792,-0.00020616035908460617,-0.000037904828786849976
1772699670218166500,8.87716650390625,0.0024183860514312983,0.0007231449708342552,0.0019226963631808758
1772699670228123400,8.887123291015625,0.0006828040350228548,0.000471475999802351,0.0013567744754254818
1772699670238080500,8.89708056640625,0.0014877885114401579,0.001028343103826046,-0.0004231361672282219
1772699670248037600,8.90703759765625,-0.0003740275278687477,0.00032739946618676186,0.0018575950525701046
1772699670257994500,8.916994384765625,-0.001772024785168469,0.000018943101167678833,0.0002513076178729534
1772699670267951600,8.92695166015625,-0.0005642811302095652,-0.00007932772859930992,-0.0008275387808680534
1772699670277908500,8.936908447265624,0.0011332891881465912,-0.00017592962831258774,0.0003844466991722584
1772699670287865600,8.946865478515624,0.002644899534061551,-0.0019389423541724682,-0.00045471545308828354
1772699670297822500,8.956822509765624,-0.0009591641137376428,0.00046741729602217674,0.00178821524605155
1772699670307779600,8.966779541015624,0.0009953298140317202,0.0005124243907630444,0.0010459921322762966
1772699670317736700,8.97673681640625,-0.0012898434652015567,0.0021911952644586563,-0.0001403489150106907
1772699670327693600,8.986693603515626,0.00015625311061739922,-0.00007116002961993217,-0.001397094689309597
1772699670337650400,8.996650390625,-0.000025487039238214493,-0.0018877745606005192,-0.0007408377714455128
1772699670347607600,9.006607666015626,0.0006405694875866175,-0.0003197053447365761,-0.0006566820666193962
1772699670357564400,9.016564453125,-0.0023102310951799154,0.0026072566397488117,-0.000037774909287691116
1772699670367521500,9.026521484375,-0.0003323012497276068,-0.00016695773229002953,-0.0024098523426800966
1772699670377478700,9.036478759765625,0.0008800628129392862,0.00015518581494688988,-0.000051073264330625534
1772699670387435500,9.046435546875,0.002318702405318618,-0.0024909311905503273,0.0016440288163721561
1772699670397391600,9.0563916015625,-0.000010478077456355095,-0.0010835053399205208,0.0011524409055709839
1772699670407349500,9.066349609375,-0.0015268819406628609,-0.0006534047424793243,0.00364169804379344
1772699670417306400,9.076306396484375,0.0009379135444760323,0.001207064837217331,-0.0006890457589179277
1772699670427262500,9.086262451171875,-0.0016493473667651415,-0.002374886767938733,0.0003136345185339451
1772699670437219600,9.096219482421875,-0.00044591352343559265,-0.0011777081526815891,0.0009229215793311596
1772699670447176400,9.106176513671874,-0.0023375567980110645,0.00034721801057457924,0.0030925986357033253
1772699670457133600,9.116133544921874,0.0015785600990056992,0.0014849253930151463,0.0014509116299450397
1772699670467090700,9.126090576171874,-0.0010150923626497388,-0.000309512484818697,-0.0022804434411227703
1772699670477047600,9.136047607421874,0.001255034003406763,-0.0010732486844062805,-0.0027183126658201218
1772699670487004400,9.14600439453125,-0.00012102141045033932,-0.002341179409995675,0.002384570427238941
1772699670496961500,9.15596142578125,0.0015775514766573906,0.0011996766552329063,0.0004373597912490368
1772699670506918400,9.16591845703125,0.0026966119185090065,-0.0005252528935670853,0.004434232134371996
1772699670516875500,9.17587548828125,-0.0004249061457812786,0.0014973529614508152,0.0011818544007837772
1772699670526832600,9.18583251953125,-0.0032627705950289965,0.0008267690427601337,0.00014348793774843216
1772699670536789500,9.19578955078125,-0.00044018891640007496,0.0011987872421741486,-0.0006043994799256325
1772699670546746400,9.205746337890625,0.00010602548718452454,0.0010131653398275375,-0.0006573963910341263
1772699670556703500,9.215703369140625,0.000561014749109745,-0.0004072776064276695,0.0008883499540388584
1772699670566660400,9.225660400390625,-0.0004496548790484667,0.00044067297130823135,0.000022023450583219528
1772699670576617500,9.235617431640625,-0.0004731430672109127,0.0014157043769955635,-0.0013476668391376734
1772699670586574600,9.24557470703125,0.0010097050108015537,0.0014340803027153015,0.000259284395724535
1772699670596531700,9.25553173828125,0.0039589484222233295,-0.0006521064788103104,0.0017465553246438503
1772699670606488600,9.265488525390625,-0.0009782857960090041,0.026399750262498856,0.015095384791493416
1772699670616445400,9.275445556640625,0.0000818474218249321,0.011316677555441856,0.004883128218352795
1772699670626402600,9.285402587890625,0.0012602962087839842,0.0031295879743993282,0.002867647912353277
1772699670636359400,9.295359375,0.0007548348512500525,-0.0005919300019741058,-0.0025795758701860905
1772699670646316500,9.305316650390624,0.0006115566939115524,-0.008778752759099007,-0.007928002625703812
1772699670656273700,9.315273681640624,0.000268017640337348,-0.012057105079293251,-0.006061658728867769
1772699670666230500,9.32523046875,-0.0017149720806628466,-0.009838957339525223,-0.0030701300129294395
1772699670676187400,9.3351875,0.0019155952613800764,-0.0010611722245812416,-0.002522950293496251
1772699670686144500,9.34514453125,0.0008519287221133709,-0.002942961873486638,0.00036657974123954773
