time,seconds_elapsed,z,y,x
1772614971295427300,0.06142724609375,0.17226166963055728,0.08769757267534732,0.019558362723817117
1772614971305495600,0.07149560546875,0.18063129243850706,0.11184826359152793,0.039885732492175884
1772614971315563500,0.0815634765625,0.1631150711007416,0.12942834394574165,0.050245807598135434
1772614971325630500,0.09163037109375,0.12759674460440873,0.1399269416064024,0.021699635369097813
1772614971335698400,0.101698486328125,0.08764788831472396,0.10676292315125464,-0.013465201514447108
1772614971345765400,0.111765380859375,0.03950461965352296,0.06771919900774956,-0.062387322760769165
1772614971355833300,0.121833251953125,-0.00932823870703578,0.019823475366830826,-0.09806110924687236
1772614971365900300,0.131900390625,-0.050126551432907576,-0.03155716778039932,-0.14871349291848018
1772614971375968500,0.141968505859375,-0.08032032190561295,-0.06473346119523048,-0.1930578624870628
1772614971386036500,0.152036376953125,-0.08055398453101516,-0.07122340773642062,-0.1541611090661958
1772614971396103400,0.162103515625,-0.05744856488406658,-0.045401568737626075,-0.1055366692919284
1772614971406171400,0.17217138671875,-0.008607961608469486,0.005856909334659576,-0.038667410777555776
1772614971416238300,0.18223828125,0.054931905888020986,0.06262158360779285,0.03255980548430234
1772614971426306600,0.192306640625,0.11487637924104928,0.10882044020295142,0.07112804847001097
1772614971436374500,0.20237451171875,0.12348580215424299,0.12365619028508662,0.10393374587362632
1772614971446441500,0.21244140625,0.11592618055492639,0.08756079455316067,0.0647751631787978
1772614971456509400,0.222509521484375,0.092726214492321,0.04487549903690815,0.014202635243791154
1772614971466576400,0.232576416015625,0.03614683365821838,-0.0023678981751203538,-0.055117843214445746
1772614971476644400,0.242644287109375,-0.04609218135029077,-0.0340501536399126,-0.18243474339758975
1772614971486712600,0.252712646484375,-0.08422843526005744,-0.031364860078692436,-0.19278143843216822
1772614971496779500,0.262779541015625,-0.10202946488857269,-0.024654548785090446,-0.11775035464162938
1772614971506847500,0.272847412109375,-0.08308160331249237,-0.011583470287919043,-0.09362387571809813
1772614971516914400,0.28291455078125,-0.03243219704926014,0.023036592194437978,-0.07496947609668131
1772614971526982400,0.292982421875,0.019180647418648004,0.03119944038391113,-0.04645132438573055
1772614971537049300,0.30304931640625,0.042528205258399246,0.05673603270053863,-0.00508740453319624
1772614971547117600,0.31311767578125,0.05209142176508903,0.09483283138275146,0.02697625603119377
1772614971557185800,0.323185791015625,0.027113047853112218,0.10832651920616626,0.01814702092143707
1772614971567253000,0.3332529296875,-0.025842297264933586,0.09514379702806472,0.014025296782352962
1772614971577320700,0.34332080078125,-0.0463853190779686,0.07261223174631595,-0.022198734864499418
1772614971587388000,0.353387939453125,-0.0467640892624855,0.043268648362159726,-0.06811102503666189
1772614971597456000,0.363455810546875,-0.03200827254876494,-0.021593407648801802,-0.1680957090575248
1772614971607523000,0.373523193359375,-0.012337941917032002,-0.10557166754007338,-0.2712762619436718
1772614971617590800,0.3835908203125,0.011768325335532426,-0.11475625999271868,-0.25559925699811425
1772614971627658800,0.39365869140625,0.027660306472331284,-0.08155833926796913,-0.1593003533844836
1772614971637726000,0.403725830078125,0.0258504805713892,-0.011459551647305487,-0.07086572600570507
1772614971647793700,0.413793701171875,0.017840630986541508,0.06943067910075187,-0.01658528346347157
1772614971657861000,0.423861083984375,0.034419717604666944,0.15083178198039532,0.038145012604957444
1772614971667928800,0.4339287109375,0.07348726101517677,0.1937707599967718,0.11505215593306348
1772614971677996800,0.443996826171875,0.08920505462884902,0.19561141942739485,0.1514485713050235
1772614971688063700,0.454063720703125,0.10230009852349757,0.16183248394429683,0.12176991988075897
1772614971698131700,0.464131591796875,0.09613865328431129,0.09059855481386184,-0.010764847381412982
1772614971708199000,0.474198974609375,0.07764101969376205,-0.004410802179574966,-0.12209887784048915
1772614971718267000,0.484266845703125,0.04862228434979916,-0.0859773247539997,-0.19255732908640055
1772614971728334800,0.4943349609375,0.008306640574336051,-0.11115735871791839,-0.1909568350872025
1772614971738401800,0.50440185546875,0.0054638183638453484,-0.12016191842854022,-0.14705790773117913
1772614971748469800,0.5144697265625,0.012307985170185566,-0.12373276265263557,-0.13996203118609263
1772614971758536700,0.52453662109375,0.00779518392086029,-0.0982733272254467,-0.11607198223378509
1772614971768605000,0.53460498046875,-0.015666063426434992,-0.04870119480490684,-0.03423445613167714
1772614971778671900,0.544671875,-0.0495657026797533,0.005384615647792816,0.05074896221414674
1772614971788739800,0.55473974609375,-0.06791077605709434,0.05265606991052627,0.017040502717951312
1772614971798807800,0.564807861328125,-0.07976195737048983,0.0514174680262804,-0.006116469019721262
1772614971808874800,0.574874755859375,-0.06720745009332894,0.05835691190063953,0.012708729724492877
1772614971818942700,0.584942626953125,-0.02719020474255085,0.0472784685254097,-0.018483481767610645
1772614971829009700,0.595009765625,0.020704934376478194,0.03599135083556175,-0.03333916495949961
1772614971839078000,0.605077880859375,0.05635433990657329,0.033387890338897705,-0.005002018671529367
1772614971849145900,0.615145751953125,0.07429448574483394,0.01906242786645889,-0.03562625298337079
1772614971859212800,0.625212890625,0.07733516861498356,0.020439561438560485,-0.0673958944706712
1772614971869280800,0.63528076171875,0.05629851806610822,0.014414894321560859,-0.07278479356793686
1772614971879347700,0.64534765625,0.02937222495675087,0.002985153290629387,-0.10259665205096825
1772614971889416000,0.655416015625,0.005396306085586547,-0.009710077631473541,-0.12932728559090756
1772614971899483000,0.66548291015625,-0.01641483596712351,-0.007575403690338134,-0.07797052564276381
1772614971909550800,0.67555078125,-0.03921557357907295,0.007071545821428299,-0.010575626685936004
1772614971919618800,0.685618896484375,-0.0604319646090269,0.03676701138317585,0.008213902523275465
1772614971929685800,0.695685791015625,-0.07136895368695259,0.044510172855854034,0.02621588895083405
1772614971939753700,0.705753662109375,-0.06424933094009756,0.04870937811136245,0.04897469625035301
1772614971949821000,0.715821044921875,-0.034451574047654865,0.04570493559837341,0.030764017241867257
1772614971959889000,0.725888916015625,-0.008297288224101066,0.004888941085338592,-0.06987815800677054
1772614971969956900,0.735956787109375,0.03088496760725975,-0.03720774088799953,-0.15597161082057281
1772614971980023800,0.74602392578125,0.046018823853135105,-0.03801321205198765,-0.12124743037661537
1772614971990091800,0.756091796875,0.06639379562288522,-0.025198154142498968,-0.037458665175456554
1772614972000158700,0.76615869140625,0.07268237437307834,-0.014575637841224669,-0.010519101592572406
1772614972010227000,0.77622705078125,0.06675605306401848,0.004341828596591949,-0.004460641803825274
1772614972020294000,0.7862939453125,0.05213701447248459,0.03696224169433117,0.02094031403493136
1772614972030361900,0.79636181640625,0.03769347857832908,0.03722410750091076,0.03331931861471384
1772614972040429800,0.806429931640625,-0.012379589101672172,0.01810556553304195,-0.041197203249810264
1772614972050496800,0.816496826171875,-0.02682838569283485,0.024336568877100943,-0.08615175887229852
1772614972060565000,0.82656494140625,-0.04927987147569656,0.0418798243522644,-0.026929489713441578
1772614972070632000,0.8366318359375,-0.05113748204112053,0.06886252382397651,0.043602182032307604
1772614972080700000,0.846699951171875,-0.050477264566719526,0.06805120744109153,0.02535603898479603
1772614972090768000,0.856767822265625,-0.03974558880254626,0.045263621571660036,-0.020202008089330047
1772614972100834800,0.866834716796875,-0.007033990290015935,0.028870120653510092,-0.025417916106712072
1772614972110902800,0.87690283203125,0.01905336777716875,0.020151976668834684,-0.02789368596994318
1772614972120969700,0.8869697265625,0.04797521861791611,0.027560791620612143,-0.01565838244347833
1772614972131038000,0.897037841796875,0.08319324699342251,0.0036684593796730038,-0.0045867067357525226
1772614972141106000,0.90710595703125,0.10185527736544608,-0.03979191216230392,-0.04995554224755615
1772614972151172900,0.9171728515625,0.10681114620715379,-0.028628128591179847,-0.046670191300800065
1772614972161240800,0.92724072265625,0.08410451661944389,0.0002034136176109314,-0.017941387947276233
1772614972171307800,0.937307861328125,0.04345993315055966,0.00794248343706131,-0.010510854354035109
1772614972181376000,0.9473759765625,-0.020389730947464702,0.018261632877588273,-0.06589951843307353
1772614972191443000,0.95744287109375,-0.0623646862372756,0.028970658418536185,-0.09152549693305045
1772614972201511000,0.967510986328125,-0.066494917909801,0.011610358294844627,-0.11624928416260517
1772614972211579000,0.977578857421875,-0.08437368894964456,-0.02780979794561863,-0.1367821955735795
1772614972221645800,0.987645751953125,-0.07829553807973862,-0.01854629503786564,-0.12674824714944696
1772614972231713800,0.9977138671875,-0.044586745223402974,-0.02387012040913105,-0.09705188653855584
1772614972241781000,1.007781005859375,-0.004422931008785963,-0.01670972726047039,-0.02341352661489509
1772614972251849000,1.017848876953125,0.05019070271030068,0.011951134556531906,0.060912724730139596
1772614972261917000,1.0279169921875,0.0751123779989779,0.03892623524367809,0.08732272061412222
1772614972271983900,1.03798388671875,0.09017594548761844,0.05016542213857174,0.08757342570587061
1772614972282051800,1.0480517578125,0.08279708728268742,0.052063364714384074,0.07663156865658238
1772614972292118800,1.058118896484375,0.07656666846051811,0.03737257606089115,0.01716068589836359
1772614972302187000,1.06818701171875,0.05428703211322426,0.021270751565694808,-0.024661626979848368
1772614972312255000,1.0782548828125,0.022480711877346037,0.01323708271384239,-0.019040115569951013
1772614972322322000,1.088322021484375,-0.014970190116763114,0.008781856870651245,-0.038619553047837686
1772614972332390000,1.098389892578125,-0.053676498999446626,0.007551438292860984,-0.07517977154622785
1772614972342456800,1.108456787109375,-0.0906008929014206,0.0023807576566934586,-0.07345840938002803
1772614972352525000,1.118525146484375,-0.09626491001248359,0.012758943808078765,-0.091102869340498
1772614972362592000,1.128592041015625,-0.06021393794417381,0.030015783557295797,-0.08506043823794461
1772614972372660000,1.138659912109375,-0.01865940002351999,0.032951252487301824,-0.022169938028277828
1772614972382728000,1.14872802734375,0.02263093400299549,0.03891396028399467,0.017749984427867457
1772614972392795000,1.158794921875,0.05331102668792009,0.021803251007199285,-0.0006666015494149178
1772614972402862800,1.16886279296875,0.0698062344148755,-0.00948269861638546,-0.029382508888747542
1772614972412929800,1.1789296875,0.07351005736887455,-0.01227203707396984,-0.05719480931870639
1772614972422998000,1.188998046875,0.059456543705612416,-0.019890695384144782,-0.01569419354237616
1772614972433066000,1.19906591796875,0.03767725809589028,-0.020973229923844337,-0.018788460630131884
1772614972443133000,1.2091328125,0.000028787703067064285,-0.04749824875593185,-0.10650816293889656
1772614972453201000,1.219200927734375,-0.026149609648436305,-0.04301379681825637,-0.14350985072762704
1772614972463267800,1.229267822265625,-0.03372852047011256,-0.008100304347276687,-0.0635940819017589
1772614972473336000,1.239336181640625,-0.03865910874009132,0.02072597716450691,0.004068628545245156
1772614972483403000,1.249403076171875,-0.021077274820208547,0.04463409149646759,0.015739183461572975
1772614972493471000,1.259470947265625,0.0032528643161058423,0.03808803085386753,0.0178009108975064
1772614972503539000,1.2695390625,0.03368599650263786,0.04775368482172489,0.020459599579591304
1772614972513606000,1.27960595703125,0.02597688343003392,0.055775663235783576,0.013432130361907183
1772614972523673900,1.289673828125,0.023857260927557945,0.061356678238511084,-0.0103104638105724
1772614972533741000,1.299740966796875,0.035892274375259874,0.06295300751924514,-0.010787762466119602
1772614972543809000,1.30980908203125,0.04760755434930324,0.018694179075956344,-0.05246284889336675
1772614972553877000,1.319876953125,0.07187719547003507,-0.01610533162653446,-0.18288977542240173
1772614972563943400,1.329943359375,0.06946808850169181,-0.053626376247406,-0.19963884831257164
1772614972574011400,1.340011474609375,0.05501768447533249,-0.043840895292162896,-0.11244076785827055
1772614972584078300,1.350078369140625,0.041544601048529146,-0.0005921206742525101,-0.0687588259874843
1772614972594146300,1.360146240234375,0.017259762358665467,0.002348608952760696,-0.02342333562285639
1772614972604213200,1.370213134765625,-0.015284955154359339,0.00720481681227684,-0.051082792711816725
1772614972614281500,1.380281494140625,-0.029840426990389822,0.018859598770737646,-0.0586129142220132
1772614972624349400,1.390349365234375,-0.0368780705422163,0.0406423915117979,-0.027867172422353176
1772614972634416400,1.40041650390625,-0.030334347987174985,0.04402443516552448,-0.026644928017864004
1772614972644484400,1.410484375,-0.017121230670809746,0.039863223832845684,-0.03386252211332321
1772614972654551300,1.42055126953125,0.02007891143262386,0.03531973518431186,-0.039024060461809854
1772614972664619300,1.430619384765625,0.027917057712376115,0.046157940062880515,-0.052804593269433826
1772614972674687500,1.4406875,0.04416603559330105,0.052014264875650404,-0.025617174139013512
1772614972684754400,1.45075439453125,0.041679333344101906,0.05309972202479839,-0.015042835227865725
1772614972694822400,1.460822509765625,0.03715878717973828,0.025289339557290076,-0.03696762112234719
1772614972704889300,1.470889404296875,0.015156214208155869,-0.0005056114345788955,-0.062036422397289424
1772614972714957300,1.480957275390625,0.0007435118436813354,-0.008183306455612183,-0.05023523597177118
1772614972725024300,1.491024169921875,-0.024804770910739897,-0.016180150428414343,-0.03754501915150322
1772614972735092500,1.501092529296875,-0.052671267479658126,-0.03336684755086899,-0.056365180960996075
1772614972745160400,1.511160400390625,-0.05535217712670564,-0.042940147060155864,-0.06879014357435517
1772614972755227400,1.521227294921875,-0.053838996084779496,-0.021433833172917364,-0.044861707973573355
1772614972765295400,1.53129541015625,-0.038732173976302145,0.006804419317841529,-0.03647326173414476
1772614972775362300,1.5413623046875,-0.009577391162514687,0.00395662867128849,-0.05098788096997887
1772614972785430300,1.55143017578125,0.01586290117278695,-0.001626139897108078,-0.03579448568974621
1772614972795498500,1.56149853515625,0.042138183027505875,0.004338321465253829,-0.02147764491518028
1772614972805565400,1.5715654296875,0.019446751008927822,0.023742694637179373,-0.048536487496178594
1772614972815633400,1.58163330078125,0.023667291313409805,0.0016243863314390182,-0.11174104035738855
1772614972825700400,1.591700439453125,0.029596681362390517,-0.005586275699734688,-0.1141606778529007
1772614972835768300,1.601768310546875,0.016046294915676117,0.0016506898164749145,-0.0680663776107598
1772614972845836300,1.611836181640625,0.016330372554063798,0.03008008096516132,-0.05763954827836714
1772614972855903500,1.621903564453125,0.010511749403178691,0.059733460950851434,-0.03263405803060159
1772614972865971200,1.63197119140625,0.028957506676018235,0.09551906008124351,0.07124806725364179
1772614972876038400,1.642038330078125,0.04637786642387509,0.09027765229642391,0.1358654003890697
1772614972886106400,1.6521064453125,0.04659180143550038,0.024672084441781043,0.0493776875606738
1772614972896173300,1.66217333984375,0.005367956773936748,-0.029407296270132062,-0.05903895761435851
1772614972906241500,1.672241455078125,-0.049988019745051855,-0.05459317545294761,-0.10506062187855131
1772614972916309200,1.682309326171875,-0.10538111340403557,-0.03542085747122765,-0.12233346291449852
1772614972926376400,1.69237646484375,-0.11247764753624796,0.020519640937447545,-0.1242227198603563
1772614972936444200,1.702444091796875,-0.08861454138979315,0.04517185163497925,-0.10505327882231212
1772614972946511400,1.712511474609375,-0.03181552645564079,0.05701543416380882,-0.03728239529309794
1772614972956579300,1.722579345703125,0.04687719424813985,0.054149523338675495,0.0109104481308721
1772614972966647300,1.732647216796875,0.10615648169070481,0.0335579862087965,0.023291407205723223
1772614972976714500,1.742714599609375,0.12650398093163967,0.002775309932231903,-0.04422405852400697
1772614972986782200,1.7527822265625,0.10332827252745627,-0.008926233777403831,-0.05644067561631091
1772614972996849400,1.762849365234375,0.07310381465554237,-0.002920271360874176,-0.013392830397980287
1772614973006917000,1.772917236328125,0.009945055431127548,-0.019730536386370658,-0.057092883314192294
1772614973016984300,1.782984375,-0.013828034344315529,-0.05111351664364338,-0.16336798641588537
1772614973027052300,1.79305224609375,-0.023636311653256414,-0.0647895752966404,-0.15802299039242787
1772614973037120300,1.803120361328125,-0.026892536970227955,-0.05574877522885799,-0.08723784620910882
1772614973047187500,1.8131875,-0.012335165438055991,-0.034249475604295726,-0.03395326913669705
1772614973057255200,1.823255126953125,0.0014618892461061477,-0.011590484550595283,-0.009343217080458998
1772614973067322400,1.833322265625,-0.0028442835152149197,0.0028396073400974273,-0.04100519694220275
1772614973077390000,1.84339013671875,-0.012956950598210096,0.006224573603272438,-0.06892301270640455
1772614973087458300,1.853458251953125,-0.03445800378844142,0.03785305305421352,-0.06482332230261527
1772614973097525200,1.863525146484375,-0.04296206663101911,0.06110416478216648,-0.04747644791607745
1772614973107593200,1.87359326171875,-0.029921675533056257,0.07855038962364197,-0.07244936933480203
1772614973117660200,1.88366015625,-0.007172668108344078,0.06606324849426747,-0.08631504140892066
1772614973127728000,1.89372802734375,0.03991203141063451,0.060172436890006065,-0.032360428720992054
1772614973137795300,1.90379541015625,0.09890227277874945,0.05146715238690376,-0.004313990741595625
1772614973147863300,1.91386328125,0.1459697289019823,0.031659459111094475,-0.019866172864241523
1772614973157931300,1.92393115234375,0.13207009062618016,-0.005813654714822769,-0.08519965491238982
1772614973167998200,1.933998291015625,0.10374211402535438,-0.03413432479202747,-0.09638396981488913
1772614973178066200,1.944066162109375,0.0706359632372856,-0.01134966153204441,-0.07452958227549679
1772614973188133000,1.954133056640625,-0.005790127708762883,-0.003738602006435394,-0.0682256598256994
1772614973198201300,1.964201416015625,-0.052631519991159434,-0.020215105032920837,-0.07732159674735739
1772614973208269300,1.974269287109375,-0.08379179740846157,-0.003586626315116882,-0.07229204161493107
1772614973218336300,1.984336181640625,-0.10194529373645782,0.01052840827703476,-0.04780465695713646
1772614973228404200,1.994404296875,-0.08158332757875322,0.021517419803142545,-0.019908733364334328
1772614973238471200,2.00447119140625,-0.0583648029461503,0.03429389926791191,-0.024311799762025472
1772614973248539100,2.0145390625,-0.03925532106757164,0.04117605999708175,-0.03825149605358019
1772614973258606000,2.024606201171875,-0.026204700836539266,0.04953998371660709,-0.014859980341093613
1772614973268674300,2.03467431640625,0.008689794673025608,0.0611596943616867,-0.01528472682549618
1772614973278742300,2.0447421875,0.033355157113075254,0.05140519306659698,-0.013299526091339066
1772614973288809200,2.054809326171875,0.05117153044119477,0.023615853387117386,-0.008580352082336321
1772614973298877200,2.064877197265625,0.04562368705570698,0.018135376149415967,-0.021352420233469456
1772614973308944100,2.074944091796875,0.05112959099560976,-0.004431260445713996,-0.03306850392511114
1772614973319012400,2.085012451171875,0.04574117595553398,-0.015595628538727759,-0.05414320319574326
1772614973329080300,2.095080322265625,0.01693359914422035,-0.018851999986171722,-0.0739445397960022
1772614973339147300,2.105147216796875,-0.007032236724346876,-0.009634089785814285,-0.06412375006536021
1772614973349215200,2.11521533203125,-0.022508768928050992,-0.005794950014352798,-0.04680032048649154
1772614973359282200,2.1252822265625,-0.019162381109595297,-0.0261900877892971,-0.036548372796969486
1772614973369350100,2.13535009765625,-0.03134264824688435,-0.041811435291171074,-0.07514973260099068
1772614973379417300,2.145417236328125,-0.04342398505434394,-0.028060557836294173,-0.09175381666305474
1772614973389485300,2.1554853515625,-0.038888533581793304,-0.017529811471700667,-0.03123587253731675
1772614973399553300,2.16555322265625,-0.060891983336210244,-0.006160276195406913,0.012929331938922404
1772614973409620200,2.1756201171875,-0.062174424362182616,0.025087679505348202,-0.019344222216214985
1772614973419688200,2.185688232421875,-0.04760580078363418,0.042459085544943806,-0.03565694038257934
1772614973429755100,2.195755126953125,-0.044637598627805704,0.037138182783126826,-0.041837017256999384
1772614973439823400,2.2058232421875,-0.03513254204913974,0.03485679384768009,-0.05005378759079612
1772614973449891300,2.215891357421875,0.004718991345912218,0.02469429627358913,-0.059181717952759935
1772614973459958300,2.225958251953125,0.021828969970345495,0.0031979192584753032,-0.07761161093618721
1772614973470026200,2.236026123046875,0.026740707409381864,-0.0027127660900354384,-0.07526988838193938
1772614973480093200,2.24609326171875,0.02841609327569604,0.005989595803618431,-0.0843181137043517
1772614973490161400,2.256161376953125,0.014578852711617945,0.012397709280252456,-0.09624277124591171
1772614973500229400,2.2662294921875,0.011774608945846556,0.0383072265625,-0.05756095748366788
1772614973510296300,2.27629638671875,0.006188625507056713,0.05721124899685383,-0.026579616829846053
1772614973520364300,2.2863642578125,-0.011207330451905726,0.06844400615096091,-0.027192625028500332
1772614973530431200,2.29643115234375,-0.005985358019918203,0.0619745178759098,-0.05448368719648569
1772614973540499200,2.306499267578125,0.02135083106458187,0.056707975649833674,-0.07826538953664712
1772614973550566100,2.316566162109375,0.03635112405866384,0.032602292919158934,-0.07566612115791067
1772614973560635100,2.32663525390625,0.061470660006999966,0.026584640064835546,-0.052230172648653386
1772614973570703000,2.336703125,0.05826192709356546,0.021335048973560332,-0.07412611604114062
1772614973580770000,2.34677001953125,0.0644034985885024,0.013487842604517936,-0.08508472329583018
1772614973590838000,2.356838134765625,0.037662645048648115,0.0031973347365856167,-0.11476040644487365
1772614973600905000,2.366905029296875,0.015161328774690628,0.01919452981352806,-0.10805172085277735
1772614973610973200,2.37697314453125,-0.012679448831081389,0.025342531049251556,-0.07845368778351694
1772614973621041200,2.387041259765625,-0.017801029628515243,0.019067104041576386,-0.10388401584723032
1772614973631108000,2.397108154296875,-0.008354571369290352,0.03884440217912197,-0.06914186135516502
1772614973641176000,2.407176025390625,0.008292612048983574,0.04182195668518543,0.016924922647420317
1772614973651243000,2.417242919921875,0.04162380376458168,0.032117139750719066,0.0857630061498843
1772614973661311000,2.42731103515625,0.0649441813364625,0.0071603931486606594,0.061698313016723835
1772614973671378000,2.4373779296875,0.049687867754697794,-0.006872223857045173,0.0012306377734988927
1772614973681446100,2.447446044921875,0.02152209597826004,-0.03402209658920765,-0.05352707145824097
1772614973691514000,2.45751416015625,-0.022203648501634598,-0.057631520235538476,-0.1416017520839814
1772614973701581000,2.4675810546875,-0.05407631197199225,-0.04924421564042568,-0.20250119720743967
1772614973711649000,2.47764892578125,-0.057419923311471936,-0.025446575945615765,-0.1548802171209827
1772614973721716000,2.487716064453125,-0.04304653004407882,0.0007908581167459487,-0.11188095115157774
1772614973731784200,2.4977841796875,-0.008732172510027884,0.01968202106952667,-0.06031646673688665
1772614973741852200,2.50785205078125,0.033926234999299046,0.023361001843214033,0.001726896857842803
1772614973751919000,2.517919189453125,0.07137903668954967,-0.002660159119963646,0.007756815538695082
1772614973761987000,2.527987060546875,0.0995857249982655,-0.03051321168541908,-0.066130495911045
1772614973772054000,2.538053955078125,0.09388137587681412,-0.06050970602035522,-0.10990820804019458
1772614973782122000,2.5481220703125,0.07016556924656032,-0.0696954675167799,-0.14420777899706735
1772614973792189200,2.558189208984375,0.039983781472593544,-0.029947979018092152,-0.11229517624196596
1772614973802257200,2.568257080078125,0.015035072046518326,0.0029921675533056257,-0.03494555897652171
1772614973812325000,2.5783251953125,-0.013745324496924876,0.03322773134112358,0.0015595044016838073
1772614973822392000,2.58839208984375,-0.008595978909730911,0.047238721036911006,0.004774685322213918
1772614973832460000,2.5984599609375,0.012675357177853584,0.05980243453383446,-0.004007847401872277
1772614973842527000,2.60852685546875,0.019487959802150723,0.03842413094043731,-0.029267714269505814
1772614973852595200,2.61859521484375,0.028012042519450185,0.016356091517210007,-0.09816241419687867
1772614973862663000,2.628662841796875,0.018304449106007814,0.006771101570129394,-0.13843542440701276
1772614973872730000,2.638730224609375,0.008088029387593268,0.0010877952367067335,-0.1229972788517829
1772614973882798000,2.648798095703125,-0.019646949756145476,0.00987958897948265,-0.09743814590978436
1772614973892865000,2.658864990234375,-0.01535071386694908,0.04182078764140606,-0.04813271986772306
1772614973902933200,2.668933349609375,0.0009776128605008124,0.058003276157379144,0.02547709894804284
1772614973913000200,2.679000244140625,0.02372019054442644,0.059389762079715726,0.060619650934543454
1772614973923068200,2.689068115234375,0.05249328056424856,0.04644552483260631,0.017904188608890398
1772614973933136000,2.699135986328125,0.04381926798224449,0.015257190364599226,-0.043352390256011855
1772614973943203000,2.709203125,0.015755933666974305,-0.009063596421480179,-0.08974718041522428
1772614973953271000,2.71927099609375,0.007570289123803376,-0.016585224097967147,-0.07455917369616218
1772614973963338000,2.729337890625,-0.0057281683884561055,-0.013178630524873733,-0.05559822430964559
1772614973973406000,2.739406005859375,-0.03329173648804426,-0.0277238732278347,-0.0979063114108052
1772614973983474000,2.749473876953125,-0.047270285218954086,-0.016753566402196884,-0.07398790401369333
1772614973993541000,2.759541015625,-0.03817205587550997,0.008646247792243957,-0.0099113175583072
1772614974003608800,2.76960888671875,-0.036679917621612546,0.03617722879648209,0.03362005512695759
1772614974013676000,2.779676025390625,-0.02845730206891894,0.049717093849182124,0.01811151121663861
1772614974023744000,2.789743896484375,-0.02762202028855681,0.028551556223630904,-0.0383856894930359
1772614974033812000,2.79981201171875,-0.017974924890697002,0.0306605112016201,-0.020733274554973466
1772614974043879000,2.80987890625,-0.013565876276791095,0.03527940317392349,0.024505897562019527
1772614974053947000,2.81994677734375,0.0017741700656712055,0.035411505120992656,0.03420279605151154
1772614974064014000,2.83001416015625,-0.0008224222987890243,0.027127660900354383,0.019737084858166054
1772614974074081800,2.840081787109375,-0.020828414625674484,0.018675474375486372,0.02795067685418762
1772614974084149200,2.850149169921875,-0.04432590233013033,0.012327566653490066,-0.016048770000552756
1772614974094217000,2.860217041015625,-0.06112228496074676,-0.005619008925557136,-0.0879862625567708
1772614974104285000,2.870284912109375,-0.06465031295642257,-0.021809680747985838,-0.12501164174834264
1772614974114351900,2.880351806640625,-0.06377645273134112,-0.024227847805619238,-0.08556040538302623
1772614974124419800,2.890419921875,-0.041405192577838895,0.00692249273955822,-0.004373593708034604
1772614974134487000,2.900487060546875,0.0007628010660409927,0.0354489145219326,0.04065919651612639
1772614974144555000,2.910554931640625,0.029841888295114038,0.0340805487781763,0.06080686233602464
1772614974154623000,2.920623046875,0.04043897789418697,0.019839257457852363,0.02389919123998843
1772614974164690000,2.93068994140625,0.039243630629777905,-0.009034954848885536,-0.04036167487427592
1772614974174758000,2.9407578125,0.026318974865972993,-0.012568974193930625,-0.06299643566901796
1772614974184824800,2.950824951171875,0.029524492909014224,-0.016020575952529908,-0.066260634229891
1772614974194893000,2.96089306640625,0.006498860500007867,-0.021560089901089666,-0.0909801471431274
1772614974204960000,2.9709599609375,-0.016164952859282492,-0.011037526842951773,-0.09177142538498155
1772614974215028000,2.981028076171875,-0.021284633960574863,0.008711714243888854,-0.05027005155682564
1772614974225096000,2.991095947265625,-0.03050970455408096,0.04231178602874279,-0.04778923105914146
1772614974235163000,3.001162841796875,-0.02948503768146038,0.07278641926944256,-0.037909048424614594
1772614974245230800,3.01123095703125,0.0023427637338638303,0.08127484615147114,-0.019402263413229957
1772614974255297800,3.0212978515625,0.023025194017589092,0.06872633022367954,-0.04689664786728099
1772614974265366000,3.031365966796875,0.05428922407031059,0.03517360471189022,-0.06748309783008881
1772614974275434000,3.04143408203125,0.0784054281949997,0.027021862438321113,-0.06261834133793599
1772614974285501000,3.0515009765625,0.0593254646718502,0.008467384093999861,-0.04769673960325308
1772614974295569000,3.06156884765625,0.0252327870644629,0.006162029761075973,-0.07423478231369517
1772614974305635800,3.0716357421875,0.0037590602725744247,0.012519289833307266,-0.08346233712523243
1772614974315704000,3.0817041015625,-0.012522796964645385,0.019331892457604406,-0.049284419786650685
1772614974325772000,3.09177197265625,-0.004920943658798933,0.039132571470737454,-0.01809815854472108
1772614974335839000,3.1018388671875,0.019180062896758318,0.044376317343115805,0.02645093068256974
1772614974345907000,3.111906982421875,0.033790918181836604,0.021472411617636678,-0.027725571994576603
1772614974355974000,3.121973876953125,0.03542918690815568,-0.0010685060143470764,-0.07923024338027462
1772614974366041900,3.132041748046875,0.023148235875368118,-0.002622165197134018,-0.06651944042970426
1772614974376109000,3.142109130859375,-0.0020306290447711945,-0.002111293065547943,-0.0652413011195138
1772614974386177000,3.152177001953125,-0.03401917397975921,0.01764203967452049,-0.059141102814581244
1772614974396245000,3.162244873046875,-0.02153904711306095,0.0268698867470026,-0.04451188988890498
1772614974406312000,3.17231201171875,-0.001114537113159895,0.030403321570158005,-0.057188836235646155
1772614974416380000,3.1823798828125,0.03950564256682992,0.012867080357670783,-0.08391714082118124
1772614974426446800,3.19244677734375,0.07871054862141609,0.005265957704186439,-0.021488047578185794
1772614974436515000,3.20251513671875,0.07853300009742378,-0.010391630154848099,0.011657247910182923
1772614974446583000,3.2125830078125,0.07353767602816223,-0.02247720474600792,0.015033446345012634
1772614974456650000,3.22264990234375,0.007350947284698486,-0.03301905702650547,0.04331372047974728
1772614974466718000,3.232718017578125,-0.062417585468292236,-0.037165070790052414,0.008981799889542163
1772614974476785000,3.242784912109375,-0.09890577991008757,-0.00961421604156494,-0.04046412146859802
1772614974486853000,3.25285302734375,-0.12557137625664472,0.0024070611417293547,-0.06529623704398982
1772614974496921000,3.262921142578125,-0.1110568209528923,-0.007671265280246734,-0.11118128758277743
1772614974506988000,3.272988037109375,-0.03568900688812136,-0.013043605968356131,-0.15888123292326925
1772614974517056000,3.283055908203125,0.026193302659690377,-0.03199848180711269,-0.12503871241835876
1772614974527123000,3.293123046875,0.07320289111584424,-0.032006665113568304,-0.05242933021625504
1772614974537191000,3.30319091796875,0.09941519073694943,-0.004167056551575661,0.01227281339210458
1772614974547257900,3.3132578125,0.08206541200727224,0.0016577040791511534,0.016742213891120628
1772614974557326000,3.323326171875,0.06351210270673036,0.020963293051719664,0.02433737259469926
1772614974567393300,3.333393310546875,0.026867548659443855,0.033355157113075254,0.029427179147535933
1772614974577460200,3.343460205078125,-0.01319002870172262,0.04413549432456493,0.02371460105385631
1772614974587528400,3.353528564453125,-0.019766776743531226,0.030869770038127898,-0.01346556684062816
1772614974597595400,3.363595458984375,-0.03733516665995121,0.01693885984122753,-0.0924945976935327
1772614974607663400,3.373663330078125,-0.05465104312002658,0.0053606502503156656,-0.15199900826201773
1772614974617731300,3.3837314453125,-0.05670782951936126,-0.004921089789271354,-0.13358408451885914
1772614974627798300,3.39379833984375,-0.05639496417790651,0.01027472577691078,-0.07980496539515443
1772614974637866500,3.403866455078125,-0.04336553286537528,0.01881283701956272,-0.02814545964077115
1772614974647933400,3.413933349609375,-0.03861453894600272,0.029350597646832465,-0.015296490328526124
1772614974658001400,3.42400146484375,-0.01559913567006588,0.05399170242846012,-0.01910115244165063
1772614974668068400,3.434068359375,-0.0028844693951308726,0.08267302251160144,0.0013236224197316915
1772614974678136300,3.44413623046875,0.024202713364362714,0.09490122044384479,0.026169364661676808
1772614974688204300,3.454204345703125,0.035713702937960626,0.09886837050914764,0.0014651406491175292
1772614974698271200,3.464271240234375,0.07151040798425674,0.07252572250664234,-0.05097453743121586
1772614974708339500,3.47433935546875,0.08300649224966763,0.03239537217020988,-0.08553254926172085
1772614974718406400,3.484406494140625,0.08200345268696546,0.0027969372421503065,-0.1006251601817552
1772614974728474400,3.494474365234375,0.0980155530720949,-0.018514146333932877,-0.10232040152600966
1772614974738542300,3.504542236328125,0.06561024402976036,-0.032055764952301974,-0.09319400553400628
1772614974748609300,3.514609375,0.04281418259292841,-0.008272153782844544,-0.06867049011690542
1772614974758677500,3.524677490234375,0.01855447834432125,0.0073906947731971736,-0.030581089289858934
1772614974768744400,3.534744384765625,-0.011656535524129867,0.005424363136291504,-0.05025681761591695
1772614974778812400,3.5448125,-0.04976180977374315,0.010740005201101303,-0.05118796098618768
1772614974788879400,3.55487939453125,-0.05949833702072501,0.02818798360824585,-0.030659068163204937
1772614974798947300,3.564947265625,-0.07597469391673803,0.040841128954291345,-0.03379573135427199
1772614974809015300,3.575015380859375,-0.06313187121748924,0.03856324715018272,-0.023589102377509698
1772614974819082500,3.58508251953125,-0.05758885013759136,0.042591772013902664,-0.02411825908445753
1772614974829150500,3.595150390625,-0.04368395116478205,0.027775311154127118,0.019222669062623755
1772614974839217400,3.605217529296875,-0.017816227197647094,0.028459201765060425,0.025431159180775282
1772614974849285400,3.615285400390625,-0.018911036697030065,0.02379939326047897,-0.029734509797347708
1772614974859353300,3.625353271484375,-0.015206336960196494,0.014528876090049743,-0.09694890108811668
1772614974869420300,3.635420166015625,-0.010657587614655495,0.01259703124463558,-0.09795811466327868
1772614974879488500,3.645488525390625,0.010482961700111627,0.021144494837522506,-0.0639781493159011
1772614974889555500,3.655555419921875,0.04137362839579582,0.010310966134071349,-0.06317420338871889
1772614974899623400,3.66562353515625,0.07023673478662967,-0.003192074039578438,-0.0614263459412381
1772614974909691400,3.67569140625,0.08690613003671169,-0.006194762986898422,-0.04502345614023506
1772614974919758300,3.68575830078125,0.08722820159792899,-0.004986556240916252,-0.008887536601675674
1772614974929826600,3.69582666015625,0.07531798357367515,-0.018854922595620154,-0.024703109767707062
1772614974939893500,3.7058935546875,0.04656856669038534,-0.025747604718804357,-0.09184400656400248
1772614974949961500,3.71596142578125,0.01251081426590681,-0.02286357371509075,-0.083301894999668
1772614974960028400,3.7260283203125,-0.007868541418015957,-0.0003191489517688751,-0.03636484205676242
1772614974970096400,3.736096435546875,-0.032795769664645195,0.015984920117259025,-0.03715908857383765
1772614974980164400,3.746164306640625,-0.035950434303283686,0.021524434065818786,-0.06814153433935716
1772614974990231300,3.756231201171875,-0.02112520561516285,0.02806464948952198,-0.03374403769965283
1772614975000299500,3.766299560546875,-0.0065425535112619395,0.020151392146945,-0.005518215432204306
1772614975010366500,3.776366455078125,-0.014199205744266509,0.0016711480826139449,-0.06116242517489008
1772614975020434400,3.786434326171875,0.0024820260740816592,-0.01911737292408943,-0.10110521704996936
1772614975030502400,3.79650244140625,0.01382291977778077,-0.029965514674782753,-0.08316294318670406
1772614975040569300,3.8065693359375,0.026329788520932196,-0.015927052450180054,-0.07641686645997688
1772614975050637600,3.816637451171875,0.014932342324405908,-0.00014086977541446686,-0.05087137845084071
1772614975060704500,3.82670458984375,0.02196224096119404,0.03228723562061787,-0.02225106783993542
1772614975070772500,3.8367724609375,0.025039748710393904,0.045616088271141046,0.008108843846758827
1772614975080840400,3.84684033203125,0.034004853193461894,0.05167816478908062,0.06310032530175522
1772614975090907400,3.856907470703125,0.04072159422785043,0.04405541482567787,0.07500562968887388
1772614975100975400,3.866975341796875,0.05473287618458271,0.026616204246878623,0.0476354378700722
1772614975111042600,3.87704248046875,0.04682604858279228,-0.008050619986653327,-0.07668194713694974
1772614975121110500,3.887110595703125,0.02570142748951912,-0.029920506489276886,-0.17551919185547157
1772614975131177500,3.897177490234375,0.025699673923850058,-0.01009352399110794,-0.13996210425132885
1772614975141245400,3.907245361328125,0.037712329409271474,0.027868250134587286,-0.058898526230361306
1772614975151313400,3.9173134765625,0.020283055702596902,0.05901449902653694,-0.032982789269881324
1772614975161380400,3.92738037109375,-0.008553747203201055,0.0785702633678913,-0.027154722437215967
1772614975171448600,3.937448486328125,-0.038232261630147694,0.06848200007379054,0.009563919759588315
1772614975181515500,3.947515625,-0.030880729823559522,0.07827683337926865,0.031694009834667664
1772614975191583500,3.95758349609375,-0.02255713811442256,0.0668108519911766,0.06324917745422572
1772614975201651500,3.9676513671875,-0.019351035549491642,0.021473580661416053,0.0800784029085189
1772614975211718400,3.977718505859375,-0.009833265619724989,-0.015781506499648094,0.03466494280369952
1772614975221786600,3.98778662109375,-0.03917392639443278,-0.03569382919371128,-0.06357645491352304
1772614975231853600,3.997853515625,-0.053582537105679506,-0.02395896773636341,-0.1389795868868474
1772614975241921500,4.007921630859375,-0.06594795155152679,0.004383329650759697,-0.15820746184755116
1772614975251989200,4.0179892578125,-0.05764321067333221,0.03394201709032058,-0.12535865595457144
1772614975262056400,4.028056396484375,-0.019856062462180853,0.056987377113103865,-0.04216746392091736
1772614975272124400,4.03812451171875,0.006473579928278923,0.06139291859567165,0.015416856172028929
1772614975282191400,4.04819140625,0.04592296226322651,0.05485387221574783,0.03275351969180629
1772614975292259300,4.05825927734375,0.05446048898398876,0.03730710960924625,0.008121264936914667
1772614975302326500,4.068326416015625,0.04322714730799198,0.014537059396505354,-0.021521264861198142
1772614975312394500,4.07839453125,0.025574586239457128,-0.009689034843444824,-0.018930243720998986
1772614975322462200,4.088462158203125,-0.004025602254271507,-0.03751461488008499,-0.05241807816987857
1772614975332529400,4.098529296875,-0.041104456065595145,-0.0400935254573822,-0.091776603883598
1772614975342597400,4.108597412109375,-0.0782853089466691,-0.024620646515488624,-0.05122250257660634
1772614975352664600,4.11866455078125,-0.0793289727807045,0.0140209265679121,0.022390257114917038
1772614975362732300,4.128732177734375,-0.06401946770697832,0.03240706260800361,0.011654069572407751
1772614975372800300,4.13880029296875,-0.030247254225611683,0.0286257905036211,-0.027784663504362105
1772614975382867500,4.148867431640625,0.016733692657947538,0.02513444125652313,-0.04233936815541237
1772614975392935200,4.15893505859375,0.048545858112722634,0.007110124266147613,-0.05428820115700364
1772614975403002600,4.169002685546875,0.09288242796733975,0.011696867534518242,-0.11067089037522673
1772614975413070300,4.1790703125,0.11013152280151843,0.004207973083853721,-0.10639711291301064
1772614975423138300,4.18913818359375,0.09565525368154049,0.0012169745743274688,-0.03533604699829593
1772614975433205200,4.199205322265625,0.07477744695618749,0.031333295896649356,0.026447688412712885
1772614975443273200,4.209273193359375,0.03874211084842682,0.025929975548386573,0.03774792131246067
1772614975453340400,4.21934033203125,-0.0012067454412579535,0.012484803041815757,-0.021162587616639212
1772614975463408400,4.229408447265625,-0.03587912263274193,0.0011906710892915725,-0.08976884425776079
1772614975473475600,4.2394755859375,-0.04356543935164809,-0.017044073781371117,-0.09036986062452197
1772614975483543300,4.249543212890625,-0.06278788008540868,-0.007222936990857124,-0.03865572033976204
1772614975493611300,4.259611328125,-0.058740065999329086,0.024426585248112677,0.02692903305571526
1772614975503678200,4.26967822265625,-0.0581534982830286,0.008458616265654563,0.007374739152239635
1772614975513746400,4.279746337890625,-0.07870937957763671,-0.0066834232866764065,-0.07248018459817394
1772614975523813400,4.2898134765625,-0.061450055610388514,0.03302081059217453,-0.07914090286269783
1772614975533881300,4.29988134765625,-0.04266483725011348,0.046824879539012904,-0.03914148542955517
1772614975543949300,4.30994921875,-0.009988310050964355,0.06064005440175533,-0.01434455076539889
1772614975554016300,4.320016357421875,0.027642040163278578,0.08246434819698334,0.012304231443675234
1772614975564084700,4.330084716796875,0.06275602364242076,0.0876069717824459,0.0422884325526189
1772614975574151700,4.340151611328125,0.0691810882538557,0.0775251382291317,0.043710720440698785
1772614975584219600,4.3502197265625,0.04144669363200664,0.06630290246903896,0.01633139546737075
1772614975594287900,4.360287841796875,0.0168704707801342,0.049991234615445135,-0.025342229655152187
1772614975604354800,4.370354736328125,-0.013760814327001571,0.007094926697015762,-0.11826327259982936
1772614975614422800,4.3804228515625,-0.05116144743859768,-0.033301381099224085,-0.19696151886209845
1772614975624489700,4.39048974609375,-0.04760404721796512,-0.028391981747746466,-0.16630950149418786
1772614975634557700,4.4005576171875,-0.02123100407719612,-0.006484685844182968,-0.10792058702008799
1772614975644624600,4.410624755859375,0.01042903955578804,0.019075287348031995,-0.06384943120258395
1772614975654692900,4.42069287109375,0.03684489892497658,0.021781623697280882,-0.01682436661608517
1772614975664760800,4.4307607421875,0.049509004056453705,0.008144143489003181,0.014183903143857604
1772614975674827800,4.440827880859375,0.07934066321849823,-0.00043079263269901275,-0.03337839642476756
1772614975684895700,4.450895751953125,0.09000701866149902,-0.017719196563959122,-0.07251988185432273
1772614975694962700,4.460962646484375,0.09600786651149391,-0.026242694759368895,-0.04354465229194611
1772614975705031000,4.471031005859375,0.07692541877031325,-0.04225508740544319,-0.068022342106211
1772614975715099000,4.481098876953125,0.051007864312082526,-0.06745265702605246,-0.17925719107370822
1772614975725165800,4.491165771484375,0.050344578097760675,-0.05059972190260887,-0.1451338625997305
1772614975735233800,4.50123388671875,0.022010317886620757,-0.033040099814534186,-0.09041357190208509
1772614975745300700,4.51130078125,-0.0030463819585740564,-0.0021598083823919294,-0.016802579475962556
1772614975755368700,4.52136865234375,-0.016731646831333637,0.00518880081474781,0.02583018670203164
1772614975765437000,4.53143701171875,-0.037516076184809205,-0.008023147457838059,-0.011001875574258156
1772614975775504000,4.54150390625,-0.03443184643387794,-0.02166939549446106,-0.06309864480132236
1772614975785571800,4.55157177734375,-0.051395548455417155,-0.027649054425954816,-0.050156782174389805
1772614975795638800,4.561638671875,-0.12849413183555006,-0.020999533408880233,-0.053886693984293375
1772614975805706800,4.571706787109375,-0.20363909692987797,-0.061547816896438595,-0.0700237907222705
1772614975815773700,4.581773681640625,-0.06281622939705848,0.03024316257238388,-0.05534439567904919
1772614975825842000,4.591842041015625,-0.07197977906167506,0.021484686577320097,0.03996599465415347
1772614975835910000,4.601909912109375,-0.02590133397579193,0.04324234487712383,0.09613786783302203
1772614975845976800,4.611976806640625,0.051879240319132804,0.07529927887320519,0.06020709721143357
1772614975856044800,4.622044921875,0.09022504532635212,0.05845686514377594,-0.007388571314769796
1772614975866111700,4.63211181640625,0.11564444100409746,0.0495002362281084,-0.08418907136404886
1772614975876179700,4.6421796875,0.12657353903651236,0.03512918104827404,-0.090897008037474
1772614975886248000,4.652248046875,0.11169175785556434,0.019898878690600395,-0.09941200326601975
1772614975896315000,4.66231494140625,0.08898249791935085,0.014003390911221504,-0.10797341318586841
1772614975906382800,4.6723828125,0.0414018315769732,0.0326952318996191,-0.10689131703758611
1772614975916449800,4.68244970703125,-0.0013350479960441588,0.05510580115020275,-0.054320514257717875
1772614975926517800,4.692517822265625,-0.021082243256270883,0.08762333839535713,0.05843173983567394
1772614975936586000,4.7025859375,-0.021721417942643165,0.08027940537333488,0.09747470592735334
1772614975946653000,4.71265283203125,-0.031573534393310544,0.045725978386402126,0.04689418191555887
1772614975956721000,4.722720947265625,-0.04755699320584535,0.008444587740302085,-0.017705875858082434
1772614975966787800,4.732787841796875,-0.08584551506787538,-0.020199322941899297,-0.07850434025852009
1772614975976855800,4.742855712890625,-0.12274901231229304,-0.002623334240913391,-0.11181379506634548
1772614975986922800,4.7529228515625,-0.13890870447456835,0.027896307185292242,-0.1104746554170735
1772614975996991000,4.762990966796875,-0.11624328368008136,0.022504677274823186,-0.11278183638090267
1772614976007059000,4.773058837890625,-0.053366848528385157,0.008211363506317139,-0.11038067525699734
1772614976017126000,4.7831259765625,0.015148469293117523,0.020676877325773238,-0.05980853548105806
1772614976027193900,4.79319384765625,0.0842389566540718,0.028709961655735968,-0.013974155683582647
1772614976037260800,4.8032607421875,0.12120295191407203,0.016136895808577537,0.014221965565346181
1772614976047328800,4.813328857421875,0.09892565365433692,-0.0008422960430383682,-0.015836538322246633
1772614976057397000,4.82339697265625,0.054420449234545226,-0.005610241097211838,-0.06127925648759119
1772614976067464000,4.8334638671875,-0.028905191966891286,-0.031470658540725706,-0.08683733911681919
1772614976077532000,4.843531982421875,-0.034842765322327614,-0.025431378376483914,-0.07477560205897316
1772614976087598800,4.853598876953125,0.014708324310183525,-0.020358897417783735,-0.09381980014899745
1772614976097666800,4.863666748046875,0.032571605519950385,-0.04641396065056324,-0.06727567932421807
1772614976107735000,4.873735107421875,0.046161447194218636,-0.032634441623091696,-0.013417841541650705
1772614976117802000,4.883802001953125,0.04084522060751915,-0.039220249754190445,0.008458666498004459
1772614976127870000,4.893869873046875,0.008781272348761558,-0.015403320837020873,-0.021459058945719152
1772614976137937000,4.90393701171875,-0.02865677016377449,-0.006489362019300461,-0.04901590047699865
1772614976148004900,4.9140048828125,-0.055254854232072825,-0.00022270283997058866,-0.07272953798305243
1772614976158072800,4.92407275390625,-0.061274552913010115,0.01637245813012123,-0.11308878343822434
1772614976168139800,4.934139892578125,-0.025076573589444158,0.031236265262961384,-0.11517224778193048
1772614976178208000,4.9442080078125,0.023592180250585078,0.03617430618703365,-0.046197408990166146
1772614976188275000,4.95427490234375,0.06266133109629154,0.04244096536636352,0.007456243423232809
1772614976198343000,4.964343017578125,0.08310673775374888,0.048292029482126235,0.008011406787694431
1772614976208409900,4.974409912109375,0.05794833109974861,0.027476035946607587,-0.0022666114914231
1772614976218477800,4.984477783203125,0.012804828776419162,0.010616671082377432,-0.05076076681637205
1772614976228545800,4.9945458984375,-0.036814942178130146,0.01585398721396923,-0.10252627196218818
1772614976238613000,5.004613037109375,-0.06062339552789926,0.009808861830830573,-0.11910903924158774
1772614976248680700,5.0146806640625,-0.07139116551876068,0.017513444858789442,-0.1112522521934472
1772614976258748000,5.024747802734375,-0.06779971689805388,0.03284253141582012,-0.09956450868030078
1772614976268816000,5.03481591796875,-0.04357844496369362,0.06058861647546291,-0.07531950881048105
1772614976278883600,5.044883544921875,-0.013170301087945698,0.06677578067779541,-0.040290431702393104
1772614976288951000,5.054950927734375,0.005395721563696861,0.0705056148558855,-0.03950663808067329
1772614976299018800,5.065018798828125,0.019030863684415818,0.08003624426722526,-0.019894691139250062
1772614976309086000,5.0750859375,0.0283773687005043,0.09446107546091079,0.005445894548087381
1772614976319153700,5.085153564453125,0.028050913225114344,0.07819967648983,-0.0009591684549348429
1772614976329221600,5.0952216796875,0.027720950618386267,0.06015139410197735,-0.06178152062103617
1772614976339288800,5.105288818359375,0.029381577306985852,0.014405541971325873,-0.08938953521712682
1772614976349356800,5.115356689453125,0.04620294824838638,-0.029364041650295256,-0.11096492315204813
1772614976359424000,5.125424072265625,0.04844634326100349,-0.03068623016476631,-0.09862529160142876
1772614976369491700,5.13549169921875,0.019970190361142157,-0.022378420546650884,-0.029531351908063514
1772614976379559000,5.145558837890625,-0.01746770602092147,0.004482698372006416,0.02421162275660317
1772614976389626600,5.155626708984375,-0.07827887920588254,0.03291442760825157,0.04568718531255144
1772614976399694800,5.16569482421875,-0.09675415483415126,0.06092237847447395,0.06390385567040648
1772614976409761800,5.17576171875,-0.08863748387396335,0.07145604744851589,0.05107843163053039
1772614976419829800,5.185829833984375,-0.050319735917448996,0.0601402881860733,0.02839462122940458
1772614976429896700,5.195896728515625,-0.021347031672298906,0.01214227321445942,-0.06183451575017534
1772614976439964700,5.205964599609375,-0.0027171500042080876,-0.03682487905025482,-0.12682853671088815
1772614976450032600,5.21603271484375,0.025286563078314065,-0.05588379978537559,-0.13933270204029977
1772614976460099600,5.226099609375,0.024236615633964537,-0.08136661608815193,-0.14444085710057988
1772614976470167800,5.236167724609375,0.010311258395016194,-0.060120414441823956,-0.09296646212213672
1772614976480234800,5.24623486328125,0.03201894007325172,-0.0401543157339096,-0.0640593156601768
1772614976490302700,5.256302734375,0.031430472660809755,-0.034815292793512344,-0.03247752946175169
1772614976500370700,5.26637060546875,0.01837707595080137,0.0003495440900325775,-0.008461187248653732
1772614976510437600,5.276437744140625,0.02257306633591652,0.031088965746760365,-0.01833804084835574
1772614976520505900,5.286505859375,0.03026186727285385,0.026051556101441383,-0.0615399532503914
1772614976530572800,5.29657275390625,0.020662264278531073,0.011945873859524727,-0.11000800601970404
1772614976540640800,5.306640869140625,0.03466857779920101,0.006384148079156876,-0.13682614431316031
1772614976550707700,5.316707763671875,0.05872808330059051,0.01736146916747093,-0.12250322085767984
1772614976560775700,5.326775634765625,0.05319894461557269,0.005440729749202728,-0.10737689033113419
1772614976570842000,5.336842041015625,0.027387773141264914,0.014565116447210312,-0.09840876277391798
1772614976580909000,5.346908935546875,0.00895282952338457,0.02644377028942108,-0.09170974005931057
1772614976590977000,5.35697705078125,-0.0027405308797955512,0.042653146812319756,-0.060985283076274203
1772614976601045200,5.367045166015625,-0.006700082160532474,0.05797229649722576,-0.022094753900216892
1772614976611112200,5.3771123046875,-0.005681406637281179,0.058981765800714486,-0.009074830201547592
1772614976621180200,5.38718017578125,0.010234978288412093,0.03950666548013687,-0.05566749015357345
1772614976631247000,5.3972470703125,0.04966068748682737,0.025274141988158225,-0.07301517282428685
1772614976641315000,5.407315185546875,0.048779520738124846,0.029316110855340957,-0.06717108643858227
1772614976651383000,5.417383056640625,0.06433657083213329,0.0073322425842285155,-0.06367856814770494
1772614976661450200,5.4274501953125,0.04914484691917896,-0.020689736807346343,-0.07862133596800268
1772614976671518200,5.437518310546875,0.01765957533121109,-0.014829904863238335,-0.10442359348349273
1772614976681585200,5.447585205078125,0.011532324622571468,-0.019957330879569052,-0.11021711872573942
1772614976691653000,5.457653076171875,-0.012945406290888785,-0.015713117438554764,-0.038807823895243926
1772614976701720000,5.467719970703125,-0.021889175724983213,0.010496259573101997,0.06998239013280254
1772614976711788000,5.4777880859375,-0.007549684727191925,0.02333937453329563,0.10318041588882915
1772614976721856000,5.48785595703125,-0.020189970591664313,0.013307809862494469,0.05261780655963812
1772614976731923200,5.497923095703125,-0.042220016092061996,-0.011433832684159278,-0.023920777450711465
1772614976741991200,5.5079912109375,-0.06538578762412071,-0.018313655325770378,-0.0920557678848505
1772614976752058000,5.51805810546875,-0.09312018224596977,0.005077157133817673,-0.09297481895852834
1772614976762126000,5.5281259765625,-0.10487900910079478,0.02266191366314888,-0.06584244535043836
1772614976772194000,5.538194091796875,-0.07408084299415349,0.026898528319597242,-0.05603865242036991
1772614976782261200,5.54826123046875,-0.020454759007692336,0.0050683893054723735,-0.08621561788874678
1772614976792329000,5.558328857421875,0.0474938648417592,-0.021687515673041342,-0.1093316959270276
1772614976802396200,5.568396240234375,0.10101122775673865,-0.03644143269062042,-0.06323389312012587
1772614976812463900,5.5784638671875,0.11298632771074771,-0.02309621342718601,-0.03405468368455768
1772614976822531800,5.58853173828125,0.09947758844867348,0.0071855275899171825,-0.03271210540260654
1772614976832599000,5.59859912109375,0.054583238580822944,0.01568915204107761,-0.04237835302550811
1772614976842667000,5.6086669921875,0.025744682109355925,0.013706453791260719,-0.09011158414767123
1772614976852734200,5.618734130859375,0.01988441177383065,0.025091186636686323,-0.08583778841914609
1772614976862802000,5.628802001953125,0.02127265126183629,0.010828852528333663,-0.055898440232081334
1772614976872869000,5.638869140625,0.009710662153363227,-0.011268997511267661,-0.10031453246315941
1772614976882936800,5.648936767578125,0.002915595185756683,-0.005633037450909614,-0.06343334294867235
1772614976893005000,5.659005126953125,-0.016119944673776625,0.019371639946103095,-0.027376845321874132
1772614976903072000,5.669072021484375,-0.05318199348077178,0.025346622702479362,-0.01639879358119797
1772614976913140000,5.679139892578125,-0.07846373425349593,0.042920273315906525,-0.04376274288888089
1772614976923207200,5.689207275390625,-0.08724676016792654,0.09051379913985728,-0.037201918501988986
1772614976933275000,5.69927490234375,-0.06058364803940058,0.08381868541538715,-0.06881913220682181
1772614976943343000,5.709343017578125,-0.01733458116054535,0.056397010004520416,-0.09125083557697944
1772614976953410000,5.71941015625,0.04384513307586312,0.051582887721061704,-0.06127026946353726
1772614976963478000,5.72947802734375,0.08559709326475858,0.042627427849173546,-0.010658537462726235
1772614976973545000,5.739544921875,0.08758212960213423,0.033902854123711586,0.0007681074288208037
1772614976983613000,5.749613037109375,0.07390884742811321,0.009312602746486664,-0.009952252356894314
1772614976993681000,5.759680908203125,0.04263911828696727,-0.018389058649539946,-0.030956078348401934
1772614977003747800,5.769747802734375,0.006494622716307639,-0.03345861748754978,-0.04453972317732405
1772614977013816000,5.779816162109375,-0.02188274598419666,-0.037303602477908135,-0.07090412635391112
1772614977023883000,5.789883056640625,-0.06105418816059827,-0.018110241708159447,-0.0398632101331139
1772614977033951000,5.799950927734375,-0.06494885751157999,0.014440028762817383,-0.00851230551453773
1772614977044019000,5.81001904296875,-0.0654997693926096,0.0194324302226305,-0.045375187620776705
1772614977054086000,5.8200859375,-0.042596448189020156,0.020458850660920142,-0.0692980063315248
1772614977064154000,5.830154052734375,-0.007121814703941345,0.010005261185765266,-0.024100184571649877
1772614977074221000,5.840220947265625,0.0035951018825173377,-0.010154314267635346,-0.028163104895316062
1772614977084289000,5.8502890625,-0.016381225958466528,0.0054524201869964595,-0.03858574210978113
1772614977094356000,5.86035595703125,-0.011115852776169777,0.026274843463301657,-0.0022422442351467905
1772614977104424000,5.870423828125,-0.013510054436326026,0.041079613885283466,0.03383127759168856
1772614977114492000,5.880491943359375,-0.015692074650526047,0.058525838726758955,0.030142122483858835
1772614977124559000,5.89055908203125,0.007150017885118722,0.0719651660144329,0.04213705964949913
1772614977134627000,5.900626953125,0.01837868338599801,0.05326105006635189,0.028798799849813803
1772614977144694000,5.910694091796875,0.02656535084247589,0.0369260013371706,-0.03392635373030789
1772614977154762000,5.920761962890625,0.03261807501018047,0.014651625686883926,-0.09614502822617069
1772614977164830000,5.930829833984375,0.03641819794550538,0.003006196078658104,-0.11772453521378337
1772614977174897000,5.94089697265625,0.03481412374973297,-0.004749824875593185,-0.12266851268829777
1772614977184965000,5.950965087890625,0.022415829947590827,-0.018041852647066117,-0.11736007668240926
1772614977195032000,5.961031982421875,0.0067442135632038115,-0.03642740416526794,-0.10227611485971137
1772614977205100000,5.97110009765625,0.009562778115272522,-0.04016892878115177,-0.07423935802411287
1772614977215168000,5.98116796875,0.01428454594016075,-0.027591771280765533,-0.08642515985304489
1772614977225235000,5.99123486328125,0.01177840833812952,-0.004753916528820991,-0.0367085957268253
1772614977235303200,6.00130322265625,0.010592997945845126,0.02202010862827301,0.003069845032552257
1772614977245370000,6.0113701171875,0.0006134557232260703,0.04657821130156517,-0.0048420332036912435
1772614977255438000,6.02143798828125,-0.00790960408076644,0.0622404753357172,-0.008659783127252012
1772614977265506000,6.031506103515625,0.013213701838254929,0.055823594030737875,-0.022481342065008354
1772614977275573000,6.041572998046875,0.02341390107423067,0.04458206904828548,-0.030343462875392285
1772614977285641000,6.051640869140625,0.04698562305867671,0.038867198532819745,-0.028159268970414996
1772614977295708000,6.0617080078125,0.07673150363340973,0.018671967244148255,-0.016899505078373477
1772614977305776000,6.071776123046875,0.07168810263872147,0.0036667058140039442,-0.0339309659733437
1772614977315843000,6.081843017578125,0.043637627805024386,0.0023141221612691877,-0.021188671905966475
1772614977325911000,6.0919111328125,0.02305602754727006,0.014995324558019637,-0.023368701092479748
1772614977335979000,6.10197900390625,-0.004151128330081701,-0.0020586860954761505,-0.06694166616345755
1772614977346046000,6.1120458984375,-0.030867285820096728,-0.008697101196646689,-0.08452008428354747
1772614977356114200,6.1221142578125,-0.030662703158706426,-0.005799626189470291,-0.07152196142473258
1772614977366181000,6.13218115234375,-0.019444559051841497,-0.0004594342052936554,-0.06971935071586631
1772614977376249000,6.1422490234375,-0.01722206069678068,-0.00922609350681305,-0.06482414428652264
1772614977386317000,6.152317138671875,-0.013299918816983699,-0.012060440149903297,-0.03399305315781385
1772614977396384000,6.162384033203125,0.0022068623945116998,0.003949614408612251,-0.010119370818417519
1772614977406452000,6.172451904296875,0.01020633671581745,0.019704232901334762,-0.03161314488449134
1772614977416519200,6.182519287109375,0.009697802671790122,0.031713235124945637,-0.050260991467535494
1772614977426587100,6.192587158203125,0.007206131986528635,0.05038695593476295,-0.04225966311586089
1772614977436655000,6.202655029296875,0.01016015948653221,0.054719432181119916,-0.033750494839902966
1772614977446722000,6.21272216796875,0.05084112944304943,0.03690028237402439,-0.06981939529054798
1772614977456790000,6.2227900390625,0.08471037355810403,-0.0035720132678747174,-0.11605131390509195
1772614977466857000,6.23285693359375,0.10465805982649326,-0.011720832931995391,-0.08064414703249931
1772614977476925200,6.24292529296875,0.11839432423412799,0.008780103304982185,-0.022378292682487515
1772614977486993200,6.2529931640625,0.11006839443743228,0.00990530794262886,0.06812687562634237
1772614977497060000,6.26306005859375,0.078986735214293,0.0013286182552576064,0.0919194646866992
1772614977507128000,6.273128173828125,0.030626170540601013,-0.004944470664858818,0.017517043321672827
1772614977517195000,6.283195068359375,-0.04289806148409843,-0.009988310050964355,-0.07324103116914629
1772614977527263200,6.29326318359375,-0.06458674620091914,-0.0017839608073234557,-0.1352618176058866
1772614977537331200,6.303331298828125,-0.07816577422022819,0.011697452056407927,-0.14376582564953713
1772614977547398100,6.313398193359375,-0.05946107375025749,0.013422960674762724,-0.1458773653102573
1772614977557466000,6.323466064453125,0.005343845245987177,-0.023131869262456892,-0.12613098290078342
1772614977567533800,6.333533935546875,0.049797173348069185,-0.037839024528861044,-0.09153037403756752
1772614977577601800,6.343601806640625,0.0748059423983097,-0.024482114827632902,-0.02509517782521434
1772614977587669800,6.353669677734375,0.0693903470903635,-0.0010737667113542555,0.0463109112680424
1772614977597737000,6.363737060546875,0.04371814569532871,0.009974866047501564,0.05725297837988473
1772614977607804700,6.3738046875,0.03188011612445116,0.00480710802078247,0.020109361369814723
1772614977617872000,6.383871826171875,0.016277765583992004,0.011733692413568496,0.004802733239764347
1772614977627939600,6.393939697265625,0.023587796336412427,0.010840542966127395,0.00098127525546588
1772614977638006800,6.4040068359375,0.024023265144228933,0.02872515922486782,-0.025810897479671982
1772614977648074800,6.41407470703125,0.01860036331266165,0.044405543437600135,-0.0591084061213769
1772614977658142700,6.424142822265625,0.01786561929732561,0.04840367316305637,-0.0502855322537478
1772614977668209700,6.434209716796875,0.003883271174132824,0.05190145215094089,0.014332741596596315
1772614977678277600,6.444277587890625,-0.02066620980128646,0.0713683691650629,0.04241176667134277
1772614977688344800,6.4543447265625,-0.04957622407376766,0.09906827699542045,0.04562019819067791
1772614977698412800,6.464412841796875,-0.06261047769188881,0.11445990739464759,0.05046122674737125
1772614977708480800,6.474480712890625,-0.056657999028265474,0.08649988732337952,0.03195818632934242
1772614977718547700,6.484547607421875,-0.07298194184154272,0.04775368482172489,-0.06506162457051687
1772614977728615700,6.49461572265625,-0.07865560356378555,0.03057809361517429,-0.11297382442220114
1772614977738682600,6.5046826171875,-0.06307575711607932,0.030906594917178152,-0.06101258664173074
1772614977748750600,6.51475048828125,-0.037979309782385826,0.010299860218167305,-0.06475515243723057
1772614977758818800,6.52481884765625,-0.022500585621595383,-0.046808512926101685,-0.12703575885393656
1772614977768885800,6.5348857421875,-0.00398059406876564,-0.07531447644233703,-0.17073086160039527
1772614977778953700,6.54495361328125,0.020073066213726995,-0.07733224600553512,-0.14964876447459682
1772614977789020700,6.555020751953125,0.030358897906541824,-0.06861351749897003,-0.09171795076522976
1772614977799088600,6.565088623046875,0.01737739738896489,-0.02927987049818039,-0.0681864968590904
1772614977809156900,6.575156982421875,0.023063626331835983,0.02229366487264633,-0.014598415928613393
1772614977819223800,6.585223876953125,0.04871960724443197,0.056685763818025585,0.05177444650409743
1772614977829291800,6.595291748046875,0.06622530718818306,0.09986205772161483,0.09543712655198759
1772614977839358700,6.605358642578125,0.09080898269414901,0.11288988159894943,0.06829576591984368
1772614977849426700,6.6154267578125,0.09743512283563613,0.0830932937502861,0.008105062720784918
1772614977859494700,6.62549462890625,0.08108721462488173,0.04497428323626518,-0.05914836367242969
1772614977869561900,6.635561767578125,0.06115618723034858,0.025108137771487234,-0.0990174875230994
1772614977879629800,6.6456298828125,0.036944413776695724,-0.0010971475869417189,-0.08007111465120688
1772614977889696800,6.65569677734375,-0.0077563132151961325,-0.019074118304252624,-0.05693557386063039
1772614977899764700,6.6657646484375,-0.031039135255664586,-0.01771393586695194,-0.001944256802415475
1772614977909831700,6.675831787109375,-0.06488353719040751,-0.0010369418323040009,0.030661232720827682
1772614977919899600,6.685899658203125,-0.08414192602038383,0.007197802549600601,0.024478808625694362
1772614977929967900,6.6959677734375,-0.08246843985021114,-0.01692892296910286,-0.03686519279433414
1772614977940034800,6.706034912109375,-0.06285159297138453,-0.014274024546146392,-0.09740386918084695
1772614977950102800,6.716102783203125,-0.05056231250166893,-0.015294015243649482,-0.0999115685523022
1772614977960169700,6.726169677734375,-0.03676642686128616,-0.020595628783106803,-0.11129344272036104
1772614977970237700,6.73623779296875,-0.005969722059369087,-0.010555296283960342,-0.10510531953680328
1772614977980306000,6.746305908203125,0.01700023463964462,0.003692424777150154,-0.049124178590485824
1772614977990372900,6.756372802734375,0.04608429030478001,0.011598083335161208,0.03324207039372995
1772614978000440800,6.76644091796875,0.07005027230381965,0.010393968242406845,0.0032418588649015872
1772614978010507800,6.7765078125,0.07320785955190658,0.005384615647792816,-0.013807530412403866
1772614978020575700,6.78657568359375,0.061975102397799485,0.011167875224351882,-0.012189135430334135
1772614978030643700,6.796643798828125,0.034290538267046214,0.041270168021321295,-0.026702795684942975
1772614978040710700,6.806710693359375,0.0027870003700256347,0.05287117396593093,-0.05752468972704373
1772614978050779000,6.81677880859375,-0.032604046484827995,0.04549100058674812,-0.10089138250304386
1772614978060845800,6.826845703125,-0.02775879841074347,0.05613748228549957,-0.10613232449698261
1772614978070913800,6.836913818359375,-0.007080752041190862,0.031738369566202164,-0.07843972319024614
1772614978080981800,6.846981689453125,0.011330664570629596,0.014684943434596061,-0.0555260358562693
1772614978091048700,6.857048583984375,0.020559388425946235,0.02238075863420963,-0.05660311790271662
1772614978101117000,6.867116943359375,0.00882218888103962,0.0020674539238214494,-0.07109577190191485
1772614978111184000,6.877183837890625,-0.002381049917638302,-0.016174889731407165,-0.1332605425197631
1772614978121251800,6.887251953125,-0.0018166940331459044,-0.005116320100426674,-0.1501466035946738
1772614978131319800,6.89731982421875,-0.007943652480840682,0.0045043256819248196,-0.10027709566275589
1772614978141386800,6.90738671875,-0.0036000703185796734,0.012138181561231613,-0.07371374498112127
1772614978151454700,6.917454833984375,-0.007337503281235695,0.033762568870186804,-0.043156767219211904
1772614978161522000,6.92752197265625,0.0006483809061348437,0.0641314036488533,0.006377197748562321
1772614978171590000,6.93758984375,0.001645429119467735,0.06026537587046623,0.04933340089437552
1772614978181656800,6.94765673828125,0.00990969185680151,0.047027124112844466,0.003211883851746097
1772614978191724800,6.957724853515625,0.028847324299812314,0.039839842957258224,-0.06067381967403926
1772614978201792800,6.967792724609375,0.029971944415569305,0.009950316128134728,-0.04313321281368844
1772614978211859700,6.977859619140625,0.03194353674948215,0.009512509232759475,-0.08412236280338838
1772614978221928000,6.987927978515625,0.027245734322071075,-0.013800561815500259,-0.14337411378505638
1772614978231995000,6.997994873046875,0.013782587767392397,-0.030738252612948415,-0.11503378915931098
1772614978242062800,7.008062744140625,0.006184095462411642,-0.004588496834039688,-0.029688588296389207
1772614978252130800,7.018130859375,-0.00930076617822051,0.01556464887857437,0.005472549659572542
1772614978262197800,7.02819775390625,-0.0027552900575101374,0.036007132926583287,0.05142102082339115
1772614978272266000,7.038265869140625,-0.002580518012493849,0.016071429356932638,0.08349007451552898
1772614978282333000,7.0483330078125,0.0059475102275609966,-0.0028770167410373687,0.04356830716216936
1772614978292401000,7.05840087890625,0.005141600672155618,-0.05020049345195293,0.0007066047662403434
1772614978302468900,7.06846875,-0.0060725979119539255,-0.11246084253191947,-0.042359579826379196
1772614978312535800,7.078535888671875,-0.05655936095938086,-0.12937106080055236,-0.12748451640158892
1772614978322603800,7.088603759765625,-0.0994135833017528,-0.08191840475201606,-0.1392748709058389
1772614978332670700,7.098670654296875,-0.11996668811738491,-0.012639116820693016,-0.10566258809338323
1772614978342739000,7.108739013671875,-0.10004019076749682,0.0286649534702301,-0.0334336017773021
1772614978352807000,7.118806884765625,-0.06035246963202953,0.03591653203368187,-0.023993564125709233
1772614978362873900,7.128873779296875,0.0016816694766283035,0.038812253475189205,-0.05317335351658985
1772614978372941800,7.13894189453125,0.050294016954302787,0.033661446583271026,-0.025363939163461326
1772614978383008800,7.1490087890625,0.05143178881257772,0.02378478021323681,-0.01044328727684915
1772614978393077000,7.159076904296875,0.03406082116439938,0.022173253363370893,-0.04056368198608979
1772614978403145000,7.16914501953125,-0.002441986324638128,0.018945523488521576,-0.05652612541005946
1772614978413212000,7.1792119140625,-0.03861673090308904,0.023115502649545667,-0.05871852088780142
1772614978423279900,7.18927978515625,-0.0632598815113306,0.02065466549396515,-0.08918512608567253
1772614978433346800,7.199346923828125,-0.04756634555608034,0.003090367230772972,-0.11927718974957242
1772614978443414800,7.209414794921875,-0.0161852649949491,-0.020415011519193647,-0.12574476919532754
1772614978453482000,7.21948193359375,0.01952200820222497,-0.02879822446107864,-0.10259386643883772
1772614978463550000,7.229550048828125,0.039634237382560965,-0.04333762194514274,-0.09646583941206335
1772614978473618000,7.239617919921875,0.0198550395488739,-0.026356676527857777,-0.11732525196420028
1772614978483684900,7.249684814453125,-0.010564356373250483,0.019650456887483597,-0.14298825627262704
1772614978493752800,7.2597529296875,-0.027465806813538073,0.06309329277276993,-0.07825000017127022
1772614978503819800,7.26981982421875,-0.014087562063336372,0.12354220851659774,0.003933686187118292
1772614978513888000,7.279887939453125,-0.004509878639876843,0.13777239392101764,0.060007227257778864
1772614978523955700,7.289955810546875,0.022568390160799024,0.1159843404829502,0.0226433094273787
1772614978534023000,7.30002294921875,0.07390402512252331,0.07643208229541779,-0.007275607893010601
1772614978544090600,7.310090576171875,0.08303191895186901,0.042996261161565776,0.01961786979213357
1772614978554157800,7.32015771484375,0.08142828314751387,0.016855857732892037,0.004163165827747434
1772614978564225800,7.330225830078125,0.048694765064120286,-0.012118307816982268,-0.05832197758457623
1772614978574294000,7.3402939453125,0.004290682931244373,-0.01633504872918129,-0.1280618596318178
1772614978584361000,7.35036083984375,-0.033693449156731364,-0.02415244448184967,-0.14973846118520012
1772614978594429000,7.360428955078125,-0.05164177830144763,-0.01962882957756519,-0.10707476557940244
1772614978604496100,7.37049609375,-0.07964636816680432,0.0036000703185796734,-0.04790606237184256
1772614978614563800,7.380563720703125,-0.08220408982560039,0.011674655702710151,-0.029119674967788157
1772614978624632000,7.390632080078125,-0.07286109194085001,0.02170505132973194,-0.03470827962192707
1772614978634699000,7.400698974609375,-0.060387540945410725,0.03143500270545482,-0.007819496378209442
1772614978644767000,7.41076708984375,-0.03720248019099235,0.04215571868419647,0.011745830375934019
1772614978654834000,7.420833984375,-0.012686463093757629,0.047612815046310424,0.020858946761256082
1772614978664902000,7.43090185546875,0.01996317609846592,0.043749709877371784,0.003956948331696912
1772614978674969900,7.440969970703125,0.03561608778238296,0.0032850130200386047,-0.07218824331373908
1772614978685036800,7.451036865234375,0.03900748378634453,-0.020574585995078085,-0.14212775785261764
1772614978695105000,7.46110498046875,0.047969665659964085,-0.02640577636659145,-0.14041715454244985
1772614978705172000,7.471171875,0.017461130149662493,-0.012006079614162444,-0.09844439120972528
1772614978715240000,7.481239990234375,-0.001743044275045395,0.005219780474901199,-0.05472615418285131
1772614978725308000,7.491307861328125,-0.029507687904685734,0.022712182545661926,-0.051040725402068346
1772614978735374800,7.501374755859375,-0.03387523546442389,0.03726619307696819,-0.06511424980689771
1772614978745443000,7.511443115234375,-0.03334229763150215,0.05556348178982734,-0.056710058009065686
1772614978755510000,7.521510009765625,-0.03743088211938739,0.06008300504088401,-0.07204699907898902
1772614978765578000,7.531577880859375,-0.009065934509038925,0.022931378254294393,-0.0684564089748077
1772614978775646000,7.54164599609375,0.029713001218438145,0.0024848025530576703,-0.06523870730362832
1772614978785713000,7.551712890625,0.025376433318853378,0.0036684593796730038,-0.0718126058012247
1772614978795780900,7.56178076171875,0.017687924642860887,0.0003021978169679642,-0.08468596976920961
1772614978805848000,7.57184814453125,0.03341550899818539,-0.0064472764432430265,-0.08675744228102267
1772614978815916000,7.581916015625,0.03706833241730928,-0.02809329106211662,-0.08205159354447386
1772614978825983000,7.59198291015625,0.02391103694140911,-0.03237199129462242,-0.09455003238599746
1772614978836051000,7.602051025390625,0.022802929569035766,-0.01437690039873123,-0.06319969402300193
1772614978846119000,7.612118896484375,0.026178981873393056,0.007211246553063392,-0.037477004549745466
1772614978856185900,7.622185791015625,0.03206044112741947,0.03135667677223682,-0.010223433981090784
1772614978866254000,7.632254150390625,0.026278496725112198,0.045673371416330336,0.01357192242508754
1772614978876321000,7.642321044921875,0.013592472022771834,0.05550736768841743,0.006805825823638588
1772614978886389000,7.652388916015625,-0.008830810578912496,0.08329962997734547,0.028435930487327277
1772614978896457000,7.66245703125,-0.004331599463522434,0.0856897399842739,0.03417307676668278
1772614978906524000,7.67252392578125,-0.0063126902781426904,0.06037000528872013,0.010853055387828499
1772614978916592000,7.682592041015625,0.006271043093502521,0.0169663323700428,-0.03171170988813974
1772614978926659000,7.6926591796875,0.011905541849136352,-0.01329728846848011,-0.09224512557764537
1772614978936727000,7.70272705078125,0.02066284880042076,-0.043377369433641434,-0.1474772473881021
1772614978946795000,7.712794921875,0.039650457864999766,-0.05638122791349887,-0.15261933211744763
1772614978956862000,7.722862060546875,0.05870528694689273,-0.03097147684693336,-0.08520607552002184
1772614978966930000,7.732929931640625,0.04443652309775352,-0.01139583876132965,-0.017435356387589127
1772614978976996900,7.742996826171875,0.008057341988384724,0.025533669707179067,-0.017615425662230698
1772614978987065000,7.753065185546875,-0.019307927060127256,0.063164019921422,-0.008220231799362227
1772614978997133000,7.763133056640625,-0.02061228765696287,0.0864566327035427,0.029321672946447504
1772614979007200000,7.773199951171875,-0.0024912322938442227,0.0963303764641285,0.02453872211938724
1772614979017268000,7.78326806640625,0.0022001403927803037,0.07959200763106346,-0.04725404647020623
1772614979027335000,7.7933349609375,0.021911679817736146,0.059388593035936355,-0.09133788367277011
1772614979037403100,7.803403076171875,0.04730447974950075,0.03313128522932529,-0.03171277846721932
1772614979047471000,7.81347119140625,0.06730418846607208,0.018298457756638527,0.044084713985398406
1772614979057538000,7.8235380859375,0.07681085247993469,-0.015808979028463364,0.04251515398058109
1772614979067606000,7.83360595703125,0.06780716955214738,-0.03958499141335487,-0.02247630056370981
1772614979077673000,7.8436728515625,0.014686989261209964,-0.03549333818554878,-0.04651777721806429
1772614979087741000,7.853740966796875,-0.052635319383442396,-0.0002893383353948593,-0.04095470886398107
1772614979097809200,7.86380908203125,-0.09687719669193029,0.02920563621819019,-0.031897277321806174
1772614979107876000,7.8738759765625,-0.11102525677084922,0.0662701692432165,-0.009516034630406647
1772614979117944000,7.883944091796875,-0.07873363723605871,0.08407587504684924,-0.002958292683167383
1772614979128011000,7.894010986328125,-0.03896189107894897,0.06124912621080875,-0.016419475609622893
1772614979138079000,7.904078857421875,0.019897125124931334,0.024108605340123174,-0.048694765064120286
1772614979148146000,7.91414599609375,0.053906069971621035,-0.008908698120713234,-0.07321551313539966
1772614979158214100,7.924214111328125,0.049509296317398546,-0.03777297355532646,-0.036057347010169175
1772614979168282000,7.9342822265625,0.035754034948348994,-0.05546469759047031,-0.03161362894168123
1772614979178349000,7.94434912109375,0.019333646023273466,-0.058089785397052764,-0.06879239946352317
1772614979188417000,7.9544169921875,0.013094605503231287,-0.04587210885882377,-0.0783232937363442
1772614979198484000,7.96448388671875,0.019718845948576928,-0.02677227159142494,-0.03650084386081435
1772614979208552200,7.97455224609375,0.033184622851759195,0.0028115502893924713,0.01515816870322451
1772614979218620200,7.9846201171875,0.03585822597518563,0.044750411352515215,0.07430597525322809
1772614979228687000,7.99468701171875,0.027722850314527748,0.06841770266592502,0.11632357324152252
1772614979238755000,8.004755126953125,0.02228562769666314,0.048022564890980717,0.04635733509249985
1772614979248822000,8.014822021484376,0.0015334931775927542,0.018882395124435424,-0.07330700907744467
1772614979258890000,8.024889892578125,-0.021767887432873247,0.001371288353204727,-0.10927242175415158
1772614979268958200,8.034958251953125,-0.03273074160441756,0.008224222987890243,-0.08967071764552965
1772614979279025200,8.045025146484376,-0.03312485548853874,0.02843932802081108,-0.01917752387979999
1772614979289093000,8.055093017578125,-0.035381109982728955,0.029408465313911437,0.054547317884070794
1772614979299160000,8.06516015625,-0.03889043327793479,0.02077566152513027,0.03447313742549159
1772614979309228000,8.07522802734375,-0.0467883469209075,0.013690087178349495,0.019056911441124976
1772614979319296000,8.0852958984375,-0.03984393461048603,-0.003163432466983795,0.006990059816744178
1772614979329363200,8.09536328125,-0.044212066692113874,-0.009222586375474929,-0.03160858744038269
1772614979339431200,8.10543115234375,-0.04723112225234508,0.0028577275186777115,-0.04540842773667536
1772614979349498000,8.115498046875,-0.02934738277643919,0.008096797215938568,-0.03483778775311075
1772614979359566000,8.125566162109376,-0.014362287351489067,0.01656593487560749,-0.005923225169675425
1772614979369633800,8.1356337890625,-0.006487316192686558,0.01847030719220638,-0.009295633345376699
1772614979379701000,8.145700927734374,0.008410100948810577,0.02882452794611454,-0.042119944117916745
1772614979389769000,8.15576904296875,0.014104513198137282,0.01626607514619827,-0.03235856555746868
1772614979399836200,8.165836181640625,0.03704524380266666,0.024842764833569526,-0.01928363286908716
1772614979409904000,8.175904052734374,0.04884937110394239,0.03396247535645962,-0.046633138092886654
1772614979419971800,8.185971923828125,0.05725011970251798,0.03196399501562119,-0.07354961306112819
1772614979430039000,8.1960390625,0.047346857586503026,0.049876083803176874,-0.06435820727520622
1772614979440107000,8.20610693359375,0.03722527654469013,0.06376490842401981,-0.02508508568946272
1772614979450174200,8.21617431640625,0.04171908083260059,0.0580751723498106,-0.028596573542291295
1772614979460242000,8.226241943359375,0.042106618845462795,0.040809564772248265,-0.04636337210764177
1772614979470310000,8.236309814453126,0.028894378311932086,0.01243628772497177,-0.03150292597566731
1772614979480376800,8.246376953125,0.013565730146318674,-0.0020481647014617918,-0.03453453962337225
1772614979490444800,8.25644482421875,0.006126958447694778,-0.006460135924816131,-0.045555279728304594
1772614979500512000,8.266511962890625,-0.018601240095496175,-0.021254384952783582,-0.05704813999016769
1772614979510580000,8.276580078125,-0.040298108118772505,-0.037002573704719544,-0.08738441507294774
1772614979520648000,8.28664794921875,-0.038054713106155394,-0.04711012622117996,-0.14172060182383284
1772614979530715000,8.29671484375,-0.025174627136439084,-0.037408231896162034,-0.1445276860006619
1772614979540782800,8.306782958984375,-0.014027210178226232,-0.008947276565432549,-0.091169934094185
1772614979550849800,8.316849853515626,0.017644962283968925,0.01371112996637821,-0.02513124465243891
1772614979560918000,8.32691796875,0.014752163451910019,0.0501408722192049,-0.00005917370817624032
1772614979570985200,8.336985107421874,0.02093640504479408,0.07095569671094418,-0.006630003465851768
1772614979581052400,8.347052490234375,0.02568301504999399,0.06621230157613754,-0.0012188560041598974
1772614979591120100,8.3571201171875,0.03746814538985491,0.04957973120510578,-0.046374797683954236
1772614979601187300,8.367187255859376,0.04037424209490418,0.006664134064316749,-0.0883307834118139
1772614979611255300,8.37725537109375,0.037787002080678936,0.0014893617749214172,-0.07668901619855314
1772614979621322200,8.387322265625,0.029687866777181625,-0.0028629882156848904,-0.08069129237616435
1772614979631390200,8.39739013671875,0.00016600421667099,-0.0017594108879566191,-0.10517105998308397
1772614979641458200,8.407458251953125,0.0034130233138799666,0.017148118677735327,-0.08981329532084055
1772614979651525400,8.417525390625,0.0009638765960931778,0.02445698038637638,-0.06572391527099535
1772614979661593000,8.427593017578126,-0.004807984803617001,0.034870237851142884,-0.05271022038371302
1772614979671660300,8.437660400390625,0.00825403360426426,0.0432347460925579,-0.02410198380309157
1772614979681728300,8.447728271484374,0.017938976794481275,0.030864509341120717,-0.013831093951081857
1772614979691796200,8.457796142578125,0.03308393895626068,0.019112112227082253,-0.05347005317453295
1772614979701863200,8.46786328125,0.03656199033036828,-0.0009767360776662827,-0.05586488502235151
1772614979711931100,8.47793115234375,0.031091303834319114,-0.000043839141726493834,-0.04171912649837322
1772614979721998300,8.487998291015625,0.03936696474850178,0.0232709854722023,-0.03977255900786258
1772614979732066000,8.498066162109374,0.028363486305624245,0.0400672219723463,-0.09798412588736972
1772614979742134300,8.50813427734375,0.022997575358301398,0.019540566772222517,-0.10707006200482137
1772614979752201200,8.518201171875,0.018901099824905395,0.020573416951298714,-0.08468528478262015
1772614979762269200,8.528269287109374,0.01652341090813279,0.04257482087910175,-0.035364359777327624
1772614979772336000,8.538336181640625,0.027981062859296798,0.0464940401494503,-0.004489118979638442
1772614979782404000,8.548404052734375,0.021877193026244638,0.03729308108389377,0.007255524086207151
1772614979792472300,8.558472412109374,0.009316256008297205,0.03576864799559116,0.017679239012906328
1772614979802539300,8.568539306640625,0.020679946065694094,0.03773907128572464,0.0466594598442316
1772614979812607200,8.578607177734375,0.029254736056923865,0.013523498439788818,0.0701565822225064
1772614979822674200,8.588674072265626,0.0020227379992604254,-0.022680033841729164,0.008619725111499428
1772614979832742100,8.5987421875,-0.03569821310788393,-0.07463350844085216,-0.10059827217482961
1772614979842810000,8.60881005859375,-0.0852846663147211,-0.07874737350046634,-0.15059776316196657
1772614979852877300,8.618877197265626,-0.1192915653347969,-0.03690262046158314,-0.08702598442356102
1772614979862945300,8.6289453125,-0.13181845395267008,-0.0012713351100683212,-0.04199803477129899
1772614979873012200,8.63901220703125,-0.11484101566672325,0.021650106272101403,-0.05182985735260881
1772614979883080200,8.649080078125,-0.055659343379735944,0.034570378121733664,-0.018012425623182206
1772614979893148200,8.659148193359375,-0.002187280911207199,0.0470125110656023,0.011594329608650877
1772614979903215000,8.669215087890626,0.03788403271436691,0.05196867216825485,0.007572882939688861
1772614979913283300,8.679283447265625,0.06786708304584026,0.03903437179327011,-0.007556242332141846
1772614979923350300,8.689350341796874,0.08773089042305945,0.007584171518683433,-0.01916878345091827
1772614979933418200,8.699418212890626,0.07579875282794236,-0.026526772397756575,-0.03966178297661244
1772614979943486200,8.709486328125,0.042293665850162504,-0.03152969525158405,-0.09264786115963942
1772614979953553200,8.71955322265625,0.02198912896811962,-0.004075286614894867,-0.0842267912922427
1772614979963621400,8.729621337890626,-0.005398059651255607,0.01796937193274498,-0.026273774884222074
1772614979973688300,8.739688232421875,-0.009568331073224544,0.039112697726488115,0.0006583451777230948
1772614979983756300,8.74975634765625,-0.02176379577964544,0.03525426873266697,-0.01377346374602057
1772614979993824300,8.75982421875,-0.05422083500921726,0.03260989170372486,-0.011973273323103785
1772614980003891200,8.76989111328125,-0.06968947616741061,0.044456981363892555,-0.0070278162775561205
1772614980013959200,8.779959228515626,-0.09186170661747455,0.04872983637750149,-0.020961658217059448
1772614980024026000,8.790026123046875,-0.09235898861512541,0.03691255733370781,-0.04876097130128182
1772614980034094300,8.80009423828125,-0.07902239104956388,0.02462123103737831,-0.06963885109187104
1772614980044162300,8.810162353515626,-0.05020312380045652,0.035274726998805996,-0.0675729954700917
1772614980054229200,8.820229248046875,-0.00957768342345953,0.053338206955790515,-0.06273677095267921
1772614980064297200,8.830297119140624,0.04490004895627498,0.05829495258033275,-0.010165776376565917
1772614980074364200,8.8403642578125,0.07121756251752376,0.03780103060603142,0.018525617576017974
1772614980084432400,8.850432373046875,0.064547875495255,0.009893617504835129,0.0005836085742339491
1772614980094499300,8.860499267578126,0.024466478867083787,0.0005523731857538223,-0.03085305636534467
1772614980104567300,8.8705673828125,-0.011759265246242285,-0.016041034218668936,-0.04412111873934045
1772614980114635300,8.88063525390625,-0.039984658255428074,-0.044182256075739855,-0.08804276938382535
1772614980124702200,8.8907021484375,-0.035553397809714074,-0.06377952147126198,-0.120596784448158
1772614980134770200,8.900770263671875,0.008605477390438317,-0.07419687058925628,-0.15027130768657662
1772614980144838400,8.91083837890625,0.04161985824182629,-0.08029694103002548,-0.14917732930425553
1772614980154905300,8.9209052734375,0.04268763360381126,-0.059814124971628184,-0.11876193370381369
1772614980164973300,8.930973388671875,0.05301043630614877,-0.01609013405740261,-0.04547995860292576
1772614980175040300,8.941040283203124,0.027461422899365425,0.02945873419642448,0.002659930791100487
1772614980185108200,8.951108154296875,0.004294628453999758,0.053095630371570585,0.05103551037083379
1772614980195175200,8.961175048828125,-0.0023468553870916366,0.06677227354645729,0.058145954297389835
1772614980205243400,8.971243408203126,0.004679389987885952,0.07374854229986667,0.04687956886831671
1772614980215311400,8.981311279296875,-0.021039573158323763,0.0645972675949335,0.009661781510338186
1772614980225378300,8.99137841796875,-0.016670272032916544,0.051851183268427845,-0.05485369868581183
1772614980235446300,9.0014462890625,-0.05464519790112972,0.043588966357707974,-0.07131703170347027
1772614980245513200,9.01151318359375,-0.08760989439189433,0.025752865415811538,-0.08828622275087981
1772614980255581400,9.02158154296875,-0.09620645782351493,0.014971359160542487,-0.09727197729633189
1772614980265649400,9.0316494140625,-0.07351882519721985,0.013149404430389403,-0.07474152625943534
1772614980275716400,9.04171630859375,-0.008272153782844544,0.022197218760848045,-0.037143543944833796
1772614980285784300,9.051784423828124,0.04259761723279953,0.02426525720655918,-0.021349662020802497
1772614980295851300,9.061851318359375,0.07171879003793001,0.020410335344076155,-0.013517525356728583
1772614980305919200,9.071919189453125,0.106357557220757,0.005767477485537529,-0.032593744286522265
1772614980315987500,9.081987548828126,0.12076222240924835,0.01112520512640476,-0.051449881591694425
1772614980326054400,9.092054443359375,0.10937018304020166,0.06457973193824292,-0.06263204106972553
1772614980336122400,9.102122314453124,0.07639058124125003,0.06839665987789631,-0.07770113411685452
1772614980346189300,9.112189208984375,0.04477203866243362,0.09137363083958626,-0.08190720750456676
1772614980356257300,9.12225732421875,0.17815642675757407,0.056579965355992315,-0.1008258612524718
1772614980366325500,9.132325439453124,0.29264906737804414,0.014329554125666617,-0.09468587892642244
1772614980376392400,9.142392333984375,0.2607382638543844,-0.09991349564790725,-0.09133570998199284
1772614980386460400,9.15246044921875,0.21398411146402357,-0.09280921660065651,-0.15245854293201117
1772614980396527400,9.16252734375,0.01976093152463436,-0.07434066297411918,-0.05966746477624401
1772614980406595300,9.17259521484375,-0.15495762973874808,-0.011031681624054908,-0.009101279817055911
1772614980416663300,9.182663330078125,-0.3157742146387696,0.03613105156719684,-0.03696088998746127
1772614980426730200,9.192730224609376,-0.4557102163344621,0.05902268233299255,-0.033834793856181204
1772614980436798200,9.202798095703125,-0.45491234395503993,0.08013795107603072,-0.005750517217582091
1772614980446865400,9.212865478515624,-0.394713603579998,0.08409224165976047,0.00941931452397257
1772614980456933400,9.222933349609375,-0.31919103734493254,0.06775602388679981,-0.0016930219877045601
1772614980467001000,9.2330009765625,-0.1702291408896446,0.05170797540545463,-0.005751083473162725
