time,seconds_elapsed,z,y,x
1772614971295427300,0.06142724609375,-0.007166610565036535,0.03393459692597389,0.012151416391134262
1772614971305495600,0.07149560546875,0.002057247795164585,0.024709409102797508,0.007139879744499922
1772614971315563500,0.0815634765625,0.004298968240618706,0.013124359771609306,-0.00046893570106476545
1772614971325630500,0.09163037109375,0.01048948708921671,0.010827383026480675,-0.010023025795817375
1772614971335698400,0.101698486328125,0.01166268065571785,0.0139788668602705,-0.013523085974156857
1772614971345765400,0.111765380859375,0.01316896453499794,0.017506223171949387,-0.01189429685473442
1772614971355833300,0.121833251953125,0.00834204163402319,0.016323380172252655,-0.0048523349687457085
1772614971365900300,0.131900390625,-0.0017542681889608502,0.015279421582818031,0.010971369221806526
1772614971375968500,0.141968505859375,-0.008524506352841854,0.016594156622886658,0.01847757399082184
1772614971386036500,0.152036376953125,-0.010662492364645004,0.022356972098350525,0.025081414729356766
1772614971396103400,0.162103515625,-0.01333449874073267,0.027509041130542755,0.03067670948803425
1772614971406171400,0.17217138671875,-0.008118164725601673,0.029243825003504753,0.029171491041779518
1772614971416238300,0.18223828125,-0.0011155446991324425,0.024617180228233337,0.01623530499637127
1772614971426306600,0.192306640625,0.009047344326972961,0.01784130185842514,0.0048300521448254585
1772614971436374500,0.20237451171875,0.012923980131745338,0.009947873651981354,-0.0018586646765470505
1772614971446441500,0.21244140625,0.018689721822738647,0.005037803668528795,-0.012906255200505257
1772614971456509400,0.222509521484375,0.021406929939985275,-0.005345094949007034,-0.017704840749502182
1772614971466576400,0.232576416015625,0.014082171954214573,-0.005370661616325378,-0.013643253594636917
1772614971476644400,0.242644287109375,0.0001492382725700736,0.009383566677570343,-0.0038552251644432545
1772614971486712600,0.252712646484375,-0.0032604068983346224,0.017743228003382683,0.0064296359196305275
1772614971496779500,0.262779541015625,-0.00561275240033865,0.01883935183286667,0.020148953422904015
1772614971506847500,0.272847412109375,-0.006879618391394615,0.022307321429252625,0.02113885059952736
1772614971516914400,0.28291455078125,-0.009543085470795631,0.02040763944387436,0.02096983604133129
1772614971526982400,0.292982421875,-0.008829624392092228,0.01261096727102995,0.012186197564005852
1772614971537049300,0.30304931640625,-0.004612413235008717,0.007129034027457237,-0.0026748385280370712
1772614971547117600,0.31311767578125,0.0018681230721995234,0.006660583894699812,-0.01572219654917717
1772614971557185800,0.323185791015625,0.007019911892712116,0.0022488743998110294,-0.018253201618790627
1772614971567253000,0.3332529296875,0.013683940283954144,-0.0022609226871281862,-0.009164098650217056
1772614971577320700,0.34332080078125,0.016488999128341675,-0.0038305227644741535,0.003699948312714696
1772614971587388000,0.353387939453125,0.011843379586935043,-0.0022443439811468124,0.008446766994893551
1772614971597456000,0.363455810546875,0.0008672230178490281,0.004805660806596279,0.009803910739719868
1772614971607523000,0.373523193359375,-0.0206306129693985,0.017345421016216278,0.0013449122197926044
1772614971617590800,0.3835908203125,-0.026690904051065445,0.017440810799598694,-0.005274343304336071
1772614971627658800,0.39365869140625,-0.03074823133647442,0.01741337962448597,-0.008091701194643974
1772614971637726000,0.403725830078125,-0.02780042216181755,0.017385220155119896,-0.007218012586236
1772614971647793700,0.413793701171875,-0.02147754468023777,0.022481445223093033,-0.009044142439961433
1772614971657861000,0.423861083984375,-0.013710593804717064,0.014867148362100124,-0.0017512986669316888
1772614971667928800,0.4339287109375,0.003376247361302376,-0.001319278497248888,0.0001499319914728403
1772614971677996800,0.443996826171875,0.022065820172429085,-0.014855543151497841,0.002138152252882719
1772614971688063700,0.454063720703125,0.024481838569045067,-0.023663150146603584,-0.0020973391365259886
1772614971698131700,0.464131591796875,0.020826764404773712,-0.022996343672275543,-0.001934052910655737
1772614971708199000,0.474198974609375,0.014238903298974037,-0.016682256013154984,-0.01237950287759304
1772614971718267000,0.484266845703125,0.0037516888696700335,-0.007220858708024025,-0.01660902425646782
1772614971728334800,0.4943349609375,-0.0033496301621198654,0.003605689387768507,-0.013217753730714321
1772614971738401800,0.50440185546875,-0.010375896468758583,0.002702360972762108,-0.016815531998872757
1772614971748469800,0.5144697265625,-0.019110266119241714,0.005424111150205135,-0.02116047963500023
1772614971758536700,0.52453662109375,-0.02501733973622322,0.0007690598722547293,-0.027700576931238174
1772614971768605000,0.53460498046875,-0.018435869365930557,-0.004449403844773769,-0.01967727206647396
1772614971778671900,0.544671875,-0.013402837328612804,-0.010118961334228516,-0.013800622895359993
1772614971788739800,0.55473974609375,-0.011809468269348145,-0.007982040755450726,-0.004865718074142933
1772614971798807800,0.564807861328125,-0.00890224426984787,-0.004302080720663071,0.013079244643449783
1772614971808874800,0.574874755859375,-0.006390616297721863,-0.006369492970407009,0.01878719963133335
1772614971818942700,0.584942626953125,-0.005449987947940826,-0.0009502265602350235,0.01998482272028923
1772614971829009700,0.595009765625,-0.002236085245385766,-0.001061546616256237,0.011543400585651398
1772614971839078000,0.605077880859375,0.00033328752033412457,-0.00597118865698576,0.007025161758065224
1772614971849145900,0.615145751953125,-0.0015711390879005194,-0.007123271934688091,0.0005275816656649113
1772614971859212800,0.625212890625,-0.004122542683035135,-0.008834484033286572,-0.009907927364110947
1772614971869280800,0.63528076171875,-0.007393171079456806,-0.006220857612788677,-0.01919197291135788
1772614971879347700,0.64534765625,-0.016482243314385414,-0.0035341468174010515,-0.02338062785565853
1772614971889416000,0.655416015625,-0.01861783303320408,0.0024225455708801746,-0.024864807724952698
1772614971899483000,0.66548291015625,-0.02086484618484974,0.00035400199703872204,-0.02210056409239769
1772614971909550800,0.67555078125,-0.01724880561232567,0.0005777075421065092,-0.01645279861986637
1772614971919618800,0.685618896484375,-0.008212358690798283,-0.002835181076079607,-0.008824286982417107
1772614971929685800,0.695685791015625,-0.0034628775902092457,-0.0004231561906635761,0.0011151628568768501
1772614971939753700,0.705753662109375,0.005735776387155056,-0.003452903591096401,0.007313315756618977
1772614971949821000,0.715821044921875,0.0102426428347826,-0.007469482719898224,0.013239381834864616
1772614971959889000,0.725888916015625,-0.0005939932307228446,-0.0030511319637298584,0.013120325282216072
1772614971969956900,0.735956787109375,-0.008680948056280613,-0.004611744545400143,0.007621963042765856
1772614971980023800,0.74602392578125,-0.011894350871443748,0.006370965391397476,-0.0003637784393504262
1772614971990091800,0.756091796875,-0.01211219746619463,0.003997555933892727,-0.0035971221514046192
1772614972000158700,0.76615869140625,-0.010004239156842232,0.00043399701826274395,-0.006705351639539003
1772614972010227000,0.77622705078125,-0.0071234977804124355,0.0016486648237332702,-0.010597027838230133
1772614972020294000,0.7862939453125,-0.0010479639749974012,-0.0007126922719180584,-0.01480192132294178
1772614972030361900,0.79636181640625,0.0005078548565506935,-0.008708832785487175,-0.013408556580543518
1772614972040429800,0.806429931640625,-0.009023151360452175,-0.0038189836777746677,-0.008690232411026955
1772614972050496800,0.816496826171875,-0.014175835996866226,0.001351277343928814,-0.006917898543179035
1772614972060565000,0.82656494140625,-0.005868036299943924,0.0025416063144803047,-0.003929956816136837
1772614972070632000,0.8366318359375,0.0011003908002749085,0.0008321232162415981,0.004555673338472843
1772614972080700000,0.846699951171875,0.002944444539025426,0.0016631296603009105,0.013284523971378803
1772614972090768000,0.856767822265625,0.004759122617542744,-0.0013473075814545155,0.021504901349544525
1772614972100834800,0.866834716796875,0.002660470549017191,0.002158910036087036,0.022954121232032776
1772614972110902800,0.87690283203125,0.0020396877080202103,0.0020153657533228397,0.025362685322761536
1772614972120969700,0.8869697265625,0.004586799070239067,-0.0013657673262059689,0.020464813336730003
1772614972131038000,0.897037841796875,0.0035873146262019873,-0.008103298023343086,0.014066035859286785
1772614972141106000,0.90710595703125,0.0006213521119207144,-0.006421778351068497,-0.005485827103257179
1772614972151172900,0.9171728515625,0.00017074530478566885,-0.004197772592306137,-0.023109562695026398
1772614972161240800,0.92724072265625,0.002293253783136606,-0.00679478794336319,-0.03157547116279602
1772614972171307800,0.937307861328125,0.005069332662969828,-0.011115500703454018,-0.03507273644208908
1772614972181376000,0.9473759765625,0.002875370904803276,-0.007465571630746126,-0.028970986604690552
1772614972191443000,0.95744287109375,-0.00024372327607125044,-0.008542021736502647,-0.01939132995903492
1772614972201511000,0.967510986328125,-0.008113792166113853,-0.006858570501208305,-0.008304473012685776
1772614972211579000,0.977578857421875,-0.01874779351055622,-0.002660363679751754,0.0011633310932666063
1772614972221645800,0.987645751953125,-0.02573746256530285,0.007604274898767471,0.008227312937378883
1772614972231713800,0.9977138671875,-0.02966269478201866,0.009005097672343254,0.010025212541222572
1772614972241781000,1.007781005859375,-0.025514956563711166,0.006177120842039585,0.012289856560528278
1772614972251849000,1.017848876953125,-0.012418328784406185,0.007805111818015575,0.011659486219286919
1772614972261917000,1.0279169921875,-0.007762342691421509,0.007692692335695028,-0.0022449749521911144
1772614972271983900,1.03798388671875,0.002906812820583582,0.004297694656997919,-0.005995238199830055
1772614972282051800,1.0480517578125,0.005332089960575104,-0.00772489607334137,-0.009276201948523521
1772614972292118800,1.058118896484375,0.004493726883083582,-0.0080878846347332,-0.016271259635686874
1772614972302187000,1.06818701171875,0.003844697494059801,-0.006726560182869434,-0.01625061221420765
1772614972312255000,1.0782548828125,0.005943001713603735,-0.011557800695300102,-0.0182983186095953
1772614972322322000,1.088322021484375,0.002365224761888385,-0.002383193001151085,-0.019051719456911087
1772614972332390000,1.098389892578125,-0.0005615894915536046,-0.0030455212108790874,-0.0098995016887784
1772614972342456800,1.108456787109375,-0.003055616980418563,0.0019891506526619196,0.0009558554738759995
1772614972352525000,1.118525146484375,-0.006764867343008518,0.014825054444372654,0.010727792046964169
1772614972362592000,1.128592041015625,-0.010162465274333954,0.01656251773238182,0.016759535297751427
1772614972372660000,1.138659912109375,-0.005154123995453119,0.00866837427020073,0.017769938334822655
1772614972382728000,1.14872802734375,-0.0017204215982928872,0.006747952196747065,0.016261249780654907
1772614972392795000,1.158794921875,-0.0014413223834708333,-0.00017227185890078545,0.004637616686522961
1772614972402862800,1.16886279296875,-0.0031312913633883,0.0020444942638278008,-0.005953885614871979
1772614972412929800,1.1789296875,-0.005187251605093479,0.004183012526482344,-0.015400916337966919
1772614972422998000,1.188998046875,-0.0019848814699798822,0.0010789984371513128,-0.019952332600951195
1772614972433066000,1.19906591796875,-0.006478965748101473,-0.00013007689267396927,-0.021387510001659393
1772614972443133000,1.2091328125,-0.01310422457754612,0.00684687215834856,-0.021552685648202896
1772614972453201000,1.219200927734375,-0.02140609733760357,0.013109561987221241,-0.012671844102442265
1772614972463267800,1.229267822265625,-0.015810351818799973,0.009181149303913116,-0.0075084976851940155
1772614972473336000,1.239336181640625,-0.01019534282386303,0.009840548038482666,0.000584315974265337
1772614972483403000,1.249403076171875,-0.0055548157542943954,0.006939399987459183,0.008035852573812008
1772614972493471000,1.259470947265625,-0.0030791410245001316,0.003388074692338705,0.0076608797535300255
1772614972503539000,1.2695390625,0.004029989242553711,-0.004632798954844475,0.009595416486263275
1772614972513606000,1.27960595703125,0.006178627721965313,-0.007065596990287304,0.008595932275056839
1772614972523673900,1.289673828125,0.009047668427228928,0.00017530424520373344,0.009116679430007935
1772614972533741000,1.299740966796875,0.014561477117240429,-0.002048967871814966,0.010934553109109402
1772614972543809000,1.30980908203125,0.008613563142716885,0.0002159003634005785,0.006033624522387981
1772614972553877000,1.319876953125,-0.004714759066700935,0.0035957181826233864,0.00032034493051469326
1772614972563943400,1.329943359375,-0.010155330412089825,-0.003566587343811989,-0.006677110679447651
1772614972574011400,1.340011474609375,-0.00925571471452713,-0.003929576370865107,-0.01395126897841692
1772614972584078300,1.350078369140625,-0.007442069239914417,-0.002241496928036213,-0.014365139417350292
1772614972594146300,1.360146240234375,-0.0005340955685824156,-0.0040082382038235664,-0.012228485196828842
1772614972604213200,1.370213134765625,0.0007484341040253639,-0.005665508098900318,-0.00972762331366539
1772614972614281500,1.380281494140625,0.002805460011586547,-0.00516589917242527,-0.006288683507591486
1772614972624349400,1.390349365234375,0.005878521129488945,-0.002904824912548065,-0.0006766997976228595
1772614972634416400,1.40041650390625,0.005027108825743198,-0.006686779670417309,0.005216343328356743
1772614972644484400,1.410484375,0.005694320425391197,-0.009542985819280148,0.006588684394955635
1772614972654551300,1.42055126953125,0.004080977290868759,-0.009034588001668453,0.001703914487734437
1772614972664619300,1.430619384765625,0.002829041564837098,-0.007382597308605909,0.0023080212995409966
1772614972674687500,1.4406875,0.005171824246644974,-0.006992443930357695,-0.0008715266594663262
1772614972684754400,1.45075439453125,0.0072674257680773735,-0.006940562278032303,-0.006333840545266867
1772614972694822400,1.460822509765625,0.006064209621399641,-0.008943259716033936,-0.005221704486757517
1772614972704889300,1.470889404296875,0.0059175495989620686,-0.00414680689573288,-0.00994740892201662
1772614972714957300,1.480957275390625,0.008107732981443405,-0.009088568389415741,-0.006428041495382786
1772614972725024300,1.491024169921875,0.00577867915853858,-0.008997319266200066,-0.00890180841088295
1772614972735092500,1.501092529296875,0.005924887023866177,-0.0021356847137212753,-0.0047448803670704365
1772614972745160400,1.511160400390625,0.0049174269661307335,0.0013304497115314007,0.0008944692090153694
1772614972755227400,1.521227294921875,0.004291317891329527,0.0016207343433052301,0.007080992683768272
1772614972765295400,1.53129541015625,0.002855720929801464,0.00405166856944561,0.013727502897381783
1772614972775362300,1.5413623046875,0.0004873714642599225,0.002070276765152812,0.010868599638342857
1772614972785430300,1.55143017578125,0.003243630286306143,0.00009580818004906178,0.0072674136608839035
1772614972795498500,1.56149853515625,0.008121475577354431,-0.004048869013786316,0.004001579247415066
1772614972805565400,1.5715654296875,0.003887840546667576,-0.0022785491310060024,0.0042661139741539955
1772614972815633400,1.58163330078125,-0.0053626494482159615,0.005664062686264515,0.00063675781711936
1772614972825700400,1.591700439453125,-0.006467957980930805,0.008737432770431042,-0.001173060154542327
1772614972835768300,1.601768310546875,-0.007682626135647297,0.010013087652623653,-0.005812819115817547
1772614972845836300,1.611836181640625,-0.0109398877248168,0.014183849096298218,-0.00542815076187253
1772614972855903500,1.621903564453125,-0.008985127322375774,0.012582490220665932,-0.004199367947876453
1772614972865971200,1.63197119140625,0.003649748396128416,-0.00004430417902767658,-0.0004867521347478032
1772614972876038400,1.642038330078125,0.013281069695949554,-0.009177882224321365,-0.004023163579404354
1772614972886106400,1.6521064453125,0.013793235644698143,-0.013797669671475887,-0.013683898374438286
1772614972896173300,1.66217333984375,0.010757498443126678,-0.016393717378377914,-0.017521247267723083
1772614972906241500,1.672241455078125,0.008507795631885529,-0.013012870214879513,-0.012800954282283783
1772614972916309200,1.682309326171875,0.00327974371612072,-0.004956274293363094,-0.001517939381301403
1772614972926376400,1.69237646484375,0.0010937809711322188,0.010025287978351116,0.010296471416950226
1772614972936444200,1.702444091796875,-0.0007986613200046122,0.01483282633125782,0.023815210908651352
1772614972946511400,1.712511474609375,-0.000995759735815227,0.015409966930747032,0.027316423133015633
1772614972956579300,1.722579345703125,0.006620348431169987,0.010784588754177094,0.02025452069938183
1772614972966647300,1.732647216796875,0.009420041926205158,0.004928315058350563,0.0072836000472307205
1772614972976714500,1.742714599609375,0.0035315267741680145,0.0014904406853020191,-0.004165063612163067
1772614972986782200,1.7527822265625,0.005045331548899412,-0.00541405426338315,-0.01002699788659811
1772614972996849400,1.762849365234375,0.007377194706350565,-0.006453752983361483,-0.013404951430857182
1772614973006917000,1.772917236328125,0.002112319227308035,-0.0008216507267206907,-0.012624535709619522
1772614973016984300,1.782984375,-0.008396513760089874,0.008364390581846237,-0.008321399800479412
1772614973027052300,1.79305224609375,-0.013818109408020973,0.009317605756223202,-0.009029034525156021
1772614973037120300,1.803120361328125,-0.01043429784476757,0.011336281895637512,-0.009093749336898327
1772614973047187500,1.8131875,-0.007183896377682686,0.009026818908751011,-0.006058170460164547
1772614973057255200,1.823255126953125,-0.004346298519521952,0.0025217817164957523,-0.005224068649113178
1772614973067322400,1.833322265625,-0.00855337455868721,-0.010006094351410866,-0.006738416850566864
1772614973077390000,1.84339013671875,-0.008017812855541706,-0.011728361248970032,-0.000045892782509326935
1772614973087458300,1.853458251953125,-0.008126268163323402,-0.01314038597047329,0.003051683073863387
1772614973097525200,1.863525146484375,-0.00590226287022233,-0.01116032525897026,0.013712582178413868
1772614973107593200,1.87359326171875,-0.006509026512503624,-0.0036525242030620575,0.02071116864681244
1772614973117660200,1.88366015625,-0.006759097333997488,0.0025784738827496767,0.024895526468753815
1772614973127728000,1.89372802734375,-0.0012322484981268644,0.0034419873263686895,0.023077471181750298
1772614973137795300,1.90379541015625,0.0038964671548455954,-0.0012377190869301558,0.013058658689260483
1772614973147863300,1.91386328125,0.004077063873410225,-0.007243777625262737,-0.002597816288471222
1772614973157931300,1.92393115234375,0.0005965785821899772,-0.013232428580522537,-0.014282435178756714
1772614973167998200,1.933998291015625,-0.003862612182274461,-0.011649031192064285,-0.025145549327135086
1772614973178066200,1.944066162109375,-0.0016684337751939893,-0.004814027808606625,-0.030328325927257538
1772614973188133000,1.954133056640625,-0.0007756371633149683,-0.009125620126724243,-0.02228652685880661
1772614973198201300,1.964201416015625,-0.004122165031731129,-0.007769271731376648,-0.015766842290759087
1772614973208269300,1.974269287109375,-0.001410881639458239,0.004035089630633593,-0.006857044529169798
1772614973218336300,1.984336181640625,-0.0037097223103046417,0.00719120167195797,-0.002535533159971237
1772614973228404200,1.994404296875,-0.003151490818709135,0.0004453160800039768,0.005004126578569412
1772614973238471200,2.00447119140625,-0.0032087487634271383,0.0016117807244881988,0.010882788337767124
1772614973248539100,2.0145390625,0.0005909516476094723,-0.0029786278028041124,0.011700979433953762
1772614973258606000,2.024606201171875,0.0007281044963747263,-0.0024609093088656664,0.013772385194897652
1772614973268674300,2.03467431640625,0.004649125970900059,-0.000554951373487711,0.007590476423501968
1772614973278742300,2.0447421875,0.009263585321605206,-0.003905474441125989,0.00478536868467927
1772614973288809200,2.054809326171875,0.008054702542722225,-0.004245459567755461,0.0010592089965939522
1772614973298877200,2.064877197265625,0.011611620895564556,-0.0030246665701270103,-0.005385108292102814
1772614973308944100,2.074944091796875,0.006988889072090387,-0.0017552217468619347,-0.013536371290683746
1772614973319012400,2.085012451171875,0.0006279294611886144,-0.005154214333742857,-0.01878812350332737
1772614973329080300,2.095080322265625,-0.0032061338424682617,0.00020964210852980614,-0.01665547490119934
1772614973339147300,2.105147216796875,-0.00489644194021821,0.002803294686600566,-0.015290072187781334
1772614973349215200,2.11521533203125,-0.004737823270261288,0.0065726665779948235,-0.013241685926914215
1772614973359282200,2.1252822265625,-0.0068361274898052216,0.009009192697703838,-0.016613779589533806
1772614973369350100,2.13535009765625,-0.012114965356886387,0.015513796359300613,-0.013526569120585918
1772614973379417300,2.145417236328125,-0.012621232308447361,0.014662916772067547,-0.014877058565616608
1772614973389485300,2.1554853515625,-0.008870743215084076,0.011507553979754448,-0.010004443116486073
1772614973399553300,2.16555322265625,-0.008580191992223263,0.011265206150710583,-0.0035417499020695686
1772614973409620200,2.1756201171875,-0.0061182850040495396,0.01558948028832674,-0.0007501500658690929
1772614973419688200,2.185688232421875,-0.006679413374513388,0.015062441118061543,0.0020759962499141693
1772614973429755100,2.195755126953125,-0.007314166985452175,0.017269587144255638,0.007861249148845673
1772614973439823400,2.2058232421875,-0.005895501002669334,0.019041655585169792,0.0037301541306078434
1772614973449891300,2.215891357421875,-0.008050157688558102,0.021758876740932465,-0.001375588122755289
1772614973459958300,2.225958251953125,-0.008810489438474178,0.01907201297581196,-0.006341318134218454
1772614973470026200,2.236026123046875,-0.010033227503299713,0.017538998275995255,-0.009209085255861282
1772614973480093200,2.24609326171875,-0.01275577675551176,0.014196997508406639,-0.009588586166501045
1772614973490161400,2.256161376953125,-0.010907899588346481,0.017293205484747887,-0.00992253515869379
1772614973500229400,2.2662294921875,-0.00775844557210803,0.01977553591132164,-0.009519066661596298
1772614973510296300,2.27629638671875,0.000525728682987392,0.01844913326203823,-0.007822610437870026
1772614973520364300,2.2863642578125,0.001191785209812224,0.015437630005180836,-0.0035841900389641523
1772614973530431200,2.29643115234375,0.0009272107854485512,0.01871616765856743,-0.0017968750325962901
1772614973540499200,2.306499267578125,-0.0018142471089959145,0.018865570425987244,-0.0005638314178213477
1772614973550566100,2.316566162109375,0.00010591919999569654,0.02004418522119522,-0.0005832768511027098
1772614973560635100,2.32663525390625,0.004966454580426216,0.022400815039873123,-0.004517830908298492
1772614973570703000,2.336703125,0.005115099251270294,0.020714817568659782,-0.00979764387011528
1772614973580770000,2.34677001953125,0.0023619227577000856,0.010476827621459961,-0.01226319745182991
1772614973590838000,2.356838134765625,0.0005327495746314526,0.013437513262033463,-0.012757780961692333
1772614973600905000,2.366905029296875,0.004120027646422386,0.02058463916182518,-0.013054722920060158
1772614973610973200,2.37697314453125,0.0014771407004445791,0.018368206918239594,-0.009946589358150959
1772614973621041200,2.387041259765625,-0.0024488912895321846,0.01768563874065876,-0.006832554936408997
1772614973631108000,2.397108154296875,-0.0023993419017642736,0.019014904275536537,0.002974131843075156
1772614973641176000,2.407176025390625,0.007983257994055748,0.011217967607080936,0.0026510905008763075
1772614973651243000,2.417242919921875,0.01636429876089096,0.006990949623286724,-0.0022891834378242493
1772614973661311000,2.42731103515625,0.024168958887457848,0.0019522488582879305,-0.010206760838627815
1772614973671378000,2.4373779296875,0.024091161787509918,-0.001514288829639554,-0.012936754152178764
1772614973681446100,2.447446044921875,0.018942471593618393,-0.0024405361618846655,-0.014844375662505627
1772614973691514000,2.45751416015625,0.007575769908726215,-0.0029801090713590384,-0.007860715501010418
1772614973701581000,2.4675810546875,-0.0017916330834850669,0.0002931819763034582,-0.0023559618275612593
1772614973711649000,2.47764892578125,-0.008961807005107403,0.00540686771273613,0.005300870630890131
1772614973721716000,2.487716064453125,-0.015317707322537899,0.00895792618393898,0.01139125321060419
1772614973731784200,2.4977841796875,-0.009319896809756756,0.009199274703860283,0.016918230801820755
1772614973741852200,2.50785205078125,-0.00475950026884675,0.004913716576993465,0.01677628420293331
1772614973751919000,2.517919189453125,0.0015026815235614777,-0.00348992133513093,0.009742917492985725
1772614973761987000,2.527987060546875,-0.0005591377848759294,-0.006155746057629585,-0.0001395402941852808
1772614973772054000,2.538053955078125,-0.007011977024376392,-0.012908722274005413,-0.005317257717251778
1772614973782122000,2.5481220703125,-0.014094654470682144,-0.011775015853345394,-0.010073130950331688
1772614973792189200,2.558189208984375,-0.01528896950185299,-0.012030677869915962,-0.0051179928705096245
1772614973802257200,2.568257080078125,-0.010334424674510956,-0.012248791754245758,-0.00043455802369862795
1772614973812325000,2.5783251953125,-0.0020874994806945324,-0.006840139161795378,0.0015678955242037773
1772614973822392000,2.58839208984375,0.0010635529179126024,-0.004469127394258976,0.005860644392669201
1772614973832460000,2.5984599609375,0.0018340107053518295,-0.0075465478003025055,0.00599024398252368
1772614973842527000,2.60852685546875,0.0034835725091397762,-0.017035124823451042,0.00283226789906621
1772614973852595200,2.61859521484375,-0.004788488149642944,-0.01464368961751461,0.00043822661973536015
1772614973862663000,2.628662841796875,-0.007113427855074406,-0.014800550416111946,-0.0005407513817772269
1772614973872730000,2.638730224609375,-0.009915306232869625,-0.016163121908903122,-0.00041320209857076406
1772614973882798000,2.648798095703125,-0.011848760768771172,-0.011716707609593868,0.00884527713060379
1772614973892865000,2.658864990234375,-0.007469387259334326,-0.007721800357103348,0.014451632276177406
1772614973902933200,2.668933349609375,0.004918040242046118,-0.011755158193409443,0.015624487772583961
1772614973913000200,2.679000244140625,0.0091337189078331,-0.014895359054207802,0.01303204894065857
1772614973923068200,2.689068115234375,0.010487403720617294,-0.01535874791443348,0.005112074315547943
1772614973933136000,2.699135986328125,0.006630557589232922,-0.018862536177039146,-0.0016750232316553593
1772614973943203000,2.709203125,-0.0002835406921803951,-0.017758654430508614,-0.0064455438405275345
1772614973953271000,2.71927099609375,-0.0028675906360149384,-0.0146488007158041,-0.008222542703151703
1772614973963338000,2.729337890625,-0.0029749160166829824,-0.012811219319701195,-0.0077996328473091125
1772614973973406000,2.739406005859375,-0.012106508016586304,-0.0057278587482869625,-0.007498984225094318
1772614973983474000,2.749473876953125,-0.007593248970806599,-0.0025014393031597137,-0.0032445844262838364
1772614973993541000,2.759541015625,-0.008389348164200783,-0.0021273649763315916,0.0000885536428540945
1772614974003608800,2.76960888671875,-0.0003695051418617368,-0.003061069408431649,0.0018582239281386137
1772614974013676000,2.779676025390625,-0.00488276407122612,-0.001010701758787036,0.003172760596498847
1772614974023744000,2.789743896484375,-0.005895297974348068,-0.003316732821986079,0.002330402610823512
1772614974033812000,2.79981201171875,-0.005705825984477997,0.0007039913907647133,-0.001381799578666687
1772614974043879000,2.80987890625,-0.002298844512552023,-0.0024963293690234423,-0.0016774104442447424
1772614974053947000,2.81994677734375,0.0017877453938126564,-0.005732768680900335,-0.0005122662987560034
1772614974064014000,2.83001416015625,0.007176651619374752,-0.0059868344105780125,-0.005446038208901882
1772614974074081800,2.840081787109375,0.008814003318548203,-0.002240516245365143,-0.002584833651781082
1772614974084149200,2.850149169921875,0.0048304470255970955,0.001962750917300582,-0.003437045030295849
1772614974094217000,2.860217041015625,-0.0014176603872328997,0.008699732832610607,0.001716491300612688
1772614974104285000,2.870284912109375,-0.009760544635355473,0.011739198118448257,0.011056729592382908
1772614974114351900,2.880351806640625,-0.013175863772630692,0.014984959736466408,0.01461517158895731
1772614974124419800,2.890419921875,-0.011040274985134602,0.01126665435731411,0.01584182307124138
1772614974134487000,2.900487060546875,-0.00173383264336735,0.004906459711492062,0.015755046159029007
1772614974144555000,2.910554931640625,0.00388863286934793,0.0017828383715823293,0.007081662304699421
1772614974154623000,2.920623046875,0.009634433314204216,0.002764113014563918,0.0030139400623738766
1772614974164690000,2.93068994140625,0.004641272593289614,0.005546317435801029,0.0005734190344810486
1772614974174758000,2.9407578125,0.001037785317748785,0.008048208430409431,-0.00530608557164669
1772614974184824800,2.950824951171875,0.0013030359987169504,0.007337943650782108,-0.006064554210752249
1772614974194893000,2.96089306640625,-0.003976223990321159,0.013498998247087002,-0.006470279768109322
1772614974204960000,2.9709599609375,-0.005823392886668444,0.016062291339039803,-0.0017181348521262407
1772614974215028000,2.981028076171875,-0.005345782730728388,0.01134004071354866,0.0055465539917349815
1772614974225096000,2.991095947265625,-0.00373323867097497,0.012260163202881813,0.014998644590377808
1772614974235163000,3.001162841796875,0.0008230027742683887,0.012791263870894909,0.018104540184140205
1772614974245230800,3.01123095703125,0.003882176009938121,0.008878547698259354,0.016489598900079727
1772614974255297800,3.0212978515625,0.004950974602252245,0.006562879309058189,0.009408943355083466
1772614974265366000,3.031365966796875,0.003783977124840021,0.004768707789480686,-0.0012500917073339224
1772614974275434000,3.04143408203125,0.005302188452333212,-0.0005782544612884521,-0.008306965231895447
1772614974285501000,3.0515009765625,0.005331749562174082,-0.001370810903608799,-0.014174974523484707
1772614974295569000,3.06156884765625,0.00670671509578824,0.0018644306110218167,-0.015592353418469429
1772614974305635800,3.0716357421875,0.008227646350860596,0.0049044289626181126,-0.007089678663760424
1772614974315704000,3.0817041015625,0.0083377156406641,0.002963351085782051,0.007903192192316055
1772614974325772000,3.09177197265625,0.013829687610268593,0.0090342927724123,0.011377019807696342
1772614974335839000,3.1018388671875,0.02221323736011982,-0.00156492181122303,0.01045602560043335
1772614974345907000,3.111906982421875,0.019372178241610527,-0.0051990714855492115,0.006404025945812464
1772614974355974000,3.121973876953125,0.016924956813454628,-0.004117611795663834,0.001541988691315055
1772614974366041900,3.132041748046875,0.01245031412690878,-0.009630621410906315,-0.000796000356785953
1772614974376109000,3.142109130859375,0.009855671785771847,-0.010867226868867874,0.0024361400865018368
1772614974386177000,3.152177001953125,0.010193893685936928,0.0001963432878255844,0.008574459701776505
1772614974396245000,3.162244873046875,0.012390668503940105,0.002919674851000309,0.012673119083046913
1772614974406312000,3.17231201171875,0.003509292844682932,0.0050462088547647,0.013924271799623966
1772614974416380000,3.1823798828125,-0.0007911482243798673,0.0030868216417729855,0.013207603245973587
1772614974426446800,3.19244677734375,0.002967637497931719,-0.00023840134963393211,0.0009416162502020597
1772614974436515000,3.20251513671875,0.005958246067166328,-0.00685623986646533,-0.011249780654907227
1772614974446583000,3.2125830078125,0.011093886569142342,-0.010031526908278465,-0.015082068741321564
1772614974456650000,3.22264990234375,0.01836952194571495,-0.013044245541095734,-0.01802057772874832
1772614974466718000,3.232718017578125,0.021345337852835655,-0.016139904037117958,-0.005026749800890684
1772614974476785000,3.242784912109375,0.018636394292116165,-0.01574845239520073,0.005927140824496746
1772614974486853000,3.25285302734375,0.015199851244688034,-0.011520417407155037,0.02619699202477932
1772614974496921000,3.262921142578125,0.004954711068421602,0.00038023386150598526,0.03083479218184948
1772614974506988000,3.272988037109375,-0.011207213625311852,0.005157412029802799,0.03302657604217529
1772614974517056000,3.283055908203125,-0.018850406631827354,0.006915731355547905,0.025217993184924126
1772614974527123000,3.293123046875,-0.019098879769444466,0.010207132436335087,0.012628697790205479
1772614974537191000,3.30319091796875,-0.01101488247513771,0.008746222592890263,0.004603004083037376
1772614974547257900,3.3132578125,-0.005431831814348698,0.0033740943763405085,-0.0019377197604626417
1772614974557326000,3.323326171875,-0.0016710476484149694,-0.0021448086481541395,-0.0064186458475887775
1772614974567393300,3.333393310546875,0.009362961165606976,-0.0016044534277170897,-0.008841589093208313
1772614974577460200,3.343460205078125,0.013346782885491848,-0.0036318476777523756,-0.003909370396286249
1772614974587528400,3.353528564453125,0.007745356764644384,-0.004210286773741245,-0.0020571418572217226
1772614974597595400,3.363595458984375,-0.0003983783535659313,-0.00488688051700592,0.0004155505448579788
1772614974607663400,3.373663330078125,-0.011076588183641434,-0.0010615158826112747,0.007868140004575253
1772614974617731300,3.3837314453125,-0.01582486927509308,0.0032348763197660446,0.006204811856150627
1772614974627798300,3.39379833984375,-0.014894094318151474,0.005846904590725899,0.01242009736597538
1772614974637866500,3.403866455078125,-0.00568658672273159,0.004601810127496719,0.014199238270521164
1772614974647933400,3.413933349609375,-0.0006822407594881952,0.0050897011533379555,0.017943909391760826
1772614974658001400,3.42400146484375,0.002477067057043314,0.0029157630633562803,0.01767493039369583
1772614974668068400,3.434068359375,0.01031981036067009,0.0025181530509144068,0.01591351442039013
1772614974678136300,3.44413623046875,0.01759110391139984,-0.00047655473463237286,0.01699443906545639
1772614974688204300,3.454204345703125,0.017788976430892944,-0.002142628189176321,0.016786713153123856
1772614974698271200,3.464271240234375,0.01047175657004118,-0.006239002570509911,0.009682537987828255
1772614974708339500,3.47433935546875,0.005042635835707188,-0.006556984037160873,0.002915446413680911
1772614974718406400,3.484406494140625,0.003850695677101612,-0.0026104615535587072,-0.004673776216804981
1772614974728474400,3.494474365234375,-0.0003901218296959996,-0.0030658619944006205,-0.01110078301280737
1772614974738542300,3.504542236328125,-0.0036404472775757313,-0.0032950935419648886,-0.01985355094075203
1772614974748609300,3.514609375,-0.003043899079784751,0.0037383148446679115,-0.019589100033044815
1772614974758677500,3.524677490234375,-0.0002977498807013035,0.0013328311033546925,-0.023914488032460213
1772614974768744400,3.534744384765625,-0.0012045563198626041,-0.0027908075135201216,-0.015604625456035137
1772614974778812400,3.5448125,-0.0020965486764907837,-0.0030426098965108395,-0.016361134126782417
1772614974788879400,3.55487939453125,-0.004945598542690277,-0.00012618210166692734,-0.014353377744555473
1772614974798947300,3.564947265625,-0.0051573836244642735,0.0016357491258531809,-0.005803779698908329
1772614974809015300,3.575015380859375,-0.004547519609332085,-0.0013757531996816397,0.0030584209598600864
1772614974819082500,3.58508251953125,-0.0029422950465232134,-0.0010155118070542812,0.006990924011915922
1772614974829150500,3.595150390625,0.005934020504355431,-0.0028187381103634834,0.003338931128382683
1772614974839217400,3.605217529296875,0.011612895876169205,-0.003517218865454197,0.004025142174214125
1772614974849285400,3.615285400390625,0.007051433436572552,-0.0020295768044888973,0.005698139779269695
1772614974859353300,3.625353271484375,-0.0003865493927150965,-0.0010804764460772276,0.008472184650599957
1772614974869420300,3.635420166015625,-0.0012699199141934514,0.0021515358239412308,0.006338194012641907
1772614974879488500,3.645488525390625,-0.0007688741898164153,-0.00001967279240489006,0.007976953871548176
1772614974889555500,3.655555419921875,-0.004253620281815529,0.00018752110190689564,0.004879698157310486
1772614974899623400,3.66562353515625,-0.0058585298247635365,-0.0036253095604479313,-0.0036069892812520266
1772614974909691400,3.67569140625,0.0007085588295012712,-0.004365668166428804,-0.009622537530958652
1772614974919758300,3.68575830078125,0.004023831337690353,-0.010059956461191177,-0.016304608434438705
1772614974929826600,3.69582666015625,0.004110650159418583,-0.014387593604624271,-0.018460970371961594
1772614974939893500,3.7058935546875,0.00014683417975902557,-0.010788429528474808,-0.019463401287794113
1772614974949961500,3.71596142578125,-0.001366107608191669,-0.010006525553762913,-0.015423650853335857
1772614974960028400,3.7260283203125,-0.0007681803544983268,-0.00624860730022192,-0.012917792424559593
1772614974970096400,3.736096435546875,0.0010004248470067978,-0.00282378145493567,-0.0017357117030769587
1772614974980164400,3.746164306640625,-0.002814108971506357,-0.0020866012200713158,0.0000496783759444952
1772614974990231300,3.756231201171875,0.0010796990245580673,-0.004617136903107166,0.004032169468700886
1772614975000299500,3.766299560546875,0.004264404997229576,-0.006517968140542507,0.007607636973261833
1772614975010366500,3.776366455078125,-0.0015303670661523938,-0.006597862578928471,0.009709403850138187
1772614975020434400,3.786434326171875,-0.006222294177860022,-0.0033486406318843365,0.006501881871372461
1772614975030502400,3.79650244140625,-0.00806067418307066,-0.006171857938170433,0.0008730248082429171
1772614975040569300,3.8065693359375,-0.010039095766842365,-0.008296744897961617,-0.0050749750807881355
1772614975050637600,3.816637451171875,-0.011499573476612568,-0.0044897557236254215,-0.0005774286109954119
1772614975060704500,3.82670458984375,-0.008558820933103561,0.000241866335272789,0.0001235052477568388
1772614975070772500,3.8367724609375,-0.0025485993828624487,-0.0032945454586297274,0.0012476255651563406
1772614975080840400,3.84684033203125,0.004558593966066837,-0.006450573913753033,0.0052861706353724
1772614975090907400,3.856907470703125,0.013601623475551605,-0.014634468592703342,0.0052512832917273045
1772614975100975400,3.866975341796875,0.017379021272063255,-0.013181080110371113,-0.0020247299689799547
1772614975111042600,3.87704248046875,0.002052529715001583,-0.008235856890678406,-0.00617047306150198
1772614975121110500,3.887110595703125,-0.007820134051144123,-0.0040060412138700485,-0.0067430539056658745
1772614975131177500,3.897177490234375,-0.015980325639247894,-0.009863397106528282,-0.010977745987474918
1772614975141245400,3.907245361328125,-0.0155411371961236,-0.008963133208453655,-0.01966155506670475
1772614975151313400,3.9173134765625,-0.013277450576424599,-0.006032590754330158,-0.014889436773955822
1772614975161380400,3.92738037109375,-0.012223518453538418,-0.00841669924557209,-0.012978860177099705
1772614975171448600,3.937448486328125,-0.009796046651899815,-0.012551523745059967,-0.003603468183428049
1772614975181515500,3.947515625,-0.004151483997702599,-0.009156744927167892,-0.004226876888424158
1772614975191583500,3.95758349609375,0.00437089754268527,-0.005399291403591633,-0.0041326009668409824
1772614975201651500,3.9676513671875,0.017537137493491173,-0.011305849999189377,-0.007077672053128481
1772614975211718400,3.977718505859375,0.018165377900004387,-0.015696071088314056,-0.008299530483782291
1772614975221786600,3.98778662109375,0.011881407350301743,-0.011112803593277931,-0.0084555484354496
1772614975231853600,3.997853515625,0.00729171559214592,-0.006987034343183041,-0.0013270650524646044
1772614975241921500,4.007921630859375,-0.004004743881523609,-0.003052247455343604,0.006498205475509167
1772614975251989200,4.0179892578125,-0.007347543723881245,0.0019989702850580215,0.01623418927192688
1772614975262056400,4.028056396484375,-0.0022577340714633465,0.00734210480004549,0.0129645811393857
1772614975272124400,4.03812451171875,0.0038744609337300062,0.012541926465928555,0.008572230115532875
1772614975282191400,4.04819140625,0.006538985297083855,0.010118831880390644,0.006921565160155296
1772614975292259300,4.05825927734375,0.009918802417814732,0.007470850832760334,0.0008122734725475311
1772614975302326500,4.068326416015625,0.01062007900327444,0.0029022148810327053,-0.0026909024454653263
1772614975312394500,4.07839453125,0.009793434292078018,-0.0003532334230840206,-0.005140211433172226
1772614975322462200,4.088462158203125,0.007599189877510071,0.002627359703183174,-0.0072424570098519325
1772614975332529400,4.098529296875,0.002658227225765586,0.0018308081198483706,-0.007191058248281479
1772614975342597400,4.108597412109375,0.0023380503989756107,0.004987702239304781,0.0007465463131666183
1772614975352664600,4.11866455078125,0.011564305052161217,0.008179500699043274,0.01314888708293438
1772614975362732300,4.128732177734375,0.01213268842548132,0.01000591367483139,0.020977463573217392
1772614975372800300,4.13880029296875,0.012476236559450626,0.008718275465071201,0.02450748346745968
1772614975382867500,4.148867431640625,0.011851458810269833,0.0028305589221417904,0.019867191091179848
1772614975392935200,4.15893505859375,0.007194921374320984,0.0034870279487222433,0.010992206633090973
1772614975403002600,4.169002685546875,-0.002403562655672431,0.0056996820494532585,-0.0021477555856108665
1772614975413070300,4.1790703125,-0.005569795146584511,-0.003073303261771798,-0.00938356388360262
1772614975423138300,4.18913818359375,-0.0015716265188530087,-0.005422739312052727,-0.015479428693652153
1772614975433205200,4.199205322265625,0.008144916966557503,-0.0022330712527036667,-0.017839254811406136
1772614975443273200,4.209273193359375,0.009793795645236969,0.0010296625550836325,-0.019533328711986542
1772614975453340400,4.21934033203125,0.006086941342800856,0.0026933392509818077,-0.018429981544613838
1772614975463408400,4.229408447265625,-0.0008526984020136297,0.006622001528739929,-0.01562776044011116
1772614975473475600,4.2394755859375,-0.006001654081046581,0.009776515886187553,-0.012060456909239292
1772614975483543300,4.249543212890625,-0.0018169807735830545,0.012075340375304222,-0.005786469206213951
1772614975493611300,4.259611328125,0.007156540639698505,0.007629193365573883,-0.003377373795956373
1772614975503678200,4.26967822265625,0.004824201576411724,0.008662848733365536,0.0034389907959848642
1772614975513746400,4.279746337890625,-0.0017964169383049011,0.011168084107339382,0.005739695392549038
1772614975523813400,4.2898134765625,-0.002476186491549015,0.011685236357152462,0.014482694678008556
1772614975533881300,4.29988134765625,-0.0031401123851537704,0.015148676931858063,0.012440849095582962
1772614975543949300,4.30994921875,0.00011192972306162119,0.017371485009789467,0.0061616781167685986
1772614975554016300,4.320016357421875,0.006119221914559603,0.016809824854135513,0.003098510205745697
1772614975564084700,4.330084716796875,0.015238621272146702,0.010710902512073517,-0.00045569310896098614
1772614975574151700,4.340151611328125,0.02174445614218712,0.005564344115555286,-0.005250182002782822
1772614975584219600,4.3502197265625,0.026146549731492996,-0.00007383502088487148,-0.008059610612690449
1772614975594287900,4.360287841796875,0.02755749225616455,-0.004445946775376797,-0.0046949731186032295
1772614975604354800,4.370354736328125,0.01761462911963463,0.0009440102148801088,-0.0008029191521927714
1772614975614422800,4.3804228515625,0.010013435035943985,0.004446599632501602,0.003034429857507348
1772614975624489700,4.39048974609375,0.005103509873151779,0.006698152050375938,0.007144242525100708
1772614975634557700,4.4005576171875,0.004641450941562653,0.010728846304118633,0.009228698909282684
1772614975644624600,4.410624755859375,0.01271208468824625,0.009265823289752007,0.012420924380421638
1772614975654692900,4.42069287109375,0.01719098910689354,0.00790095329284668,0.015012446790933609
1772614975664760800,4.4307607421875,0.02377653680741787,0.0038154288195073605,0.01120015699416399
1772614975674827800,4.440827880859375,0.021406058222055435,-0.0019354010000824928,0.010404137894511223
1772614975684895700,4.450895751953125,0.02110043168067932,-0.006118361838161945,0.00784895196557045
1772614975694962700,4.460962646484375,0.024619799107313156,-0.009246776811778545,0.000948701985180378
1772614975705031000,4.471031005859375,0.017354978248476982,-0.007091130595654249,-0.00003121420741081238
1772614975715099000,4.481098876953125,0.0032348977401852608,-0.004588026087731123,-0.001601414056494832
1772614975725165800,4.491165771484375,-0.004175347741693258,-0.003482015337795019,-0.004621705040335655
1772614975735233800,4.50123388671875,-0.00615833792835474,-0.001931256614625454,-0.007802318315953016
1772614975745300700,4.51130078125,-0.0030276901088654995,-0.001146554248407483,-0.0035099349915981293
1772614975755368700,4.52136865234375,0.000663451268337667,-0.007688076235353947,0.0026592775247991085
1772614975765437000,4.53143701171875,-0.002399310003966093,-0.011952430941164494,0.004470548592507839
1772614975775504000,4.54150390625,-0.004822253715246916,-0.008510828018188477,0.005323292687535286
1772614975785571800,4.55157177734375,-0.006847458891570568,-0.013512744568288326,0.008074234239757061
1772614975795638800,4.561638671875,-0.012768996879458427,-0.014427007175981998,0.026917429640889168
1772614975805706800,4.571706787109375,-0.017574122175574303,0.004025852307677269,0.03571983426809311
1772614975815773700,4.581773681640625,-0.01388484612107277,-0.00021283491514623165,0.03601651266217232
1772614975825842000,4.591842041015625,-0.007830205373466015,-0.0008963358122855425,0.046275779604911804
1772614975835910000,4.601909912109375,0.004706891253590584,-0.002883852692320943,0.05059435963630676
1772614975845976800,4.611976806640625,0.011163605377078056,-0.006143446080386639,0.04215695708990097
1772614975856044800,4.622044921875,0.009583551436662674,-0.0035489939618855715,0.029303206130862236
1772614975866111700,4.63211181640625,0.004238971509039402,-0.007064680103212595,0.01591419242322445
1772614975876179700,4.6421796875,0.0018458548001945019,-0.006258807610720396,-0.0021854497026652098
1772614975886248000,4.652248046875,-0.0020594263914972544,-0.0036651904229074717,-0.016645973548293114
1772614975896315000,4.66231494140625,-0.008263526484370232,0.00004352745600044727,-0.024305490776896477
1772614975906382800,4.6723828125,-0.01434860099107027,0.0037152133882045746,-0.026293620467185974
1772614975916449800,4.68244970703125,-0.008798573166131973,0.003331451676785946,-0.014796487055718899
1772614975926517800,4.692517822265625,0.003096252214163542,-0.0010052092839032412,-0.009023793041706085
1772614975936586000,4.7025859375,0.016683965921401978,-0.0023953791242092848,-0.009447235614061356
1772614975946653000,4.71265283203125,0.02021891064941883,-0.0015053169336169958,-0.008480081334710121
1772614975956721000,4.722720947265625,0.021796565502882004,-0.010313189588487148,-0.009745616465806961
1772614975966787800,4.732787841796875,0.019366741180419922,-0.010753307491540909,0.0008534234948456287
1772614975976855800,4.742855712890625,0.017339276149868965,-0.0036221612244844437,0.003981039859354496
1772614975986922800,4.7529228515625,0.013348422013223171,0.0036393608897924423,0.019715124741196632
1772614975996991000,4.762990966796875,0.00765405036509037,0.0016198857920244336,0.030382417142391205
1772614976007059000,4.773058837890625,0.0016063039656728506,0.004676362965255976,0.02960827574133873
1772614976017126000,4.7831259765625,0.0039126016199588776,0.005343484692275524,0.026889456436038017
1772614976027193900,4.79319384765625,0.008511454798281193,0.006777130998671055,0.01154310628771782
1772614976037260800,4.8032607421875,0.009565266780555248,0.0020319109316915274,0.0006656909827142954
1772614976047328800,4.813328857421875,0.013584443368017673,-0.0023503380361944437,-0.002794233150780201
1772614976057397000,4.82339697265625,0.009464267641305923,-0.0126644941046834,0.006647471804171801
1772614976067464000,4.8334638671875,0.005996951833367348,-0.0023921960964798927,0.010468864813446999
1772614976077532000,4.843531982421875,0.0006956630386412144,0.004640413448214531,0.00821769516915083
1772614976087598800,4.853598876953125,-0.008300482295453548,0.0018835904775187373,0.005097934044897556
1772614976097666800,4.863666748046875,-0.009564951993525028,-0.0017380423378199339,-0.004364277236163616
1772614976107735000,4.873735107421875,-0.005538942292332649,-0.004855540581047535,-0.010383219458162785
1772614976117802000,4.883802001953125,-0.0022102573420852423,-0.0027300717774778605,-0.01621847040951252
1772614976127870000,4.893869873046875,-0.001091737998649478,-0.0004465603269636631,-0.00952133722603321
1772614976137937000,4.90393701171875,-0.0005412626778706908,0.0006168398540467024,0.0023052282631397247
1772614976148004900,4.9140048828125,-0.007636673748493195,0.0025084163062274456,0.010345932096242905
1772614976158072800,4.92407275390625,-0.017411008477211,0.009072309359908104,0.016799570992588997
1772614976168139800,4.934139892578125,-0.021870912984013557,0.0050104400143027306,0.015532957389950752
1772614976178208000,4.9442080078125,-0.017233816906809807,-0.0007497111801058054,0.007873174734413624
1772614976188275000,4.95427490234375,-0.011957562528550625,-0.00674869678914547,0.0008315362501889467
1772614976198343000,4.964343017578125,-0.008975621312856674,-0.00653963815420866,-0.010445885360240936
1772614976208409900,4.974409912109375,-0.0012848492478951812,-0.009118512272834778,-0.01814730279147625
1772614976218477800,4.984477783203125,-0.002819362562149763,-0.010058607906103134,-0.014472140930593014
1772614976228545800,4.9945458984375,-0.004199235700070858,-0.004020672757178545,-0.011906175874173641
1772614976238613000,5.004613037109375,-0.0034122716169804335,0.0011394682805985212,-0.006310874596238136
1772614976248680700,5.0146806640625,-0.006961191073060036,0.005952748935669661,0.0010883684735745192
1772614976258748000,5.024747802734375,-0.007955082692205906,0.005578308366239071,0.006561164744198322
1772614976268816000,5.03481591796875,-0.00663354154676199,0.007998689077794552,0.008895499631762505
1772614976278883600,5.044883544921875,-0.0026992540806531906,0.007989367470145226,0.007768716663122177
1772614976288951000,5.054950927734375,0.000508841359987855,0.0033612612169235945,0.00346912513487041
1772614976299018800,5.065018798828125,0.0053182439878582954,0.0002850438468158245,0.004331190139055252
1772614976309086000,5.0750859375,0.008520553819835186,-0.002159655559808016,0.003902348456904292
1772614976319153700,5.085153564453125,0.013532356359064579,0.004296645987778902,-0.0019504806259647012
1772614976329221600,5.0952216796875,0.011367774568498135,0.007309596985578537,-0.0044078221544623375
1772614976339288800,5.105288818359375,0.005987922661006451,-0.00022288784384727478,-0.005906915292143822
1772614976349356800,5.115356689453125,-0.00020765513181686401,-0.0025475614238530397,-0.01510573923587799
1772614976359424000,5.125424072265625,-0.00022682989947497845,-0.0017755108419805765,-0.020292511209845543
1772614976369491700,5.13549169921875,0.003850806038826704,-0.003104212461039424,-0.025808824226260185
1772614976379559000,5.145558837890625,0.007441014051437378,-0.006804941222071648,-0.019678225740790367
1772614976389626600,5.155626708984375,0.019684188067913055,-0.004834751132875681,-0.00335785374045372
1772614976399694800,5.16569482421875,0.021475430577993393,-0.006277918349951506,0.007551518734544516
1772614976409761800,5.17576171875,0.02418220229446888,-0.004601209424436092,0.01915443316102028
1772614976419829800,5.185829833984375,0.02448260597884655,-0.0048669930547475815,0.020888151600956917
1772614976429896700,5.195896728515625,0.017814720049500465,-0.0035066823475062847,0.019943898543715477
1772614976439964700,5.205964599609375,0.007193767465651035,0.002401007805019617,0.01355630811303854
1772614976450032600,5.21603271484375,0.0014422191306948662,0.004656805191189051,0.008762957528233528
1772614976460099600,5.226099609375,-0.0068804253824055195,0.010158895514905453,0.00035376008599996567
1772614976470167800,5.236167724609375,-0.006331684999167919,0.015984326601028442,0.001753146992996335
1772614976480234800,5.24623486328125,-0.004437112249433994,0.01407563965767622,0.00674098078161478
1772614976490302700,5.256302734375,0.00015688082203269005,0.011192550882697105,0.006812524050474167
1772614976500370700,5.26637060546875,0.00331592233851552,0.009863101877272129,0.008858631365001202
1772614976510437600,5.276437744140625,0.004053456708788872,0.0028356187976896763,0.010348520241677761
1772614976520505900,5.286505859375,-0.000026505556888878345,0.001290452666580677,0.0064573753625154495
1772614976530572800,5.29657275390625,-0.0057320622727274895,0.0024595805443823338,0.0006769848987460136
1772614976540640800,5.306640869140625,-0.010975560173392296,0.0016963185044005513,-0.0059518893249332905
1772614976550707700,5.316707763671875,-0.017124652862548828,-0.0020751338452100754,-0.015615148469805717
1772614976560775700,5.326775634765625,-0.017383243888616562,0.005832856521010399,-0.02026662603020668
1772614976570842000,5.336842041015625,-0.0170524250715971,0.0056412420235574245,-0.01837042346596718
1772614976580909000,5.346908935546875,-0.01789824664592743,0.005006610881537199,-0.014607110060751438
1772614976590977000,5.35697705078125,-0.010029951110482216,0.00809792522341013,-0.007326154969632626
1772614976601045200,5.367045166015625,-0.005506572313606739,0.0009135154541581869,0.00009927060455083847
1772614976611112200,5.3771123046875,-0.0026699593290686607,-0.0049338871613144875,0.005900508724153042
1772614976621180200,5.38718017578125,-0.006865503266453743,-0.010365936905145645,0.0007342428434640169
1772614976631247000,5.3972470703125,-0.006894533056765795,-0.009947750717401505,-0.0037371590733528137
1772614976641315000,5.407315185546875,-0.0074790967628359795,-0.003685061354190111,-0.010044589638710022
1772614976651383000,5.417383056640625,-0.005635825451463461,-0.004332629032433033,-0.01458112895488739
1772614976661450200,5.4274501953125,-0.009046535938978195,-0.0025038360618054867,-0.012510254979133606
1772614976671518200,5.437518310546875,-0.014590668492019176,-0.00045015523210167885,-0.010006127879023552
1772614976681585200,5.447585205078125,-0.020999033004045486,-0.0008514935616403818,-0.004270478151738644
1772614976691653000,5.457653076171875,-0.01667533628642559,-0.0038234491366893053,-0.00027090893127024174
1772614976701720000,5.467719970703125,-0.0024535246193408966,-0.01027628779411316,0.0005538722034543753
1772614976711788000,5.4777880859375,0.005280813202261925,-0.01638592779636383,-0.004951277747750282
1772614976721856000,5.48785595703125,0.005023552104830742,-0.016906576231122017,-0.009911681525409222
1772614976731923200,5.497923095703125,0.002454160712659359,-0.013493501581251621,-0.008489780128002167
1772614976741991200,5.5079912109375,-0.0012489646906033158,-0.006416683085262775,-0.005565362982451916
1772614976752058000,5.51805810546875,-0.0018625379307195544,-0.00024159718304872513,0.009383304044604301
1772614976762126000,5.5281259765625,-0.0014657268766313791,0.0002790507860481739,0.022172071039676666
1772614976772194000,5.538194091796875,-0.0019259002292528749,-0.00306504569016397,0.03265116736292839
1772614976782261200,5.54826123046875,-0.010429640300571918,0.00268844747915864,0.03354598954319954
1772614976792329000,5.558328857421875,-0.01396641880273819,-0.0003841761499643326,0.02512970194220543
1772614976802396200,5.568396240234375,-0.014731278643012047,-0.006198922172188759,0.007485994137823582
1772614976812463900,5.5784638671875,-0.013771411031484604,-0.008404002524912357,-0.004188290797173977
1772614976822531800,5.58853173828125,-0.0125476885586977,-0.006057757884263992,-0.01194075308740139
1772614976832599000,5.59859912109375,-0.012091944925487041,-0.0033403667621314526,-0.013652241788804531
1772614976842667000,5.6086669921875,-0.014832603745162487,-0.00219574011862278,-0.01325196959078312
1772614976852734200,5.618734130859375,-0.014528104104101658,-0.004409243818372488,-0.009579586796462536
1772614976862802000,5.628802001953125,-0.018638692796230316,-0.007452438119798899,-0.009925264865159988
1772614976872869000,5.638869140625,-0.01846376433968544,-0.004966959357261658,-0.012793926522135735
1772614976882936800,5.648936767578125,-0.015580625273287296,-0.004916626028716564,-0.017052054405212402
1772614976893005000,5.659005126953125,-0.011774974875152111,-0.011870605871081352,-0.011141112074255943
1772614976903072000,5.669072021484375,-0.010716634802520275,-0.013047990389168262,-0.004408109001815319
1772614976913140000,5.679139892578125,-0.005642353557050228,-0.006252202205359936,0.011127058416604996
1772614976923207200,5.689207275390625,-0.004015960730612278,-0.001464903587475419,0.01765819452702999
1772614976933275000,5.69927490234375,-0.00657045328989625,-0.0003608718980103731,0.02470536157488823
1772614976943343000,5.709343017578125,-0.011093566194176674,0.0031529029365628958,0.022562049329280853
1772614976953410000,5.71941015625,-0.007150429300963879,0.005601744633167982,0.012057723477482796
1772614976963478000,5.72947802734375,-0.003838256001472473,0.0033540367148816586,0.003258373588323593
1772614976973545000,5.739544921875,0.00024548370856791735,0.002440239302814007,-0.005295611917972565
1772614976983613000,5.749613037109375,0.0009914350230246782,-0.0012351891491562128,-0.011731673032045364
1772614976993681000,5.759680908203125,0.002289379248395562,-0.003208691719919443,-0.01444524247199297
1772614977003747800,5.769747802734375,0.00002808915451169014,-0.002941576298326254,-0.019252514466643333
1772614977013816000,5.779816162109375,-0.0016187438741326332,0.00027474015951156616,-0.013818921521306038
1772614977023883000,5.789883056640625,-0.000026173540391027927,0.0038180758710950613,-0.006695497781038284
1772614977033951000,5.799950927734375,-0.0031065859366208315,0.0039565772749483585,-0.0014493915950879455
1772614977044019000,5.81001904296875,-0.0114843575283885,0.008482620120048523,0.0038044925313442945
1772614977054086000,5.8200859375,-0.012921731919050217,0.011787851341068745,0.003616261761635542
1772614977064154000,5.830154052734375,-0.013983801007270813,0.009334813803434372,-0.0001603668788447976
1772614977074221000,5.840220947265625,-0.01709691621363163,0.011061756871640682,-0.005604688078165054
1772614977084289000,5.8502890625,-0.018339013680815697,0.013710536994040012,-0.005954893305897713
1772614977094356000,5.86035595703125,-0.012180441990494728,0.012373249977827072,-0.002700067823752761
1772614977104424000,5.870423828125,-0.003414913546293974,0.00893004797399044,0.006672660820186138
1772614977114492000,5.880491943359375,0.00023492751643061638,0.008265022188425064,0.006099989637732506
1772614977124559000,5.89055908203125,0.008021477609872818,0.002563993213698268,0.006684286519885063
1772614977134627000,5.900626953125,0.010608367621898651,-0.0034441642928868532,0.004076667129993439
1772614977144694000,5.910694091796875,0.00509429257363081,-0.001445462228730321,0.0027605327777564526
1772614977154762000,5.920761962890625,0.0009012195514515042,0.002858638297766447,-0.003527592634782195
1772614977164830000,5.930829833984375,-0.00415186258032918,0.010154368355870247,-0.007215804420411587
1772614977174897000,5.94089697265625,-0.011897796764969826,0.008097309619188309,-0.004360523074865341
1772614977184965000,5.950965087890625,-0.015733813866972923,0.008495718240737915,-0.004247605334967375
1772614977195032000,5.961031982421875,-0.011047293432056904,0.014400479383766651,-0.005635710433125496
1772614977205100000,5.97110009765625,-0.013666512444615364,0.012686202302575111,-0.007923365570604801
1772614977215168000,5.98116796875,-0.013587919995188713,0.013912754133343697,-0.002419952070340514
1772614977225235000,5.99123486328125,-0.009294104762375355,0.00906393676996231,-0.002773087238892913
1772614977235303200,6.00130322265625,-0.0084608169272542,0.00801004096865654,-0.0010195234790444374
1772614977245370000,6.0113701171875,-0.004727331455796957,0.012920644134283066,0.002046307548880577
1772614977255438000,6.02143798828125,-0.0022120410576462746,0.016523350030183792,0.00839906558394432
1772614977265506000,6.031506103515625,-0.0026586533058434725,0.01447111926972866,0.0049185799434781075
1772614977275573000,6.041572998046875,-0.002674288582056761,0.009550032205879688,0.004642533604055643
1772614977285641000,6.051640869140625,-0.0016550967702642083,0.006143849343061447,0.0058204494416713715
1772614977295708000,6.0617080078125,-0.0008266536751762033,0.0014042038237676024,-0.0035836489405483007
1772614977305776000,6.071776123046875,-0.0013065553503111005,0.0037957224994897842,-0.01338914129883051
1772614977315843000,6.081843017578125,-0.0006240383954718709,0.00452096713706851,-0.014767677523195744
1772614977325911000,6.0919111328125,-0.0014341720379889011,0.0024058844428509474,-0.013590293936431408
1772614977335979000,6.10197900390625,-0.005387222394347191,0.006166384555399418,-0.00942349061369896
1772614977346046000,6.1120458984375,-0.00995640829205513,0.012110825628042221,-0.005562173202633858
1772614977356114200,6.1221142578125,-0.010307546705007553,0.008511065505445004,-0.004667992703616619
1772614977366181000,6.13218115234375,-0.010938716121017933,0.012140421196818352,-0.0018298616632819176
1772614977376249000,6.1422490234375,-0.013899246230721474,0.010783076286315918,0.0023673949763178825
1772614977386317000,6.152317138671875,-0.00987840536981821,0.005365673452615738,0.005117109045386314
1772614977396384000,6.162384033203125,-0.005505707580596209,0.0032102426048368216,0.005668951198458672
1772614977406452000,6.172451904296875,-0.004330454859882593,0.003325291210785508,0.00794275850057602
1772614977416519200,6.182519287109375,-0.004693604074418545,0.002664628205820918,0.011399656534194946
1772614977426587100,6.192587158203125,-0.006129580549895763,0.005393835715949535,0.015195460990071297
1772614977436655000,6.202655029296875,0.0009444147581234574,0.010918098501861095,0.014313003979623318
1772614977446722000,6.21272216796875,-0.0027858749963343143,0.007694341242313385,0.011570747010409832
1772614977456790000,6.2227900390625,-0.010477656498551369,0.00368410418741405,0.01038387231528759
1772614977466857000,6.23285693359375,-0.01445748470723629,-0.003162616863846779,-0.0012203201185911894
1772614977476925200,6.24292529296875,-0.010854958556592464,-0.0004763384349644184,-0.010642419569194317
1772614977486993200,6.2529931640625,0.0023215634282678366,-0.0065696509554982185,-0.018550142645835876
1772614977497060000,6.26306005859375,0.010943839326500893,-0.0158380176872015,-0.021916870027780533
1772614977507128000,6.273128173828125,0.014319396577775478,-0.020432235673069954,-0.01647949405014515
1772614977517195000,6.283195068359375,0.009666883386671543,-0.017447466030716896,-0.007368563674390316
1772614977527263200,6.29326318359375,0.00251789391040802,-0.012798385694622993,0.003892080159857869
1772614977537331200,6.303331298828125,-0.004150505177676678,-0.007763944566249847,0.02027258649468422
1772614977547398100,6.313398193359375,-0.00894499383866787,-0.0043535009026527405,0.02239299565553665
1772614977557466000,6.323466064453125,-0.014144322834908962,-0.003229696536436677,0.024286331608891487
1772614977567533800,6.333533935546875,-0.018356379121541977,-0.0012459077406674623,0.011409948579967022
1772614977577601800,6.343601806640625,-0.015460924245417118,0.0031065139919519424,0.003298702649772167
1772614977587669800,6.353669677734375,-0.006400317419320345,-0.00251195696182549,0.0039706178940832615
1772614977597737000,6.363737060546875,-0.000774948566686362,-0.0067303720861673355,0.0086936941370368
1772614977607804700,6.3738046875,0.00019311043433845043,-0.004605169408023357,0.010353908874094486
1772614977617872000,6.383871826171875,0.005173328332602978,-0.010647015646100044,0.008725235238671303
1772614977627939600,6.393939697265625,0.0007215880323201418,-0.013719238340854645,0.006590179167687893
1772614977638006800,6.4040068359375,-0.0008763885125517845,-0.01053499523550272,0.002190561033785343
1772614977648074800,6.41407470703125,-0.01026403158903122,-0.003524224506691098,-0.005713967140763998
1772614977658142700,6.424142822265625,-0.01001712866127491,0.0012259541545063257,-0.010905805975198746
1772614977668209700,6.434209716796875,-0.005401337519288063,0.0008624326437711716,-0.012311155907809734
1772614977678277600,6.444277587890625,-0.000048478017561137676,0.0040117050521075726,-0.008703043684363365
1772614977688344800,6.4543447265625,0.005626984406262636,0.003731806529685855,-0.003185772802680731
1772614977698412800,6.464412841796875,0.016026176512241364,-0.0011944088619202375,0.0028966963291168213
1772614977708480800,6.474480712890625,0.02057245746254921,-0.008714909665286541,0.008494660258293152
1772614977718547700,6.484547607421875,0.014806961640715599,-0.00939324963837862,0.014697597362101078
1772614977728615700,6.49461572265625,0.012613050639629364,-0.0061958590522408485,0.010825094766914845
1772614977738682600,6.5046826171875,0.013661595061421394,-0.005557149648666382,0.01405924092978239
1772614977748750600,6.51475048828125,0.010034636594355106,-0.0019046245142817497,0.013358828611671925
1772614977758818800,6.52481884765625,0.001886775135062635,0.0057523297145962715,0.005058896262198687
1772614977768885800,6.5348857421875,-0.0076830280013382435,0.007017597556114197,0.0011994431260973215
1772614977778953700,6.54495361328125,-0.01143893413245678,0.006997423712164164,-0.004215647466480732
1772614977789020700,6.555020751953125,-0.007651119958609343,0.014289691112935543,-0.00400552386417985
1772614977799088600,6.565088623046875,-0.006626892369240522,0.020658141002058983,0.0036757872439920902
1772614977809156900,6.575156982421875,-0.00015940587036311626,0.01889646053314209,0.007097416557371616
1772614977819223800,6.585223876953125,0.008072102442383766,0.01736314594745636,0.00656528677791357
1772614977829291800,6.595291748046875,0.01873886026442051,0.01330528687685728,0.0028094309382140636
1772614977839358700,6.605358642578125,0.02096765860915184,0.00648979377001524,-0.005668426863849163
1772614977849426700,6.6154267578125,0.017989445477724075,0.0019523000810295343,-0.010415778495371342
1772614977859494700,6.62549462890625,0.008181292563676834,-0.0017082837875932455,-0.016405541449785233
1772614977869561900,6.635561767578125,-0.001100889639928937,-0.008197342045605183,-0.020413067191839218
1772614977879629800,6.6456298828125,0.0001422705827280879,-0.00430879183113575,-0.02192489430308342
1772614977889696800,6.65569677734375,0.0026301955804228783,0.005369668360799551,-0.017931219190359116
1772614977899764700,6.6657646484375,0.01046790648251772,0.005214836914092302,-0.01634131744503975
1772614977909831700,6.675831787109375,0.014310848899185658,0.004128000698983669,-0.004346173722296953
1772614977919899600,6.685899658203125,0.0194406695663929,-0.0017386265099048615,0.0016050965059548616
1772614977929967900,6.6959677734375,0.012122302316129208,-0.0007753614336252213,0.0016708767507225275
1772614977940034800,6.706034912109375,0.006338981911540031,0.002825498813763261,0.00586242601275444
1772614977950102800,6.716102783203125,-0.002855048980563879,0.00004542502574622631,0.007734361104667187
1772614977960169700,6.726169677734375,-0.011017932556569576,0.0009123855270445347,0.013498780317604542
1772614977970237700,6.73623779296875,-0.015688050538301468,0.007260296493768692,0.011522981338202953
1772614977980306000,6.746305908203125,-0.0069380467757582664,0.014992882497608662,0.006278560496866703
1772614977990372900,6.756372802734375,0.0017401300137862563,0.015348680317401886,0.003932315856218338
1772614978000440800,6.76644091796875,0.0033423248678445816,0.012557540088891983,-0.0009040320292115211
1772614978010507800,6.7765078125,0.007480611093342304,0.006152371410280466,-0.005927552469074726
1772614978020575700,6.78657568359375,0.0101561164483428,0.006964550819247961,-0.012197759002447128
1772614978030643700,6.796643798828125,0.012984925881028175,0.0035980488173663616,-0.014369833283126354
1772614978040710700,6.806710693359375,0.005324583500623703,-0.007628473453223705,-0.006077324040234089
1772614978050779000,6.81677880859375,0.0018912367522716522,-0.004111769609153271,0.0010564853437244892
1772614978060845800,6.826845703125,-0.00275262538343668,-0.005552803631871939,0.000009794021025300026
1772614978070913800,6.836913818359375,-0.001643418800085783,-0.0037746112793684006,-0.0029697506688535213
1772614978080981800,6.846981689453125,-0.0015593955758959055,-0.0031522654462605715,-0.01022595539689064
1772614978091048700,6.857048583984375,0.006862319074571133,-0.0014960456173866987,-0.011600945144891739
1772614978101117000,6.867116943359375,0.006550062447786331,-0.0008499277755618095,-0.01530684344470501
1772614978111184000,6.877183837890625,0.002965181367471814,0.0028734379447996616,-0.01344316452741623
1772614978121251800,6.887251953125,-0.0040541645139455795,0.004207550548017025,-0.012961968779563904
1772614978131319800,6.89731982421875,-0.0035074173938483,0.003868263913318515,-0.007980525493621826
1772614978141386800,6.90738671875,-0.004310614429414272,0.0027684594970196486,-0.00439711008220911
1772614978151454700,6.917454833984375,0.0010668406030163169,0.0006475180853158236,-0.0015672347508370876
1772614978161522000,6.92752197265625,0.009919334203004837,-0.0011164424940943718,-0.002274284604936838
1772614978171590000,6.93758984375,0.01638335920870304,-0.0027556181885302067,-0.00010380824096500874
1772614978181656800,6.94765673828125,0.018042374402284622,-0.0022144995164126158,0.0019743682350963354
1772614978191724800,6.957724853515625,0.014491848647594452,-0.005900047719478607,-0.002582300454378128
1772614978201792800,6.967792724609375,0.012394556775689125,-0.006083937361836433,-0.0066942572593688965
1772614978211859700,6.977859619140625,0.005214141681790352,-0.010657916776835918,-0.010344386100769043
1772614978221928000,6.987927978515625,-0.006171471904963255,-0.003998433705419302,-0.015108192339539528
1772614978231995000,6.997994873046875,-0.008700942620635033,-0.002729437779635191,-0.0144301513209939
1772614978242062800,7.008062744140625,-0.007886172272264957,-0.0021310269366949797,-0.015955543145537376
1772614978252130800,7.018130859375,-0.006061640568077564,0.0018179083708673716,-0.012523527257144451
1772614978262197800,7.02819775390625,-0.0009776682127267122,-0.0018132426775991917,-0.009319163858890533
1772614978272266000,7.038265869140625,0.003830935340374708,-0.004351767711341381,-0.00903207529336214
1772614978282333000,7.0483330078125,0.00735714053735137,-0.0034886891953647137,-0.0124667938798666
1772614978292401000,7.05840087890625,0.01116599328815937,-0.0028127790428698063,-0.019432557746767998
1772614978302468900,7.06846875,0.003959911875426769,-0.009173321537673473,-0.021041523665189743
1772614978312535800,7.078535888671875,-0.00658061308786273,-0.0026847959961742163,-0.017374617978930473
1772614978322603800,7.088603759765625,-0.013887896202504635,0.00834694691002369,-0.0056219883263111115
1772614978332670700,7.098670654296875,-0.013870319351553917,0.013874605298042297,0.007857335731387138
1772614978342739000,7.108739013671875,-0.008288776502013206,0.020452063530683517,0.021457556635141373
1772614978352807000,7.118806884765625,-0.010663784109055996,0.02535068243741989,0.02642728015780449
1772614978362873900,7.128873779296875,-0.009971441701054573,0.02171616442501545,0.017958885058760643
1772614978372941800,7.13894189453125,-0.008129067718982697,0.0119096077978611,0.011861046776175499
1772614978383008800,7.1490087890625,-0.0057375626638531685,0.0053096795454621315,0.0032447916455566883
1772614978393077000,7.159076904296875,-0.006178582087159157,0.00173598388209939,0.001604817109182477
1772614978403145000,7.16914501953125,-0.005661250092089176,-0.004432045854628086,0.005381732247769833
1772614978413212000,7.1792119140625,-0.0068807112984359264,-0.0025662353727966547,0.008473129943013191
1772614978423279900,7.18927978515625,-0.0067369407042860985,0.0062868609093129635,0.012810448184609413
1772614978433346800,7.199346923828125,-0.012138363905251026,0.009204620495438576,0.012343063950538635
1772614978443414800,7.209414794921875,-0.013013863936066628,0.016459986567497253,0.0007348968647420406
1772614978453482000,7.21948193359375,-0.01320800930261612,0.014073795638978481,-0.0034646419808268547
1772614978463550000,7.229550048828125,-0.015431002713739872,0.004988751374185085,-0.009973753243684769
1772614978473618000,7.239617919921875,-0.021005265414714813,0.004999137949198484,-0.009249106980860233
1772614978483684900,7.249684814453125,-0.026696214452385902,0.007791412062942982,-0.008131548762321472
1772614978493752800,7.2597529296875,-0.02306552790105343,0.010848721489310265,0.0033530667424201965
1772614978503819800,7.26981982421875,-0.010111763142049313,0.008483757264912128,0.01284649595618248
1772614978513888000,7.279887939453125,0.00018348544836044312,0.013326182030141354,0.015333355404436588
1772614978523955700,7.289955810546875,0.002483109477907419,0.00831955298781395,0.014443423599004745
1772614978534023000,7.30002294921875,0.008041659370064735,0.0028736544772982597,0.006041416898369789
1772614978544090600,7.310090576171875,0.012594719417393208,-0.002823496935889125,-0.0010974727338179946
1772614978554157800,7.32015771484375,0.01194490771740675,-0.004442964680492878,-0.009421182796359062
1772614978564225800,7.330225830078125,0.009762248024344444,-0.006836064159870148,-0.011804768815636635
1772614978574294000,7.3402939453125,-0.004484332166612148,-0.00254065147601068,-0.014168856665492058
1772614978584361000,7.35036083984375,-0.00984138436615467,0.0009295775089412928,-0.012322383932769299
1772614978594429000,7.360428955078125,-0.010933279991149902,0.007591474801301956,-0.007953735068440437
1772614978604496100,7.37049609375,-0.007863976992666721,0.010768776759505272,-0.0020661044400185347
1772614978614563800,7.380563720703125,-0.007024016231298447,0.009535733610391617,-0.0003403760492801666
1772614978624632000,7.390632080078125,-0.005026126280426979,0.006604842375963926,0.010136368684470654
1772614978634699000,7.400698974609375,-0.0014990355120971799,0.004210660699754953,0.015475207008421421
1772614978644767000,7.41076708984375,0.0029099343810230494,0.0014429048169404268,0.016377069056034088
1772614978654834000,7.420833984375,0.010501008480787277,-0.0006130554247647524,0.016194641590118408
1772614978664902000,7.43090185546875,0.006711303256452084,-0.006328433286398649,0.014934394508600235
1772614978674969900,7.440969970703125,0.001199092948809266,-0.007246158551424742,0.007673285901546478
1772614978685036800,7.451036865234375,-0.006276477128267288,-0.007183742709457874,0.00101978681050241
1772614978695105000,7.46110498046875,-0.008258667774498463,0.0013290515635162592,-0.010329807177186012
1772614978705172000,7.471171875,-0.008036269806325436,0.008107898756861687,-0.012178485281765461
1772614978715240000,7.481239990234375,-0.003330730367451906,0.007822141982614994,-0.009725181385874748
1772614978725308000,7.491307861328125,-0.0017411832232028246,0.005945160053670406,-0.002120508113875985
1772614978735374800,7.501374755859375,-0.002415229333564639,0.005701480433344841,0.008023738861083984
1772614978745443000,7.511443115234375,-0.0034100916236639023,0.001013167668133974,0.009223963133990765
1772614978755510000,7.521510009765625,-0.0028638774529099464,-0.001452919328585267,0.017668846994638443
1772614978765578000,7.531577880859375,-0.0008895845385268331,-0.008470630273222923,0.016913561150431633
1772614978775646000,7.54164599609375,-0.00002805190160870552,-0.007239450700581074,0.013242393732070923
1772614978785713000,7.551712890625,-0.0011758992914110422,-0.0034802956506609917,0.01238538883626461
1772614978795780900,7.56178076171875,-0.0028515602461993694,0.0017847738927230239,0.008503299206495285
1772614978805848000,7.57184814453125,-0.0033496301621198654,0.0025366966146975756,0.004003044217824936
1772614978815916000,7.581916015625,-0.004391991533339024,0.0027556084096431732,0.006753557361662388
1772614978825983000,7.59198291015625,-0.011245738714933395,0.0026561557315289974,0.005748600699007511
1772614978836051000,7.602051025390625,-0.011565584689378738,-0.0025220944080501795,0.005098522640764713
1772614978846119000,7.612118896484375,-0.011511668562889099,-0.004244211595505476,0.002101647201925516
1772614978856185900,7.622185791015625,-0.0058007859624922276,-0.007299123331904411,0.002422025427222252
1772614978866254000,7.632254150390625,-0.004424025304615498,-0.011319879442453384,-0.0030975823756307364
1772614978876321000,7.642321044921875,-0.0016476798336952925,-0.016680289059877396,0.0014747988898307085
1772614978886389000,7.652388916015625,0.003416494932025671,-0.01930988021194935,0.007585171144455671
1772614978896457000,7.66245703125,0.009741502813994884,-0.01967073790729046,0.01680503413081169
1772614978906524000,7.67252392578125,0.011818080209195614,-0.021147459745407104,0.01791590079665184
1772614978916592000,7.682592041015625,0.009407918900251389,-0.0173812173306942,0.018292205408215523
1772614978926659000,7.6926591796875,-0.0010559255024418235,-0.017286958172917366,0.016782382503151894
1772614978936727000,7.70272705078125,-0.012880360707640648,-0.010781655088067055,0.012176178395748138
1772614978946795000,7.712794921875,-0.017857128754258156,-0.009910950437188148,0.00746693043038249
1772614978956862000,7.722862060546875,-0.017675502225756645,-0.011421228758990765,-0.005080552771687508
1772614978966930000,7.732929931640625,-0.009701130911707878,-0.008345862850546837,-0.006722491700202227
1772614978976996900,7.742996826171875,-0.007053683511912823,-0.01101008988916874,-0.006060163490474224
1772614978987065000,7.753065185546875,-0.004313796758651733,-0.010349657386541367,0.0035901081282645464
1772614978997133000,7.763133056640625,0.003839737270027399,-0.012072456069290638,0.002582101384177804
1772614979007200000,7.773199951171875,0.005599196068942547,-0.013839181512594223,0.007781935855746269
1772614979017268000,7.78326806640625,-0.0004909206181764603,-0.00940235611051321,0.0051744356751441956
1772614979027335000,7.7933349609375,-0.00804910622537136,-0.006786298006772995,0.006132000125944614
1772614979037403100,7.803403076171875,-0.002898819511756301,-0.009127750061452389,0.001784655498340726
1772614979047471000,7.81347119140625,0.006118950434029102,-0.008267232216894627,-0.004778534173965454
1772614979057538000,7.8235380859375,0.0077402833849191666,-0.014616473577916622,-0.021794002503156662
1772614979067606000,7.83360595703125,0.009262947365641594,-0.013433000072836876,-0.031108565628528595
1772614979077673000,7.8436728515625,0.007286349311470985,-0.015195745974779129,-0.027264559641480446
1772614979087741000,7.853740966796875,0.009436423890292645,-0.01317194290459156,-0.016972390934824944
1772614979097809200,7.86380908203125,0.012050050310790539,-0.008776928298175335,-0.006590057630091906
1772614979107876000,7.8738759765625,0.009649822488427162,-0.012684149667620659,0.01157362014055252
1772614979117944000,7.883944091796875,0.00885140709578991,-0.013207193464040756,0.02389366924762726
1772614979128011000,7.894010986328125,0.005995152983814478,-0.012395614758133888,0.020129382610321045
1772614979138079000,7.904078857421875,0.0002477853558957577,-0.0056210653856396675,0.013081061653792858
1772614979148146000,7.91414599609375,-0.00063546490855515,-0.0021026143804192543,0.0036449283361434937
1772614979158214100,7.924214111328125,0.0006665545515716076,-0.007050767075270414,-0.0014086862793192267
1772614979168282000,7.9342822265625,0.0001366116339340806,-0.0037902917247265577,-0.00017027533613145351
1772614979178349000,7.94434912109375,-0.0033326882403343916,0.0025823863688856363,-0.0018107825890183449
1772614979188417000,7.9544169921875,-0.006325867958366871,0.0070156194269657135,0.00038841948844492435
1772614979198484000,7.96448388671875,-0.008015910163521767,0.007915501482784748,-0.0033828828018158674
1772614979208552200,7.97455224609375,-0.003913923166692257,0.004311878699809313,0.003450180171057582
1772614979218620200,7.9846201171875,0.005703018046915531,-0.002153743989765644,0.0014959524851292372
1772614979228687000,7.99468701171875,0.013061506673693657,-0.004115874879062176,-0.0022265580482780933
1772614979238755000,8.004755126953125,0.010712065733969212,-0.003363265423104167,-0.00447826087474823
1772614979248822000,8.014822021484376,0.003983920440077782,0.002379520796239376,-0.006121791899204254
1772614979258890000,8.024889892578125,-0.006757406983524561,0.0036077708937227726,-0.008930095471441746
1772614979268958200,8.034958251953125,-0.01315233577042818,0.011800335720181465,-0.007349795661866665
1772614979279025200,8.045025146484376,-0.011464690789580345,0.012830712832510471,-0.008089356124401093
1772614979289093000,8.055093017578125,-0.003816105192527175,0.007737602107226849,-0.00022543908562511206
1772614979299160000,8.06516015625,-0.0030054389499127865,0.005533304065465927,0.0018544895574450493
1772614979309228000,8.07522802734375,0.0014146366156637669,0.002792275743559003,0.002933864016085863
1772614979319296000,8.0852958984375,-0.0007089681457728148,0.00264713354408741,0.0009756418876349926
1772614979329363200,8.09536328125,-0.004095443524420261,0.005842464976012707,0.005199991166591644
1772614979339431200,8.10543115234375,-0.0017838196363300085,0.011676652356982231,0.0038636166136711836
1772614979349498000,8.115498046875,-0.0017738738097250462,0.015280356630682945,0.011846117675304413
1772614979359566000,8.125566162109376,0.0005856869975104928,0.016367191448807716,0.012718303129076958
1772614979369633800,8.1356337890625,0.00186344503890723,0.01953159272670746,0.013830665498971939
1772614979379701000,8.145700927734374,-0.000292916432954371,0.018083365634083748,0.01630394347012043
1772614979389769000,8.15576904296875,-0.0015551447868347168,0.013825910165905952,0.011427314952015877
1772614979399836200,8.165836181640625,-0.000014506164006888866,0.010175781324505806,0.0072370972484350204
1772614979409904000,8.175904052734374,-0.003177663078531623,0.005975418724119663,0.006793615408241749
1772614979419971800,8.185971923828125,-0.007862430065870285,0.0006786577869206667,0.006796278990805149
1772614979430039000,8.1960390625,-0.008353612385690212,-0.0002962416037917137,0.006154787261039019
1772614979440107000,8.20610693359375,-0.003844081424176693,0.003379186848178506,0.0034133289009332657
1772614979450174200,8.21617431640625,-0.0003821322461590171,0.0058410800993442535,-0.002847646828740835
1772614979460242000,8.226241943359375,0.0027281735092401505,0.009986289776861668,-0.003127545118331909
1772614979470310000,8.236309814453126,0.006254184991121292,0.005108895245939493,-0.003921031951904297
1772614979480376800,8.246376953125,0.007709869183599949,0.004355486948043108,-0.008715520612895489
1772614979490444800,8.25644482421875,0.008494625799357891,0.005213921424001455,-0.0023131377529352903
1772614979500512000,8.266511962890625,0.007459187880158424,0.0008868174627423286,0.001493052113801241
1772614979510580000,8.276580078125,0.000397641328163445,-0.0009371975902467966,0.003218767698854208
1772614979520648000,8.28664794921875,-0.006000337190926075,0.008453641086816788,0.0031340792775154114
1772614979530715000,8.29671484375,-0.012218724936246872,0.009183065965771675,0.0064345188438892365
1772614979540782800,8.306782958984375,-0.011709794402122498,0.007368122227489948,0.009843897074460983
1772614979550849800,8.316849853515626,-0.00660242373123765,0.0038601569831371307,0.010465840809047222
1772614979560918000,8.32691796875,-0.0016691843047738075,0.005444471724331379,0.010104715824127197
1772614979570985200,8.336985107421874,0.008061446249485016,0.005339308641850948,0.007694516330957413
1772614979581052400,8.347052490234375,0.01052673440426588,-0.003098118817433715,0.007601838558912277
1772614979591120100,8.3571201171875,0.010314001701772213,-0.00515581201761961,0.0028246953152120113
1772614979601187300,8.367187255859376,0.004137598443776369,-0.001572528388351202,-0.0012004062300547957
1772614979611255300,8.37725537109375,0.005781115964055061,-0.009795399382710457,-0.005488777533173561
1772614979621322200,8.387322265625,0.0009898229036480188,-0.01071179285645485,-0.00527093093842268
1772614979631390200,8.39739013671875,-0.0002545529277995229,-0.00560769671574235,-0.005731143988668919
1772614979641458200,8.407458251953125,-0.004134512506425381,-0.005261485930532217,-0.004268535878509283
1772614979651525400,8.417525390625,-0.0034887604415416718,-0.00517635140568018,0.001499347621574998
1772614979661593000,8.427593017578126,-0.0026000638026744127,-0.001799463527277112,0.003824020968750119
1772614979671660300,8.437660400390625,0.00769145367667079,-0.005032205954194069,0.006992164999246597
1772614979681728300,8.447728271484374,0.009885632432997227,-0.011582782492041588,0.0086672930046916
1772614979691796200,8.457796142578125,0.009674139320850372,-0.01693985052406788,0.006158643402159214
1772614979701863200,8.46786328125,0.00767170824110508,-0.017021875828504562,0.003682703012600541
1772614979711931100,8.47793115234375,0.013070626184344292,-0.012903828173875809,0.0011726059019565582
1772614979721998300,8.487998291015625,0.007975999265909195,-0.01411343552172184,-0.002729457803070545
1772614979732066000,8.498066162109374,0.0038252905942499638,-0.011070521548390388,-0.00358568225055933
1772614979742134300,8.50813427734375,0.0003011294174939394,-0.012011682614684105,-0.009536782279610634
1772614979752201200,8.518201171875,-0.004241530783474445,-0.00687831174582243,-0.007640770170837641
1772614979762269200,8.528269287109374,-0.0008758277399465442,-0.009896738454699516,-0.007355013396590948
1772614979772336000,8.538336181640625,0.00010334851685911417,-0.010238103568553925,-0.00574609637260437
1772614979782404000,8.548404052734375,0.004666408523917198,-0.014924466609954834,-0.000734293251298368
1772614979792472300,8.558472412109374,0.006949378177523613,-0.017656873911619186,-0.005781713407486677
1772614979802539300,8.568539306640625,0.010882334783673286,-0.02014373242855072,-0.008563918061554432
1772614979812607200,8.578607177734375,0.017433686181902885,-0.018352990970015526,-0.019133780151605606
1772614979822674200,8.588674072265626,0.014005133882164955,-0.021822290495038033,-0.022929849103093147
1772614979832742100,8.5987421875,0.003569492604583502,-0.022330403327941895,-0.021107036620378494
1772614979842810000,8.60881005859375,-0.0048868427984416485,-0.01499019842594862,-0.013831814751029015
1772614979852877300,8.618877197265626,-0.00032524613197892904,-0.015738509595394135,-0.0005723155336454511
1772614979862945300,8.6289453125,-0.0015457727713510394,-0.011458277702331543,0.013242300599813461
1772614979873012200,8.63901220703125,-0.007224150933325291,-0.009485396556556225,0.030096201226115227
1772614979883080200,8.649080078125,-0.00406297855079174,-0.008508549071848392,0.03035932220518589
1772614979893148200,8.659148193359375,-0.0028173797763884068,-0.011179846711456776,0.02535279653966427
1772614979903215000,8.669215087890626,-0.002428558422252536,-0.0064434148371219635,0.01658700220286846
1772614979913283300,8.679283447265625,-0.00005175406113266945,-0.0027498945128172636,0.00441135186702013
1772614979923350300,8.689350341796874,-0.0015042420709505677,-0.0017011414747685194,-0.00792307872325182
1772614979933418200,8.699418212890626,-0.008183514699339867,-0.0017314471770077944,-0.014449325390160084
1772614979943486200,8.709486328125,-0.014589216560125351,-0.005589036270976067,-0.014899932779371738
1772614979953553200,8.71955322265625,-0.01885240711271763,-0.003974167164415121,-0.015297050587832928
1772614979963621400,8.729621337890626,-0.009344654157757759,-0.004448209889233112,-0.01822652667760849
1772614979973688300,8.739688232421875,-0.011692829430103302,-0.0038415587041527033,-0.017959892749786377
1772614979983756300,8.74975634765625,-0.011463531292974949,-0.006229881197214127,-0.02045101299881935
1772614979993824300,8.75982421875,-0.006372073665261269,-0.00379578466527164,-0.017536673694849014
1772614980003891200,8.76989111328125,-0.002346706110984087,-0.005862397141754627,-0.007150611374527216
1772614980013959200,8.779959228515626,-0.003765317378565669,-0.0027940375730395317,-0.00026204565074294806
1772614980024026000,8.790026123046875,0.0009074648842215538,-0.003229730762541294,0.012116859667003155
1772614980034094300,8.80009423828125,-0.0034208125434815884,-0.0021056081168353558,0.013854769989848137
1772614980044162300,8.810162353515626,-0.007036852650344372,0.006135277450084686,0.01339271105825901
1772614980054229200,8.820229248046875,-0.007443609647452831,0.00769830122590065,0.008416077122092247
1772614980064297200,8.830297119140624,0.0005685103824362159,0.003804227337241173,0.005767297465354204
1772614980074364200,8.8403642578125,0.0030880081467330456,-0.00010989862494170666,-0.0047318884171545506
1772614980084432400,8.850432373046875,0.0022136925254017115,-0.0032955720089375973,-0.010265670716762543
1772614980094499300,8.860499267578126,0.004958331119269133,-0.0012099372688680887,-0.005986408330500126
1772614980104567300,8.8705673828125,0.004991886671632528,-0.0019444373901933432,-0.000689381267875433
1772614980114635300,8.88063525390625,-0.0002459235256537795,-0.004396156873553991,0.00402306392788887
1772614980124702200,8.8907021484375,-0.0073613571003079414,-0.003159917425364256,0.007847628556191921
1772614980134770200,8.900770263671875,-0.015093940310180187,-0.0014568122569471598,-0.0006600863998755813
1772614980144838400,8.91083837890625,-0.024776393547654152,0.005343036726117134,-0.008215473964810371
1772614980154905300,8.9209052734375,-0.029548659920692444,0.0064529250375926495,-0.01602601259946823
1772614980164973300,8.930973388671875,-0.025508644059300423,0.006761851720511913,-0.018338968977332115
1772614980175040300,8.941040283203124,-0.01914067566394806,0.005869192071259022,-0.016096297651529312
1772614980185108200,8.951108154296875,-0.008580442517995834,0.005123507231473923,-0.010801666416227818
1772614980195175200,8.961175048828125,0.00022605375852435827,0.0001101240050047636,-0.009002020582556725
1772614980205243400,8.971243408203126,0.004592305980622768,-0.0030132310930639505,-0.009715748019516468
1772614980215311400,8.981311279296875,0.0064137219451367855,-0.007709616795182228,-0.007833883166313171
1772614980225378300,8.99137841796875,0.004248039331287146,-0.002684231149032712,-0.010625142604112625
1772614980235446300,9.0014462890625,-0.0024036976974457502,-0.003550241468474269,-0.007630246691405773
1772614980245513200,9.01151318359375,-0.008064779452979565,-0.0006913377437740564,0.003174197394400835
1772614980255581400,9.02158154296875,-0.011718450114130974,-0.001824612496420741,0.022233566269278526
1772614980265649400,9.0316494140625,-0.006742067169398069,-0.004057406447827816,0.029399333521723747
1772614980275716400,9.04171630859375,-0.002023877575993538,-0.003689854871481657,0.02703939564526081
1772614980285784300,9.051784423828124,0.001917600748129189,-0.013194410130381584,0.022361285984516144
1772614980295851300,9.061851318359375,0.009769678115844727,-0.02168715000152588,0.021358737722039223
1772614980305919200,9.071919189453125,0.011579295620322227,-0.031209547072649002,0.00840858556330204
1772614980315987500,9.081987548828126,0.014622357673943043,-0.03363092988729477,0.00028738565742969513
1772614980326054400,9.092054443359375,0.011589284054934978,-0.03350576013326645,-0.008030997589230537
1772614980336122400,9.102122314453124,0.0057214065454900265,-0.03258560225367546,0.016183950006961823
1772614980346189300,9.112189208984375,0.004786104429513216,-0.06282127648591995,0.055674366652965546
1772614980356257300,9.12225732421875,0.012099334970116615,-0.024570990353822708,0.012867657467722893
1772614980366325500,9.132325439453124,0.018242979422211647,0.02252861112356186,-0.02806912176311016
1772614980376392400,9.142392333984375,0.010092120617628098,-0.013889963738620281,-0.056230273097753525
1772614980386460400,9.15246044921875,0.0005572047084569931,-0.026218270882964134,-0.07115648686885834
1772614980396527400,9.16252734375,0.0048742033541202545,-0.02802354283630848,-0.08241221308708191
1772614980406595300,9.17259521484375,0.007487297058105469,-0.021630890667438507,-0.07446267455816269
1772614980416663300,9.182663330078125,0.005052741151303053,-0.022787967696785927,-0.04125747084617615
1772614980426730200,9.192730224609376,0.002830865792930126,-0.012542522512376308,-0.002535107545554638
1772614980436798200,9.202798095703125,0.005037800408899784,-0.007594265975058079,0.02361074648797512
1772614980446865400,9.212865478515624,0.004695317707955837,-0.006074666045606136,0.05293614789843559
1772614980456933400,9.222933349609375,0.003940097987651825,-0.0083259716629982,0.07916378974914551
1772614980467001000,9.2330009765625,0.006710052490234375,-0.007414371706545353,0.0853995829820633
