time,seconds_elapsed,z,y,x
1772615956464561400,0.0685615234375,0.42742111043930053,-0.6375912165731191,0.13816943041458726
1772615956474629600,0.078629638671875,0.4980851307272911,-0.6828758809328079,0.2740923970766365
1772615956484697600,0.088697509765625,0.4940092595905065,-0.7170692424356937,0.34843601919282224
1772615956494765600,0.098765625,0.3911544497936964,-0.830582224369049,0.31638609945941715
1772615956504833500,0.10883349609375,0.13270984983444212,-0.8937889143884181,0.127272444553487
1772615956514901800,0.11890185546875,-0.30287235522866246,-0.8788409361034631,-0.28206805213093755
1772615956524969500,0.128969482421875,-0.8203256187707185,-0.7754220626831054,-0.8056206554614007
1772615956535037400,0.139037353515625,-1.2596890959382057,-0.561197128200531,-1.1518430537253617
1772615956545106700,0.149106689453125,-1.5139619631707668,-0.29627777926921844,-1.1859778169088064
1772615956555174700,0.159174560546875,-1.5071137047111987,0.038970074385404584,-1.051563793504983
1772615956565242600,0.16924267578125,-1.2530354832679031,0.4491916282206774,-0.8490359457526355
1772615956575310600,0.179310546875,-0.7519839039504528,0.7805810528814792,-0.46144364541992544
1772615956585378600,0.189378662109375,-0.12011223406791686,0.869868525096774,0.07638955832794309
1772615956595446500,0.199446533203125,0.48722003784179685,0.851466606965661,0.4542858826197684
1772615956605514500,0.209514404296875,0.9724778356999159,0.8252163134217262,0.5901060099618509
1772615956615582500,0.21958251953125,1.3103612985551356,0.7056652203679085,0.49140382633246477
1772615956625650700,0.229650634765625,1.5146242264717817,0.48587797558307644,0.30124391377661375
1772615956635718700,0.23971875,1.552757265511155,0.22157003654837606,0.0831992748754099
1772615956645786600,0.24978662109375,1.378845636716485,0.04665361462533474,-0.15148436413761227
1772615956655854300,0.259854248046875,1.038222519764304,-0.05091828633248806,-0.22425397840272634
1772615956665923600,0.269923583984375,0.6029933659225702,-0.17382102790176868,-0.1359635909333825
1772615956675991600,0.279991455078125,0.12544599631130696,-0.18171207341253756,-0.0359566083157435
1772615956686059500,0.2900595703125,-0.3482277467370033,-0.06709960580468177,0.042266960506327445
1772615956696127700,0.300127685546875,-0.736261434161663,-0.016674655947089195,0.06622315176371485
1772615956706195700,0.31019580078125,-0.9018506402909755,0.0672206018358469,-0.01614683268070221
1772615956716263400,0.320263427734375,-0.917114844918251,0.3176666042566299,0.10688616593843325
1772615956726331400,0.330331298828125,-1.0545850410223006,0.4352548728048801,0.3851900614965707
1772615956736399600,0.340399658203125,-1.120419156935811,0.5826940897375344,0.5968961450260132
1772615956746467600,0.350467529296875,-1.1357096650481224,0.6429723250895738,0.7953507519900799
1772615956756535600,0.36053564453125,-1.1413017859667538,0.7334726802259683,0.9096119950074701
1772615956766603500,0.370603515625,-1.1193179176956414,0.8030056506574154,0.974196183925122
1772615956776671700,0.380671630859375,-1.0431804344326256,0.8133774070680141,1.0176381430275738
1772615956786739700,0.39073974609375,-0.9016355362355708,0.8235796521306037,1.0658688707765192
1772615956796808400,0.400808349609375,-0.7569955946326256,0.78908409281075,1.10058662147969
1772615956806877000,0.410876953125,-0.6497668075352907,0.7394739664673805,1.1349611847683787
1772615956816945000,0.42094482421875,-0.66317749325037,0.6322095235347748,1.135507128213346
1772615956827013000,0.43101318359375,-0.7890121966183186,0.4746089780718088,1.0306889824543148
1772615956837080800,0.441080810546875,-0.9329752618730067,0.37299627729058266,0.7922281629901379
1772615956847148800,0.451148681640625,-1.0698767181783915,0.336959918269515,0.5265478396236897
1772615956857216800,0.461216796875,-1.1645242561221123,0.26942016748189923,0.3508401942577213
1772615956867285000,0.471284912109375,-1.1948872456818818,0.17195757211744783,0.25402102962965145
1772615956877353000,0.48135302734375,-1.1869161206722258,0.12527063974440097,0.20398970046583562
1772615956887421000,0.4914208984375,-1.184375788539648,0.12985972110033034,0.1727718659087084
1772615956897489000,0.501489013671875,-1.119609594118595,0.17929624444246292,0.10450005625318735
1772615956907557000,0.51155712890625,-1.019675055682659,0.22684768469035624,-0.0016625446510501205
1772615956917625900,0.5216259765625,-0.7923544927835464,0.2944645923674106,-0.07387642472954467
1772615956927693800,0.53169384765625,-0.4467325446307659,0.3662795362561941,-0.03498929765354842
1772615956937762000,0.541761962890625,-0.060358314850926395,0.3856242881953716,0.14193391578095033
1772615956947830000,0.551830078125,0.3263818256318569,0.39946635106503964,0.28475436860546466
1772615956957898000,0.56189794921875,0.7075052952766419,0.4609042778462171,0.36021183371506627
1772615956967966000,0.571966064453125,1.0778683014541863,0.476591091799736,0.4448599556919187
1772615956978034000,0.582033935546875,1.326699854415655,0.40403029797971246,0.4941339819487184
1772615956988102000,0.592101806640625,1.45034084713161,0.31402327931821344,0.4602491018731147
1772615956998169900,0.602169921875,1.5033300945192574,0.1997743843257427,0.41270617372523993
1772615957008237800,0.61223779296875,1.4958786094695329,0.10651157873868941,0.38442225546184927
1772615957018306000,0.62230615234375,1.3631775274634361,0.05434650721549988,0.42536973086744545
1772615957028374000,0.6323740234375,1.149284016892314,0.018136545193195342,0.5854963607419282
1772615957038442800,0.64244287109375,0.8036790198743343,-0.019890110862255096,0.7666877712812274
1772615957048511000,0.652510986328125,0.33058453801870347,-0.015347206735610961,0.8055926714759319
1772615957058579000,0.662578857421875,-0.18356150067150592,0.026862287962436674,0.6955798796832561
1772615957068647000,0.67264697265625,-0.674828183555603,0.03779693895280361,0.5361212852634489
1772615957078715000,0.68271484375,-1.0839186875343323,0.06552841096520423,0.4161426144473254
1772615957088783000,0.692783203125,-1.3500526729524134,0.11714578547775745,0.32180290034376086
1772615957098851000,0.70285107421875,-1.4461352121353148,0.190040341296792,0.3068007076535374
1772615957108918800,0.712918701171875,-1.345609137547016,0.24464228457808493,0.3862883781272918
1772615957118986800,0.72298681640625,-1.1036235049575567,0.24204350025653837,0.5425962534312159
1772615957129055000,0.733054931640625,-0.7946440650254487,0.2389011105775833,0.6683906978540122
1772615957139123000,0.743123046875,-0.47990825352370736,0.2202268052458763,0.6969315134879202
1772615957149191000,0.75319091796875,-0.2309364153087139,0.15590543198287485,0.6692801940396428
1772615957159260200,0.76326025390625,-0.0060404492080211635,0.10058043512403965,0.6264353240475058
1772615957169327900,0.773327880859375,0.14227847316861153,0.05603285286724567,0.5923720186650753
1772615957179395800,0.783395751953125,0.1978045455574989,0.023956045126914977,0.5824714964954182
1772615957189463800,0.7934638671875,0.15608897185623644,0.012103110247850418,0.522010342324525
1772615957199532000,0.803531982421875,0.07350655023753642,0.021135727009177208,0.4783220072455704
1772615957209600000,0.81360009765625,-0.02319558214843273,0.002152209597826004,0.4733695359373465
1772615957219668000,0.82366796875,-0.14311317042708396,-0.09216741156578064,0.3995959687940776
1772615957229736000,0.83373583984375,-0.2586474290549755,-0.14898293924331665,0.28582534057153386
1772615957239804000,0.843803955078125,-0.3109773357510566,-0.23926176058351992,0.2147990811087191
1772615957249872000,0.853871826171875,-0.31684593552351,-0.3269312762081623,0.12600474443892015
1772615957259939800,0.86393994140625,-0.25966449714303014,-0.3574000642299652,0.025101982025336474
1772615957270007800,0.8740078125,-0.13200316286981106,-0.3722562725782394,0.01301070834575221
1772615957280076000,0.884075927734375,0.014539397484064102,-0.42712475784122944,0.06719988784138113
1772615957290145000,0.89414501953125,0.14455109427571297,-0.45533553780317304,0.07131941545680165
1772615957300212700,0.904212646484375,0.20733225235939023,-0.458424151468277,-0.033073965551517905
1772615957310281000,0.914281005859375,0.2099707841694355,-0.43575113188922404,-0.18345087990388273
1772615957320349000,0.924348876953125,0.19694354481399057,-0.39183074162006376,-0.2822298733628355
1772615957330417000,0.9344169921875,0.225149064078927,-0.3703571609586477,-0.21555455738482995
1772615957340484900,0.94448486328125,0.23340017507374286,-0.40037411355972286,0.004743267270643264
1772615957350553000,0.954552978515625,0.3037473844975233,-0.39296880573928356,0.29940650574900207
1772615957360621000,0.96462109375,0.3677905253410339,-0.4410784643918276,0.6066079762231559
1772615957370689000,0.97468896484375,0.3970785791456699,-0.5582669199675321,0.6883866071783006
1772615957380756700,0.9847568359375,0.367324076873064,-0.6727250737965107,0.4919318687945604
1772615957390825000,0.994824951171875,0.2484767481744289,-0.8018354378342628,0.1721247088452801
1772615957400893000,1.004892822265625,0.06753916626572609,-0.8509376146554947,-0.07948419987503438
1772615957410962000,1.0149619140625,-0.11179507209956645,-0.8451847502171993,-0.17439482746804133
1772615957421030100,1.025030029296875,-0.2488303839176893,-0.8081921133846044,-0.17175804922366514
1772615957431098000,1.03509814453125,-0.41227381018996234,-0.7323854695111512,-0.16802275341916828
1772615957441165800,1.045165771484375,-0.6086760877341032,-0.5819195982336998,-0.29024273688867686
1772615957451233800,1.05523388671875,-0.7600152347147464,-0.3777209677249193,-0.4003515364017337
1772615957461302000,1.065302001953125,-0.8914613482236862,-0.1699555846452713,-0.3641275458540767
1772615957471370000,1.075369873046875,-0.9417062653392553,-0.008059972336888313,-0.20880484566260127
1772615957481438000,1.08543798828125,-0.8779290819555521,0.18698504537940025,-0.044098865808336996
1772615957491506000,1.095505859375,-0.7603121718347072,0.39268940427601334,0.06273957939769606
1772615957501574100,1.10557421875,-0.6565817482471465,0.5310597640901804,0.19829702351586892
1772615957511641900,1.115641845703125,-0.5282733482420444,0.6485638614863157,0.2606651986181736
1772615957521709800,1.125709716796875,-0.3340156815111637,0.7975707661271095,0.21005641662627458
1772615957531779000,1.135779052734375,-0.17813479944765567,0.8863444436013698,0.19905684717353433
1772615957541847000,1.145846923828125,0.004729951131343842,0.9414128353506326,0.22202095865365115
1772615957551915000,1.1559150390625,0.216892692387104,0.9877695128560066,0.2035990389141254
1772615957561983000,1.16598291015625,0.3559516189873218,0.9606155484706163,0.10505497758905402
1772615957572051000,1.176051025390625,0.4493108706861734,0.8898667725086211,-0.05389445716564078
1772615957582119000,1.186118896484375,0.5616740980625152,0.8001461695730686,-0.25182236880790443
1772615957592187000,1.196186767578125,0.6627011079102754,0.6863461873918771,-0.401231570639275
1772615957602254800,1.2062548828125,0.7226034956872462,0.6259247441768646,-0.4185335281718522
1772615957612323000,1.216322998046875,0.7513005978614091,0.6492050819993018,-0.3279376767717302
1772615957622391000,1.22639111328125,0.6923749461621046,0.6777443632632494,-0.16476872005928306
1772615957632459000,1.236458984375,0.44568449688255785,0.7161725858569145,0.05290052792457863
1772615957642527000,1.24652685546875,0.22906185360848902,0.8728659533470868,0.17923616655198857
1772615957652596000,1.256595947265625,-0.0277151053994894,0.9368068028599024,0.2677262961108237
1772615957662664000,1.266663818359375,-0.294415492528677,0.9921393985033035,0.30621218544216827
1772615957672732000,1.27673193359375,-0.461094831982255,0.9846738849282264,0.356828840213269
1772615957682800000,1.286800048828125,-0.5100122998863459,0.8780898254752159,0.3625505057957023
1772615957692868000,1.2968681640625,-0.450639488941431,0.7851420771867036,0.30276885832156986
1772615957702935800,1.306935791015625,-0.31143092473745343,0.5811515364706515,0.2618288173037581
1772615957713003800,1.317003662109375,-0.2042716957449913,0.3183873197466135,0.17128610259667038
1772615957723072000,1.327072021484375,-0.07995908737778663,0.19122341360151768,-0.0300002937272191
1772615957733140000,1.337139892578125,-0.015368834045529365,0.07053542547225952,-0.07289877533642575
1772615957743208000,1.3472080078125,-0.11083645620048045,-0.13121288927495478,-0.0038271388064138588
1772615957753276000,1.35727587890625,-0.2331318795263767,-0.24194471605718135,-0.051729401785973454
1772615957763344100,1.36734423828125,-0.3212754424035549,-0.32819267444610595,-0.27224201996959746
1772615957773412000,1.377412109375,-0.34215397978127,-0.3842869021117687,-0.4590335886035114
1772615957783480800,1.387480712890625,-0.34798984632790086,-0.49916240456998345,-0.5260175321392715
1772615957793549000,1.397549072265625,-0.35020050811469555,-0.5599117645651102,-0.5734838513869792
1772615957803616800,1.40761669921875,-0.2701186711400747,-0.49393034913539885,-0.611058014434576
1772615957813684700,1.417684814453125,-0.1697942566037178,-0.41487376355528827,-0.5062579888541251
1772615957823752700,1.427752685546875,-0.05071721080243587,-0.30848084276020526,-0.29461744484156366
1772615957833821000,1.437821044921875,0.11664601926207542,-0.13525018196702002,-0.034723961248248815
1772615957843888600,1.447888671875,0.2441600540190935,-0.014126725029945372,0.20454499626103786
1772615957853956600,1.45795654296875,0.3034165451079607,0.1692407143741846,0.38330030222721395
1772615957864024600,1.468024658203125,0.31511341264247894,0.3199947549432516,0.4763979803804308
1772615957874092800,1.4780927734375,0.2925543748319149,0.4320248048424721,0.4891805607924238
1772615957884160800,1.488160888671875,0.3060088996887207,0.5023527250438928,0.44573308526463806
1772615957894228700,1.498228759765625,0.38981940179765223,0.4900567225724458,0.4380047560349107
1772615957904296700,1.508296630859375,0.5531996997058392,0.4730395367980003,0.4629285136828199
1772615957914365700,1.51836572265625,0.7096721179217099,0.3635252691119909,0.41871622779499734
1772615957924433700,1.52843359375,0.8555658589780331,0.24055472300350664,0.2900185179450549
1772615957934501600,1.538501708984375,0.956606312829256,0.10047112953066825,0.1569374601780437
1772615957944569900,1.54856982421875,0.9832494050830602,-0.05881751514971256,0.046770181076554576
1772615957954637800,1.558637939453125,0.9001233781069516,-0.2691641468942165,-0.09089386623231693
1772615957964705800,1.568705810546875,0.7014911495536565,-0.397863592043519,-0.28780922613143917
1772615957974773800,1.578773681640625,0.4737503154158592,-0.49701370210349555,-0.4424884042549878
1772615957984841700,1.588841796875,0.3593430149912834,-0.6303747093230485,-0.5153141326215118
1772615957994909700,1.59890966796875,0.32680385043621063,-0.7370318340122699,-0.5414866847541183
1772615958004977700,1.608977783203125,0.2680494636505842,-0.8135328898906707,-0.5862525859367103
1772615958015045600,1.619045654296875,0.263377964708209,-0.803601278463006,-0.5722722471075132
1772615958025113900,1.62911376953125,0.27140345025360585,-0.8294739708662032,-0.4776930251596495
1772615958035182600,1.6391826171875,0.29455519326031204,-0.7878823158055543,-0.4241531946845352
1772615958045250600,1.64925048828125,0.35088498324751854,-0.6858212867349386,-0.36949148404002186
1772615958055318800,1.65931884765625,0.4061152875602245,-0.5875666642099618,-0.27719818107224997
1772615958065386800,1.66938671875,0.4526122503191232,-0.4810217677235603,-0.20180877623017876
1772615958075454700,1.679454833984375,0.5592290429979563,-0.3675345047533512,-0.09546875466611236
1772615958085522700,1.689522705078125,0.6736603088200092,-0.324544673332572,0.06306775647271425
1772615958095591000,1.6995908203125,0.7645873649358749,-0.2855161467581987,0.18062179395779968
1772615958105659000,1.709658935546875,0.8043757699668407,-0.23646716142892837,0.2094341930747032
1772615958115726600,1.7197265625,0.783570882347226,-0.22213819182515143,0.2407387743335217
1772615958125794600,1.729794677734375,0.7597913628309965,-0.22819909929931162,0.24854356633294372
1772615958135862800,1.73986279296875,0.7391109783738851,-0.2033908212572336,0.2320571264343336
1772615958145930800,1.7499306640625,0.7081617133587599,-0.1692103192359209,0.24236955387312917
1772615958155998700,1.759998779296875,0.7039443879246712,-0.18340894045829773,0.26899142067581416
1772615958166067700,1.770067626953125,0.7514356224179267,-0.21951485758423803,0.2896758237209171
1772615958176135700,1.7801357421875,0.8050082226514815,-0.20931027443408964,0.3488286352396011
1772615958186203600,1.79020361328125,0.8306365849047899,-0.3022475013285875,0.44359636549688874
1772615958196271600,1.800271728515625,0.7885714671134948,-0.40231355718970296,0.5209508598668501
1772615958206339800,1.81033984375,0.6989362043738365,-0.47243280307650565,0.5039704259062185
1772615958216407800,1.82040771484375,0.5308060815900564,-0.5187964948445558,0.42058669784199443
1772615958226475800,1.830475830078125,0.30404841327071186,-0.5682517228871583,0.3125152128428221
1772615958236543700,1.840543701171875,0.1253220776706934,-0.6141752696722745,0.24452053962824866
1772615958246611700,1.85061181640625,-0.006229249778389931,-0.6126005677014589,0.30957444668319073
1772615958256679700,1.8606796875,0.021305822879076,-0.6202852769851684,0.4555117711529135
1772615958266747600,1.87074755859375,0.014826982253789901,-0.7929132957100867,0.6391391036022455
1772615958276815600,1.880815673828125,-0.015562310791015624,-0.8708405849993228,0.5010086900237948
1772615958286884900,1.890884765625,-0.09310907633006572,-0.9834802912294864,0.1483631816434674
1772615958296952800,1.900952880859375,-0.21905542337894437,-1.1124696592360734,-0.18501168121350928
1772615958307020500,1.9110205078125,-0.3601613456368446,-1.1727525707632303,-0.43082171266302466
1772615958317088800,1.9210888671875,-0.5400520488411188,-1.1963421206653118,-0.600254369412735
1772615958327156700,1.93115673828125,-0.6158680450648069,-1.1350801349729298,-0.6456636830653995
1772615958337224700,1.941224609375,-0.6751561003357172,-1.0141975010544062,-0.5251705964537338
1772615958347292700,1.951292724609375,-0.7048550730288028,-0.917105492568016,-0.5307352813761681
1772615958357361000,1.96136083984375,-0.6577461158514022,-0.7333674662858247,-0.5249957148108632
1772615958367428900,1.971428955078125,-0.5626251151770353,-0.584283989277482,-0.5588859286487102
1772615958377496800,1.981496826171875,-0.5092202727258205,-0.38123920497894287,-0.5521169825030491
1772615958387564500,1.991564453125,-0.4859451956003904,-0.224610134896636,-0.5916021302711219
1772615958397632800,2.0016328125,-0.46194355776607987,-0.10385375770628452,-0.6320661695413291
1772615958407700700,2.01170068359375,-0.4433785580277443,0.010029811105132102,-0.7678156062673777
1772615958417769700,2.021769775390625,-0.3964683382928371,0.12315700859129428,-0.9013889410633593
1772615958427838000,2.031837890625,-0.32363749535977837,0.1967383776307106,-0.9240719705797731
1772615958437905700,2.04190576171875,-0.20821604945659636,0.322834362283349,-0.8955280131407082
1772615958447973600,2.0519736328125,-0.04210778788924217,0.44713118855953216,-0.8247257534258067
1772615958458041600,2.06204150390625,0.19505495458841324,0.5889911440551281,-0.6444122216995806
1772615958468109800,2.07210986328125,0.43422845236659047,0.7753805616289376,-0.40486941568497564
1772615958478177800,2.082177734375,0.5841214921921491,0.9181886116296052,-0.1673595950690098
1772615958488245800,2.092245849609375,0.6864525703758001,1.0814005672335625,0.0383511022368446
1772615958498313700,2.102313720703125,0.8338006018936633,1.1753443408221005,0.22989196602338924
1772615958508382000,2.1123818359375,0.9171639447569847,1.169935175254941,0.39175164850186556
1772615958518449700,2.12244970703125,0.9011977293401956,1.1361071399331093,0.48596704210601743
1772615958528517600,2.132517578125,0.760577544772625,1.1351941167414188,0.450893171441555
1772615958538587000,2.1425869140625,0.550310992527008,1.1753607074350119,0.37942835616469384
1772615958548654800,2.15265478515625,0.2946925559043884,1.1618038912475108,0.4045591441594064
1772615958558722800,2.162722900390625,0.0034931028127670287,1.1339046614527701,0.4490764774084091
1772615958568790800,2.172790771484375,-0.21346564054787157,1.0487439137786627,0.4600063426258042
1772615958578858800,2.182858642578125,-0.3669675185203552,0.9335521849781274,0.583945404972881
1772615958588926700,2.1929267578125,-0.5193360085487365,0.791855311089754,0.6920127617862075
1772615958598994700,2.20299462890625,-0.6526560992360114,0.6454308241575956,0.7389554955512285
1772615958609062700,2.213062744140625,-0.8133879284620285,0.5381552753090858,0.6618115386594087
1772615958619131000,2.223130859375,-0.9682985041886567,0.40099312224090095,0.557223365731351
1772615958629198800,2.23319873046875,-1.1562521023392676,0.20524492469131944,0.48895299911424517
1772615958639266800,2.243266845703125,-1.3899094670444727,0.07489478972554206,0.37584443326331674
1772615958649334800,2.253334716796875,-1.6319564744323491,-0.023487258571386335,0.2019306490441784
1772615958659402800,2.26340283203125,-1.8560978227734564,-0.04333353029191494,0.027477086259378117
1772615958669470700,2.273470703125,-2.005114664286375,0.005604980400204658,-0.23194135456755757
1772615958679539700,2.283539794921875,-2.0058301190793513,0.1692272703707218,-0.5116216713117435
1772615958689607700,2.293607666015625,-1.8369360261857508,0.36969665122330186,-0.7270104984745382
1772615958699676000,2.303676025390625,-1.4712439344286918,0.6168336752265692,-0.7458473739568143
1772615958709743600,2.31374365234375,-0.9769336460649967,0.7967518509596586,-0.45053032947853205
1772615958719811600,2.3238115234375,-0.33241876770853995,0.8092968597561121,-0.20436280809454618
1772615958729879800,2.3338798828125,0.39794133345484733,0.8290279806643724,-0.0834760825227946
1772615958739947800,2.34394775390625,1.0401578717410565,0.7837199354290961,0.03055170793174766
1772615958750015700,2.354015625,1.5251672477960585,0.7169850712835788,0.14387735059945844
1772615958760083700,2.364083740234375,1.8163836520224808,0.6104197165310382,0.3196619062596932
1772615958770152000,2.37415185546875,1.9072066632419824,0.4519944106817245,0.5019034469064325
1772615958780220000,2.384219970703125,1.8595061699122188,0.3469745318055153,0.6487985470250248
1772615958790287600,2.39428759765625,1.6668074230611323,0.1990127523034811,0.7408664437390864
1772615958800356400,2.4043564453125,1.2714204502642155,0.017025369080901145,0.7451411253836006
1772615958810424600,2.414424560546875,0.7651128501147031,-0.09377133963108063,0.6373763317134231
1772615958820492500,2.424492431640625,0.2141173824548721,-0.12344634692668914,0.4366447927933186
1772615958830560500,2.434560546875,-0.360690337947011,-0.19253624976575373,0.37196813981924204
1772615958840628500,2.44462841796875,-0.7149801612019538,-0.2113292130410671,0.3574547900918871
1772615958850696400,2.454696533203125,-0.9092132780134677,-0.16731588379144668,0.4002233069121837
1772615958860764400,2.464764404296875,-1.0521581061363219,-0.09002163170874118,0.5516832307282835
1772615958870832400,2.474832275390625,-1.1345295153528452,-0.04693710774183273,0.6841050574015826
1772615958880900400,2.484900390625,-1.084545879521966,-0.007592939347028732,0.6827610954467207
1772615958890968600,2.494968505859375,-0.916215850251913,0.02412204934358597,0.5907171641301363
1772615958901036500,2.50503662109375,-0.7017150214374065,0.03129822458326816,0.4256469038410112
1772615958911104500,2.5151044921875,-0.42698797971904273,-0.004765022444725036,0.25389418837958944
1772615958921173200,2.52517333984375,-0.09940729969143867,-0.042811552244424816,0.15357706210054456
1772615958931241500,2.535241455078125,0.24899112743735313,-0.03844634277224541,0.20881456333901732
1772615958941309400,2.545309326171875,0.5761123732596636,-0.08301204520761966,0.35381986765563483
1772615958951377400,2.55537744140625,0.8037707898110151,-0.13953998811542986,0.4731900511845946
1772615958961445400,2.5654453125,0.9734580789089202,-0.17079904973208904,0.5370991538522765
1772615958971513600,2.575513671875,1.0511299321323633,-0.23049919293522833,0.6118983742488547
1772615958981581600,2.58558154296875,1.0174006810098886,-0.3208662770807743,0.6884619374368339
1772615958991649300,2.595649169921875,0.9201444218724966,-0.35528526403307914,0.7001955567851662
1772615959001717200,2.60571728515625,0.8165507764071226,-0.35047406435906886,0.7013266066417098
1772615959011785500,2.615785400390625,0.6656295625776052,-0.36104046655893324,0.7179747399080544
1772615959021853400,2.625853515625,0.4865115973114967,-0.38090427393615245,0.7033123736314475
1772615959031921400,2.63592138671875,0.345617271977663,-0.35831659455299375,0.7017531614907085
1772615959041989600,2.64598974609375,0.2145586964815855,-0.4140840744823217,0.709519630773738
1772615959052058400,2.656058349609375,0.06945815162956714,-0.43150224227309225,0.7153561549074947
1772615959062126300,2.666126220703125,-0.06845043589174747,-0.44554538067281246,0.7280138302981853
1772615959072194300,2.6761943359375,-0.19097265371084213,-0.45784372123181816,0.6894246449891478
1772615959082262500,2.686262451171875,-0.2895429180562496,-0.44728024164140223,0.657289969581738
1772615959092330500,2.69633056640625,-0.2936871782541275,-0.44840193914771076,0.6437029043864458
1772615959102398500,2.7063984375,-0.1895177787274122,-0.4266606474608183,0.6326886122886091
1772615959112466400,2.716466552734375,-0.13431611598730087,-0.47976972183585165,0.796440446922928
1772615959122534400,2.726534423828125,-0.062200143325328826,-0.4737368714123964,0.9035170391332358
1772615959132602400,2.736602294921875,-0.03585223462581634,-0.5452653995752335,0.9972363563161343
1772615959142670300,2.74667041015625,0.031280104404687877,-0.571283053407073,1.0334458068817853
1772615959152738300,2.75673828125,0.07974807497560978,-0.6623521483421325,0.9358521324835717
1772615959162806500,2.766806640625,-0.0033007951110601425,-0.852346896931529,0.6771065037511289
1772615959172874500,2.77687451171875,-0.13007307159006595,-0.9100719406694173,0.37639483368769283
1772615959182943200,2.786943115234375,-0.2908107460349798,-0.9204881207436323,0.24547152021015062
1772615959193011500,2.797011474609375,-0.43079029461145396,-0.9281324980169534,0.2307596339697018
1772615959203079400,2.807079345703125,-0.552558479192853,-0.842701116707921,0.22079939923575145
1772615959213147400,2.8171474609375,-0.6800690068185329,-0.7210130116254091,0.1430073719650507
1772615959223215400,2.82721533203125,-0.7896972562730312,-0.5354769960105419,0.02247850165395066
1772615959233283600,2.83728369140625,-0.9040016808450222,-0.2772211966216564,-0.06614973946763202
1772615959243351600,2.8473515625,-0.9380115024745463,0.05380582446753979,-0.02556985526541248
1772615959253419500,2.85741943359375,-0.8442109367489814,0.3713023328542709,0.1343042337532621
1772615959263487200,2.8674873046875,-0.7043506306380033,0.6337906552463769,0.371981985681504
1772615959273555500,2.877555419921875,-0.5803665235728025,0.8614099088311195,0.5095017930809408
1772615959283623400,2.88762353515625,-0.46181145581901073,1.0637047515451907,0.5365692482266575
1772615959293691400,2.89769140625,-0.3835013046920299,1.1413450405865908,0.5295993361487984
1772615959303760600,2.9077607421875,-0.3658528352767229,1.1356640723407267,0.4662346790887415
1772615959313828400,2.917828369140625,-0.2919868040770292,1.1354507218509913,0.3790260955067351
1772615959323896300,2.927896240234375,-0.21572774026095867,1.1068237623035908,0.3369355510132387
1772615959333964300,2.93796435546875,-0.14595570037662983,1.0888543903708456,0.29667090677265073
1772615959344032500,2.948032470703125,-0.046591070783138275,1.052911554852128,0.1732254548951052
1772615959354100500,2.9581005859375,0.10884148299098015,0.9918991600066422,0.016493979317671617
1772615959364168400,2.96816845703125,0.23043314196169376,0.8851496808588504,-0.18449739328213036
1772615959374236400,2.978236328125,0.29864275483489033,0.8096879049003124,-0.42830965677686034
1772615959384304600,2.9883046875,0.3756389007538557,0.7019511682808399,-0.6222691442787647
1772615959394372400,2.998372314453125,0.4336918612718582,0.5791156467288732,-0.6680317283485084
1772615959404440300,3.0084404296875,0.42097792564928527,0.47703825104534625,-0.7022458403784781
1772615959414508300,3.01850830078125,0.3239811942309141,0.395282343378663,-0.821585921030119
1772615959424576500,3.028576416015625,0.17728022844493388,0.3887999956220388,-0.9402171958252787
1772615959434645500,3.0386455078125,0.03961246394217014,0.42548868107199667,-0.9250343128059059
1772615959444713500,3.04871337890625,-0.11254092203080654,0.3948398603081703,-0.8222325483705848
1772615959454781400,3.058781494140625,-0.2184703169673681,0.35456571758687494,-0.6770776429828256
1772615959464849400,3.068849365234375,-0.30231121421456336,0.3190016522526741,-0.49681591450907286
1772615959474917400,3.07891748046875,-0.3830933084130287,0.27509762859642506,-0.3160785313475877
1772615959484985300,3.0889853515625,-0.46932080853581426,0.10803250469565391,-0.20942200944656506
1772615959495053600,3.099053466796875,-0.5283510896533727,-0.03060907327532768,-0.2629177815842442
1772615959505121500,3.10912158203125,-0.6060533380150794,-0.1619774453729391,-0.41168979975692926
1772615959515189500,3.119189453125,-0.7109288399845362,-0.2283528285562992,-0.4788187047213316
1772615959525257500,3.129257568359375,-0.8126514308810233,-0.22992577696144578,-0.39744858150184154
1772615959535325400,3.139325439453125,-0.8856798422127962,-0.21686112820506095,-0.2914382120172493
1772615959545393400,3.149393310546875,-0.9210252963602542,-0.10267010087966918,-0.13592099390067158
1772615959555461400,3.15946142578125,-0.8934913927465676,0.014713585007190704,0.028185919515322892
1772615959565530600,3.169530517578125,-0.8264280272990465,0.1907423520863056,0.17514429412847385
1772615959575598600,3.1795986328125,-0.6850444571435451,0.3645399991124868,0.3414219391796738
1772615959585666300,3.189666259765625,-0.4987736975133419,0.4718476966649294,0.4793322072014212
1772615959595734300,3.199734375,-0.3009714900434017,0.6105079793363809,0.5371329099914058
1772615959605802500,3.209802490234375,-0.10906418583095073,0.7290174543827772,0.5262899193398655
1772615959615870500,3.219870361328125,0.0994318496108055,0.7542506798386573,0.4600517526701092
1772615959625938400,3.2299384765625,0.370209276920557,0.7521048999816179,0.3962907897688448
1772615959636006400,3.24000634765625,0.6665811642140149,0.7287912444114685,0.4011641679588705
1772615959646074600,3.25007470703125,0.9255945039719342,0.6738391725182533,0.5142478916294873
1772615959656142600,3.260142578125,1.1288801112890243,0.5576631088554859,0.6260223593324422
1772615959666210300,3.270210205078125,1.2264274623274802,0.44981355951130386,0.6582032850343733
1772615959676278300,3.2802783203125,1.2653788320124149,0.35653321826755996,0.6392472401518374
1772615959686347500,3.290347412109375,1.209284604346752,0.23189620025157928,0.5974522810714319
1772615959696415500,3.30041552734375,1.0437187790930271,0.06550444556772708,0.5252812902865931
1772615959706483500,3.3104833984375,0.8176748120009899,-0.06895604732632636,0.400798366853781
1772615959716551400,3.320551513671875,0.5550888744533061,-0.2022328833937645,0.2836715783374384
1772615959726619400,3.330619384765625,0.3152893537312746,-0.3407043654948473,0.15790972100999207
1772615959736687400,3.340687255859375,0.10879822837114334,-0.48402094953954217,0.014909454639162868
1772615959746755300,3.35075537109375,-0.015238485664129256,-0.6275941386938094,-0.08757292338237166
1772615959756823600,3.360823486328125,-0.11643968303501605,-0.7355068164020776,-0.1463370643770322
1772615959766891500,3.3708916015625,-0.21249533421099184,-0.789956783992052,-0.22478640477899461
1772615959776959500,3.38095947265625,-0.21261223858892916,-0.8300777819782496,-0.25640748637476934
1772615959787027500,3.39102734375,-0.13689619560837746,-0.8373369593262672,-0.23755753221521153
1772615959797095400,3.401095458984375,0.0024608371555805207,-0.7871317896991967,-0.2058616318175569
1772615959807163100,3.4111630859375,0.16913082425892353,-0.7133779867023229,-0.11271163895521312
1772615959817232100,3.421232177734375,0.35107670642733574,-0.6409358508259058,0.081965166503191
1772615959827300400,3.43130029296875,0.5710907457053661,-0.5295850153625011,0.24078886055294424
1772615959837368300,3.441368408203125,0.7798620909571647,-0.38757951391637324,0.32939507250580935
1772615959847436300,3.451436279296875,0.9186112209558487,-0.32191958552598954,0.3614151450902223
1772615959857504300,3.461504150390625,0.984780852434039,-0.2644201672375202,0.344663843710348
1772615959867572200,3.471572265625,0.9685872580021619,-0.19602759901285172,0.2851562274046242
1772615959877640200,3.48164013671875,0.8706354178160428,-0.14720307008922098,0.20112908687032757
1772615959887708200,3.491708251953125,0.7544137614458799,-0.10208791707754135,0.18893818874116985
1772615959897776000,3.501776123046875,0.7080974159508943,-0.09796236158013344,0.2871700514450669
1772615959907844400,3.51184423828125,0.7138204697728157,-0.13555296430587768,0.43465091556236146
1772615959917912300,3.521912353515625,0.7138157935976982,-0.1530851138651371,0.5870145467525347
1772615959927980300,3.531980224609375,0.6610662001848221,-0.19030396066904068,0.6775802587427199
1772615959938048000,3.542048095703125,0.5251262823879719,-0.22834113811850545,0.7208921617247164
1772615959948117200,3.5521171875,0.33368308855593204,-0.31613574142754075,0.6948259925760328
1772615959958185200,3.562185302734375,0.13138298514485358,-0.38589667539596556,0.5768075524495915
1772615959968253200,3.572253173828125,-0.035137948876619335,-0.4285936613500118,0.45127238001748915
1772615959978321400,3.5823212890625,-0.1712368566274643,-0.5548194098621606,0.2709252017499879
1772615959988389400,3.592389404296875,-0.1704693793863058,-0.6067097560971975,0.03389808661704883
1772615959998457000,3.60245703125,-0.13734510841965675,-0.5948673426121472,-0.035656529390625656
1772615960008525000,3.612525146484375,-0.1875882719695568,-0.6743845314413309,-0.05375215805154294
1772615960018593300,3.62259326171875,-0.07344575996100902,-0.6137742876559495,-0.18404519253522156
1772615960028661200,3.6326611328125,0.14264029221832752,-0.5810702879279852,-0.35294893004000183
1772615960038729200,3.642729248046875,0.3811684778302908,-0.6331102717667818,-0.44380639151837675
1772615960048797200,3.652797119140625,0.6578349631786347,-0.7408546071708202,-0.38013467780314386
1772615960058865400,3.662865478515625,0.9583493571043014,-0.8197393433153629,-0.24532867767335845
1772615960068934100,3.67293408203125,1.1592115366667508,-0.9181260677874088,-0.15151846733661367
1772615960079002000,3.683002197265625,1.1506740099459887,-1.1199486168146133,-0.23756396195599808
1772615960089070300,3.6930703125,0.9927028776049613,-1.2283745047420263,-0.5895552807439118
1772615960099138300,3.70313818359375,0.6354214713186025,-1.2584651071012019,-0.9443096527706831
1772615960109206300,3.713206298828125,0.15606617550253868,-1.241821430814266,-1.1475007867373526
1772615960119274200,3.723274169921875,-0.351691623455286,-1.0589899979829787,-1.2034931614637374
1772615960129342200,3.73334228515625,-0.7441425428003072,-0.7887474082022905,-1.1130818728502838
1772615960139410200,3.74341015625,-0.9932967518448829,-0.5062263516068458,-0.9578507599323988
1772615960149478100,3.75347802734375,-1.0860814185261727,-0.2342266890257597,-0.7721211214415729
1772615960159546000,3.763546142578125,-1.0772843640863894,0.005791442883014679,-0.5493427320167422
1772615960169614300,3.7736142578125,-0.9607955812126397,0.25427578984200955,-0.2901438065588474
1772615960179682300,3.783682373046875,-0.8373907353401183,0.4597124377131462,-0.02282198132937774
1772615960189751000,3.7937509765625,-0.712713969835639,0.6768371852904558,0.14209290573494507
1772615960199819300,3.8038193359375,-0.6041156479507684,0.8307505666732787,0.21340358989601954
1772615960209887200,3.81388720703125,-0.5189139837443828,0.8897212265580892,0.2040839911531657
1772615960219955200,3.823955078125,-0.4808785598605871,0.9789794726788997,0.13963607803420164
1772615960230023200,3.834023193359375,-0.48328971265554427,1.0313882898300886,0.062073366007348516
1772615960240091400,3.84409130859375,-0.49016485912203783,1.030365376523137,0.013699868786847218
1772615960250159400,3.854159423828125,-0.46705520169138903,1.0166963321328162,-0.02506229846891947
1772615960260227300,3.864227294921875,-0.36846506360173226,1.0195406156480311,0.001473287422955036
1772615960270295000,3.874294921875,-0.19130232405662537,1.0072568881362676,0.1419399710624013
1772615960280363300,3.88436328125,0.00888531724512577,0.9901602073848247,0.33794586056694387
1772615960290431200,3.89443115234375,0.1695195313155651,1.0118763646304607,0.5143176689300686
1772615960300499200,3.904499267578125,0.278559167227149,1.0206517917603253,0.701667017577216
1772615960310567200,3.914567138671875,0.31212007604539393,0.9748498255282639,0.8326853341281414
1772615960320636200,3.92463623046875,0.2231412313878536,0.9321469943553209,0.8579887022107839
1772615960330704100,3.9347041015625,0.03326046456694603,0.9290221403330564,0.8048117502313107
1772615960340772000,3.944772216796875,-0.19444646730124948,0.9015227235108614,0.7460483764216304
1772615960350840300,3.95484033203125,-0.47712417576313015,0.842732680889964,0.7066635106902569
1772615960360908300,3.964908203125,-0.743188018554449,0.8238555464625358,0.7168029927149414
1772615960370976300,3.974976318359375,-0.9041928195029496,0.8576970257878302,0.8366399169728159
1772615960381044200,3.985044189453125,-0.976063877493143,0.8709212490200996,0.9870470438003539
1772615960391112400,3.995112548828125,-0.9916542453348636,0.9071756347060203,1.1246700193133206
1772615960401180200,4.00518017578125,-0.963044236922264,0.8924848460525274,1.2725444858580828
1772615960411248000,4.015248046875,-0.9064443978220224,0.8007289378970861,1.402306445672363
1772615960421316000,4.025316162109375,-0.8720797714054584,0.7479641469150781,1.475047564495355
1772615960431384300,4.03538427734375,-0.9628495911329984,0.6812117471128701,1.4745340620152652
1772615960441452300,4.045452392578125,-1.1463251670867205,0.5726999344676733,1.3370327401205897
1772615960451521300,4.055521240234375,-1.3430144448786974,0.516651299509406,1.1151139631997793
1772615960461589200,4.06558935546875,-1.5423457616120575,0.43753976887166496,0.9130060944251716
1772615960471657200,4.0756572265625,-1.6982886029958724,0.35352819123268125,0.741218106720969
1772615960481725200,4.08572509765625,-1.7493781542420386,0.37154081778526304,0.5953327316341921
1772615960491793200,4.095793212890625,-1.7337269961237907,0.3949924205213785,0.5450862436160445
1772615960501861400,4.105861328125,-1.720307542580366,0.3918517844080925,0.5829245374925435
1772615960511929300,4.115929443359375,-1.5921896967113016,0.48028760823011396,0.6207526022359728
1772615960521997300,4.125997314453125,-1.3331295952022075,0.6090320615649223,0.6514768263235687
1772615960532065300,4.136065185546875,-0.989848072695732,0.6858142724722623,0.7798124065965414
1772615960542133200,4.14613330078125,-0.6129273154377937,0.6839426333814859,0.9302665874361992
1772615960552201200,4.156201171875,-0.23361060295403002,0.6909919673711061,1.0072740584667772
1772615960562269200,4.166269287109375,0.10249415979087352,0.6914145766973495,1.0367653066933153
1772615960572337200,4.176337158203125,0.35944822893142697,0.637949528491497,1.0138142008252442
1772615960582406400,4.186406494140625,0.5437210927426814,0.5741320130974054,0.9836230607010423
1772615960592474000,4.19647412109375,0.6415390774160623,0.49112464406490325,0.9094052934542298
1772615960602542000,4.2065419921875,0.6060036536544561,0.3772662096947431,0.7884371732093394
1772615960612610300,4.2166103515625,0.5007505505442619,0.26374036827981473,0.6633526306215674
1772615960622678300,4.22667822265625,0.3623106326252222,0.19802841744124888,0.5956663475027307
1772615960632746200,4.236746337890625,0.15212942057549952,0.15438567506968975,0.6301685922916979
1772615960642814200,4.246814208984375,-0.13411211784780025,0.12261691036522387,0.6696842447958886
1772615960652882400,4.25688232421875,-0.3766185594409704,0.16897241882681846,0.6466549591250718
1772615960662950400,4.266950439453125,-0.5700263313442469,0.1663479155421257,0.6477982839412987
1772615960673018000,4.27701806640625,-0.7633341500043869,0.12240297535359859,0.6574793546739965
1772615960683086000,4.287086181640625,-0.9623825581431388,0.12536299420297145,0.621387904464826
1772615960693154300,4.297154296875,-1.122241111665964,0.1377180333852768,0.5546685666820034
1772615960703223300,4.307223388671875,-1.2186965758144854,0.1798983019888401,0.4553053983932361
1772615960713291300,4.317291259765625,-1.251823769390583,0.2416723288565874,0.36774208308942613
1772615960723359200,4.327359130859375,-1.201709200656414,0.2930681695729494,0.36267804116550834
1772615960733427200,4.33742724609375,-1.0381932936698197,0.3497884201824665,0.4215415874140337
1772615960743495200,4.3474951171875,-0.8495639882147311,0.43964580124020575,0.5274014242457226
1772615960753563100,4.357563232421875,-0.6558896743297576,0.5250216529697179,0.6432057685192674
1772615960763631400,4.36763134765625,-0.45373862400054926,0.5931435875594615,0.7560732190907001
1772615960773699300,4.37769921875,-0.3011246347784996,0.6468576420903206,0.8378147329058497
1772615960783767300,4.387767333984375,-0.19776012189388273,0.6916460473656654,0.8502299047775566
1772615960793835300,4.397835205078125,-0.15015841276347636,0.6822095259785652,0.8328520689971745
1772615960803903700,4.40790380859375,-0.15753274092376232,0.6511918719023466,0.7613928066782653
1772615960813971700,4.4179716796875,-0.1804208645582199,0.6099181967496872,0.6495561604592949
1772615960824041000,4.428041015625,-0.18587386926710606,0.5495610509425402,0.5630185714740306
1772615960834109000,4.43810888671875,-0.21599954293966292,0.43669104308784007,0.5443615095380694
1772615960844177000,4.448177001953125,-0.2309235558271408,0.330240254625678,0.5315929941840469
1772615960854244600,4.45824462890625,-0.20081892494261264,0.17914660683870315,0.5052413226248696
1772615960864312800,4.468312744140625,-0.14396131168901918,0.01556464887857437,0.47014228098653255
1772615960874380800,4.478380859375,-0.08067804930210112,-0.1401835467159748,0.42973800907954574
1772615960884448800,4.48844873046875,0.012979308560490607,-0.32956162471175193,0.3927199455447495
1772615960894516700,4.498516845703125,0.06155073950588703,-0.5484025285571813,0.3266048207327723
1772615960904585000,4.5085849609375,0.06944178501665592,-0.7151847438633442,0.17634897547680883
1772615960914653000,4.51865283203125,0.0015425532668828963,-0.8121125016987323,-0.0038411855980753896
1772615960924720600,4.528720703125,-0.20510697752535342,-0.9332815513432026,-0.24334482864607124
1772615960934788600,4.53878857421875,-0.4339782769978046,-1.0435130273878575,-0.5610487327057868
1772615960944856800,4.54885693359375,-0.6455798772394656,-0.9908335766017436,-0.7291398386534303
1772615960954925800,4.55892578125,-0.8523948277264833,-0.9699082774728536,-0.8116086438298225
1772615960964993800,4.568993896484375,-0.8688812676250934,-0.8256067740440368,-0.8521044664777815
1772615960975062000,4.57906201171875,-0.6340624579250812,-0.5959574759364128,-0.7591326066613197
1772615960985129700,4.589129638671875,-0.3258323750555515,-0.3762298523843288,-0.44146782903559506
1772615960995197700,4.59919775390625,-0.031732524347305294,-0.15055530312657356,0.04816562662348151
1772615961005265700,4.609265625,0.15439444289803503,0.029971359893679616,0.46768279553782194
1772615961015334000,4.619333984375,0.18491174623668194,0.1524000542104244,0.688962434304878
1772615961025401900,4.62940185546875,0.03415419853627682,0.18996552249491214,0.660185544892773
1772615961035469800,4.6394697265625,-0.2706242825746536,0.18817279385924338,0.43168198275417086
1772615961045537800,4.649537841796875,-0.6379518665790558,0.19012509697079658,0.08964521787809207
1772615961055606000,4.65960595703125,-0.9569733925759791,0.15500468375086784,-0.24264723830334842
1772615961065673700,4.669673828125,-1.1685223858475684,0.11792553767859935,-0.44655064872521905
1772615961075742700,4.67974267578125,-1.26052028606534,0.08144026584625244,-0.48654922590814526
1772615961085811000,4.68981103515625,-1.2441308768004178,0.13647007915079593,-0.4247350496931001
1772615961095879000,4.69987890625,-1.1348194382101298,0.19507658189833163,-0.3133266388235614
1772615961105947000,4.70994677734375,-1.000663481220603,0.2892553332865238,-0.2647225294512696
1772615961116014600,4.7200146484375,-0.8388783435493707,0.45879473834633827,-0.3145972432812676
1772615961126082800,4.730082763671875,-0.6591705956965684,0.6249620366245507,-0.3037557869996875
1772615961136150800,4.74015087890625,-0.4655880517482757,0.7850479691624641,-0.19424915463086218
1772615961146218800,4.75021875,-0.3205857065737247,0.927922654658556,-0.10601343822451308
1772615961156286700,4.76028662109375,-0.2154214507907629,1.1194459279894828,-0.045184071795735505
1772615961166355000,4.77035498046875,-0.1550146206229925,1.2969710711061955,0.038813605182059105
1772615961176423000,4.7804228515625,-0.06114508131444454,1.4517501294076443,0.13348991256253792
1772615961186491000,4.790490966796875,0.030866262906789777,1.5644336747795342,0.20951887568347155
1772615961196558600,4.80055859375,0.10275953272879124,1.6220114190012216,0.2672044093948789
1772615961206627800,4.8106279296875,0.172744338580966,1.6563906584650276,0.29981152461962773
1772615961216695800,4.82069580078125,0.23959143092930316,1.594690281355381,0.34358412218224255
1772615961226763800,4.830763671875,0.29663726023137565,1.492003229340911,0.33470665945000944
1772615961236832000,4.84083203125,0.37521219977438447,1.3757389028728007,0.3124468968469649
1772615961246900000,4.85089990234375,0.43624680645167824,1.175746491882205,0.33734888105448335
1772615961256967700,4.8609677734375,0.480651180845499,0.973227192762494,0.3182967919189483
1772615961267035600,4.87103564453125,0.4582791900396347,0.773747991991043,0.27602983141262083
1772615961277103900,4.881103759765625,0.3457014431297779,0.5396832155287266,0.1974532844344154
1772615961287171800,4.891171875,0.20746610787212846,0.3217681943565607,0.0992035572802648
1772615961297239800,4.90123974609375,-0.01391162097454071,0.09401859239041804,-0.012526900034316349
1772615961307307800,4.911307861328125,-0.3159107005000114,-0.11317805089056492,-0.13862731198361142
1772615961317376000,4.9213759765625,-0.7359300102502108,-0.29201661469340323,-0.2645856599975377
1772615961327444700,4.93144482421875,-1.1376152064085006,-0.4045031761884689,-0.3556947946820408
1772615961337512700,4.9415126953125,-1.4828653986394404,-0.4656932656884193,-0.3973796444514766
1772615961347581000,4.951580810546875,-1.7867139054238794,-0.45414077506065365,-0.40734146835431456
1772615961357649000,4.96164892578125,-1.9404303029298782,-0.3776104930877685,-0.3709241837242618
1772615961367716900,4.971716796875,-1.8979788161695001,-0.23401450757980347,-0.3034155769935809
1772615961377784800,4.981784912109375,-1.660204079273343,-0.01744213318824768,-0.2134962183492258
1772615961387852800,4.991852783203125,-1.3006839541494846,0.19480828635096548,-0.05865403168369084
1772615961397920800,5.001920654296875,-0.8976485124260186,0.3432341762334108,0.12022863612235524
1772615961407988700,5.01198876953125,-0.48973582005500793,0.43186756845414637,0.21345689098583534
1772615961418056700,5.022056640625,-0.12396131071150303,0.4671218371868133,0.2487988014693372
1772615961428125000,5.032125,0.1851221741169691,0.5164806191176176,0.25597347887167704
1772615961438193000,5.04219287109375,0.4256733899891376,0.5171592490315438,0.2710172091486864
1772615961448260900,5.0522607421875,0.5897101059794425,0.46674189795851706,0.26097152462098744
1772615961458329900,5.062329833984375,0.6315513518869876,0.4430167389780283,0.1943547338971868
1772615961468397800,5.072397705078125,0.5914075575470924,0.40414018809497354,0.05799278216282837
1772615961478465800,5.0824658203125,0.4677279863864183,0.32059739701151846,-0.11467453652601689
1772615961488533800,5.09253369140625,0.28674773437976836,0.19858780488967895,-0.29037255554711444
1772615961498602000,5.10260205078125,0.12254676773846149,0.04574585213065147,-0.40410255949832496
1772615961508670000,5.112669921875,-0.02698503755927086,-0.12776888630092142,-0.4558267553862184
1772615961518738000,5.122738037109375,-0.15629939973652363,-0.20918927840292453,-0.4301199210692197
1772615961528805600,5.1328056640625,-0.24750585731565952,-0.29108722488880157,-0.32137495725527404
1772615961538873900,5.142873779296875,-0.33603462011814117,-0.32709786494672294,-0.21124146169237792
1772615961548941800,5.15294189453125,-0.40822658062577244,-0.30335224770009517,-0.12168390383142977
1772615961559009800,5.163009765625,-0.47569209713339805,-0.2803156555056572,-0.07238646016642451
1772615961569077800,5.173077880859375,-0.49247079797685145,-0.22696049741506574,-0.040536300788819785
1772615961579146800,5.183146728515625,-0.5230787022083997,-0.1861626230806112,-0.005725245779007673
1772615961589214700,5.193214599609375,-0.5361714080154896,-0.13965513892769812,-0.018436916379258036
1772615961599282700,5.20328271484375,-0.5145429290533066,-0.08411620705723762,-0.0550366083715111
1772615961609351000,5.213350830078125,-0.470281762522459,0.000502104303240776,-0.07806808599941432
1772615961619419000,5.2234189453125,-0.42630467362999913,0.10955576874017715,-0.06657963705118745
1772615961629486800,5.23348681640625,-0.3404536056041717,0.222732066065073,-0.0572462107123807
1772615961639554800,5.243554931640625,-0.19747662877738476,0.30336627622544765,-0.07800254648253321
1772615961649623000,5.253623046875,-0.06311375103890896,0.299229030290246,-0.1326347753042355
1772615961659690800,5.263690673828125,0.06414777026176452,0.29371406626105306,-0.20173925465792417
1772615961669758700,5.2737587890625,0.14352233574986456,0.2913350621700287,-0.29716106490977107
1772615961679826700,5.28382666015625,0.1899146690905094,0.2588444129317999,-0.414439061932452
1772615961689895000,5.29389501953125,0.20694062269330024,0.2765606868863106,-0.5400118629612028
1772615961699964000,5.3039638671875,0.2679594472795725,0.26884149081110953,-0.626088118045032
1772615961710032000,5.314031982421875,0.3604296411842108,0.2464776833117008,-0.6630097354680299
1772615961720099800,5.324099853515625,0.4391068720579147,0.20183774659633635,-0.6696136637777089
1772615961730167000,5.3341669921875,0.5075666602998972,0.18687223265469075,-0.6517009904682636
1772615961740234800,5.34423486328125,0.5288613772630691,0.1444657540798187,-0.6504539130166173
1772615961750302700,5.354302734375,0.5419032296657562,0.09242226310968399,-0.6521537026718258
1772615961760370700,5.36437060546875,0.5387082330167293,0.04560147522389889,-0.7042994849726557
1772615961770439000,5.37443896484375,0.539257099071145,-0.001661211210489273,-0.7507415757391601
1772615961780507000,5.3845068359375,0.5443792643904686,-0.07644669534265995,-0.7039806282818317
1772615961790574800,5.394574951171875,0.6183113465636968,-0.1833615941852331,-0.6188736566215753
1772615961800642800,5.404642822265625,0.7129846034705638,-0.2643675602674484,-0.5443941696986556
1772615961810710000,5.4147099609375,0.8038432705253362,-0.34504970122277734,-0.48763384280707683
1772615961820778200,5.4247783203125,0.8454594755053519,-0.41963820147812364,-0.4589816026879474
1772615961830847000,5.434846923828125,0.9025368689894676,-0.4767003973931074,-0.4319907564423978
1772615961840915000,5.4449150390625,0.9094014940619468,-0.5459317545294762,-0.34310894241854545
1772615961850983200,5.454983154296875,0.8636042040050029,-0.6203390529990196,-0.27785821588356047
1772615961861051100,5.465051025390625,0.7880091570556164,-0.6647136167764663,-0.22121742371842265
1772615961871119000,5.475119140625,0.7251707158267497,-0.734851567363739,-0.13224961191155016
1772615961881187000,5.48518701171875,0.6497691456228494,-0.814724145501852,-0.07910732938665896
1772615961891255000,5.495255126953125,0.5560246939986944,-0.9028747226417064,-0.07440503344722092
1772615961901323000,5.505322998046875,0.44035015011727807,-0.9848439807981252,-0.10540211965944617
1772615961911391000,5.515390869140625,0.3433750460088253,-1.0144804096490143,-0.1423877787619829
1772615961921459000,5.525458984375,0.25028701246678825,-1.057148754030466,-0.13045556810162962
1772615961931527200,5.535527099609375,0.19641221441626547,-1.069316161686182,-0.13069577006567268
1772615961941595100,5.54559521484375,0.14646364989876745,-1.0205337183386087,-0.1417416994107887
1772615961951663900,5.555663818359375,0.10032383001446724,-0.9833248084068298,-0.1369687493879348
1772615961961732000,5.565732177734375,0.10306348411142825,-0.9776327342450618,-0.09973583752606063
1772615961971800000,5.575800048828125,0.12710077778100967,-0.9171195210933685,-0.05480798724740743
1772615961981868000,5.585867919921875,0.22113573678433893,-0.8204425231486558,0.03604647855628282
1772615961991936000,5.59593603515625,0.3011515227854252,-0.7821154228419065,0.16412545371968298
1772615962002004200,5.606004150390625,0.3751514094978571,-0.7276853289961814,0.19073632420431821
1772615962012072200,5.616072265625,0.3938707230150699,-0.6757581578820944,0.10437511469926684
1772615962022140000,5.626139892578125,0.30181729321777817,-0.624234306871891,-0.05264390454869717
1772615962032208000,5.636207763671875,0.16109890897274015,-0.4927110364735126,-0.17381189474724232
1772615962042276000,5.646276123046875,0.034655718317627905,-0.2930553100913763,-0.15506609508190303
1772615962052344000,5.656343994140625,-0.0710983200520277,-0.12838614141643045,-0.011922091125138104
1772615962062412000,5.666412109375,-0.15235446150302887,0.0012175590962171553,0.10655706184823065
1772615962072481300,5.676481201171875,-0.15656886432766914,0.16260639092624188,0.13645616022329776
1772615962082549000,5.686549072265625,-0.12260229731798171,0.2703355287611484,0.18529548485726116
1772615962092617000,5.696616943359375,-0.10159224251508712,0.375539532032609,0.2505658294081688
1772615962102685000,5.706684814453125,-0.03529401622116565,0.518046553260088,0.27468057222813363
1772615962112753200,5.716753173828125,0.023473814567923544,0.6281114405661821,0.29808906647488476
1772615962122821000,5.726821044921875,0.03827975403368473,0.6704980453968048,0.32670963281411675
1772615962132889000,5.73688916015625,0.014510171389579772,0.6778846485167741,0.27547442601956423
1772615962142957000,5.74695703125,-0.00703355189859867,0.6880430544376372,0.10689064118415116
1772615962153025000,5.75702490234375,0.008462123396992684,0.665066667997837,-0.01952072956059128
1772615962163093000,5.767093017578125,0.05246493125259876,0.6305003815293312,-0.04423493611104786
1772615962173161000,5.777160888671875,0.09807458978295326,0.6053595105320215,0.005605784117802977
1772615962183229000,5.78722900390625,0.13365443720817566,0.5891583173155784,0.09469313065111637
1772615962193297200,5.797297119140625,0.1288069971770048,0.542229977402091,0.18009327657166868
1772615962203366100,5.8073662109375,0.08929448647797107,0.4857663319021463,0.25525501013770696
1772615962213433900,5.817433837890625,0.019473346754908562,0.42748949950039383,0.2834579355867579
1772615962223502000,5.827502197265625,-0.05445055211186409,0.3901613471031189,0.2631555541291833
1772615962233570000,5.837570068359375,-0.1613064142435789,0.33874387907683845,0.2217377943307161
1772615962243638000,5.847637939453125,-0.24333295554518697,0.32755729915201665,0.14735055226851254
1772615962253706000,5.8577060546875,-0.2684387552291155,0.3493471061557531,0.15327369523979723
1772615962263774200,5.867774169921875,-0.2338426581442356,0.36389293338060374,0.23046540026348084
1772615962273842200,5.87784228515625,-0.16189268969893456,0.39823008726835246,0.3160908063072711
1772615962283910100,5.88791015625,-0.03823708393573761,0.45477731939852234,0.4311841892998665
1772615962293977900,5.897977783203125,0.09382043946981429,0.49355917773544783,0.5536554441167041
1772615962304046000,5.908046142578125,0.16768179449439047,0.5077186359912157,0.6571472731754183
1772615962314114000,5.918114013671875,0.15637947923541068,0.5168038597226142,0.7046388729948551
1772615962324183000,5.92818310546875,0.052885202491283416,0.538805848172307,0.7383494194168597
1772615962334251300,5.938251220703125,-0.10512626186013221,0.5339747747540473,0.7861086571965367
1772615962344319200,5.9483193359375,-0.2982137157678604,0.586758854958415,0.7483968392439186
1772615962354387000,5.958386962890625,-0.4574269571244716,0.6142430742114782,0.6314598742112517
1772615962364455000,5.968454833984375,-0.5136912806600332,0.571096590924263,0.5549510368851944
1772615962374523100,5.978523193359375,-0.49499184088706966,0.5275345125734806,0.6026252267299219
1772615962384591000,5.988591064453125,-0.4866998133599758,0.4517524186193943,0.6819780553102492
1772615962394659000,5.9986591796875,-0.4429524415701627,0.3555956451565027,0.7486758023157716
1772615962404727000,6.00872705078125,-0.409191626265645,0.2320610354244709,0.7359703422605991
1772615962414795300,6.018795166015625,-0.4327636405110359,0.10806816053092479,0.6553934883106499
1772615962424863000,6.028863037109375,-0.4937105689048767,-0.07863456077575683,0.496365759588778
1772615962434931000,6.038930908203125,-0.548296730095148,-0.23123218338489532,0.3092623485267162
1772615962445000200,6.049000244140625,-0.7266027944564819,-0.39653205117881296,0.20210385018661617
1772615962455068200,6.059068115234375,-1.0636229184806347,-0.5439677609801292,0.04467657893132418
1772615962465136000,6.06913623046875,-1.341686995667219,-0.5139058001935481,-0.1643795746112242
1772615962475204000,6.0792041015625,-1.5341507647186516,-0.45841947529315946,-0.3216064279235899
1772615962485272000,6.08927197265625,-1.6231179189383982,-0.34620530099868774,-0.4147066633600741
1772615962495340000,6.099340087890625,-1.5637433544278143,-0.13120470596849917,-0.410226485738717
1772615962505408000,6.109407958984375,-1.2833020267158746,0.16148410889804363,-0.33417467146515845
1772615962515476000,6.11947607421875,-0.8061164761543274,0.4176490734875202,-0.11453940237164496
1772615962525544200,6.129544189453125,-0.24285364759564398,0.5812444754511118,0.1372031426656991
1772615962535612200,6.139612060546875,0.31227205173671246,0.7187497428685427,0.3636548503084108
1772615962545680100,6.14968017578125,0.7731266452223062,0.7727993129640817,0.4871771850807592
1772615962555748000,6.159748046875,1.0495511385083198,0.7338952895522117,0.5529882854448631
1772615962565817000,6.169817138671875,1.2473778958976267,0.723348176574707,0.45311161467600614
1772615962575885000,6.179885009765625,1.2830325621247292,0.607820347687602,0.42498438481166956
1772615962585953000,6.189953125,1.2064338910907506,0.44186815346479413,0.4300273108823225
1772615962596021200,6.200021240234375,1.0161445434689522,0.3123182289659977,0.4213783596763387
1772615962606089200,6.210089111328125,0.749350048315525,0.21181027455627918,0.4525331206683069
1772615962616157000,6.220156982421875,0.39748248377144335,0.0946305868089199,0.5396094927053898
1772615962626225000,6.230224853515625,-0.006594575959444046,0.027101941937208173,0.6093187695518135
1772615962636293000,6.240293212890625,-0.44028643723130223,0.016416297271847725,0.6087822149896994
1772615962646361000,6.250361083984375,-0.8415712358951568,0.0012964695513248442,0.5362200329301878
1772615962656429000,6.260428955078125,-1.165664073807001,0.034711832419037816,0.45154575359877197
1772615962666497000,6.2704970703125,-1.3583248267352581,0.0118991121083498,0.3340366877665743
1772615962676565200,6.280565185546875,-1.383015615877509,-0.0228308404892683,0.17750362540464848
1772615962686634000,6.290634033203125,-1.2355933500796557,0.09070727588534355,0.17466664841305463
1772615962696702000,6.300701904296875,-1.1050865632474423,0.0943868411809206,0.31133414983209223
1772615962706770200,6.310770263671875,-0.9245441181361674,0.16808043842315673,0.3866472745675593
1772615962716838100,6.320838134765625,-0.623225422090292,0.27981647381186486,0.41207887213975186
1772615962726906000,6.330906005859375,-0.31297698513567446,0.311554843378067,0.42209830798134207
1772615962736974000,6.34097412109375,-0.06547697303891181,0.3351671896338463,0.40638920913077886
1772615962747042300,6.351042236328125,0.1768880142569542,0.3206839062511921,0.3994479386255145
1772615962757110000,6.361110107421875,0.3517617660820484,0.2723328400582075,0.40492191305719316
1772615962767178000,6.371177978515625,0.401649540323019,0.1920066729336977,0.364908467098698
1772615962777246000,6.381245849609375,0.3987257618308067,0.16136019025743006,0.3272113717911765
1772615962787314200,6.391314208984375,0.35014147140383717,0.10577215854823589,0.2880252800349146
1772615962797382100,6.401382080078125,0.2350590481966734,0.03816284965574741,0.2934387929836288
1772615962807452000,6.411451904296875,0.10538228244781493,0.015299275940656661,0.36555553283058106
1772615962817519900,6.421519775390625,-0.020257190608978272,-0.014759177714586257,0.4271629709597677
1772615962827588000,6.431588134765625,-0.12223638661503791,-0.06714812112152577,0.47289052024874834
1772615962837656000,6.441656005859375,-0.19939444509744644,-0.12327742010056972,0.45376405070275067
1772615962847724000,6.45172412109375,-0.27194062587022777,-0.18536825783252714,0.382161142129451
1772615962857792000,6.4617919921875,-0.31030630462169645,-0.22687048104405402,0.328564576498419
1772615962867860000,6.47185986328125,-0.3218324917644262,-0.2567681911796331,0.318502908950299
1772615962877928000,6.481927978515625,-0.29741467434465885,-0.2537058809995651,0.32495361945964396
1772615962887996000,6.491995849609375,-0.2570546069055796,-0.23669804757535456,0.3255661253347993
1772615962898064000,6.50206396484375,-0.20893734946846962,-0.22989713538885115,0.31774865651689466
1772615962908132000,6.512132080078125,-0.16295535049438475,-0.187858321082592,0.33013905927352605
1772615962918200000,6.522199951171875,-0.12099661568701267,-0.13402736217379568,0.39369657202456143
1772615962928268800,6.532268798828125,-0.09185703044235706,-0.08600655084848403,0.4875196783754974
1772615962938337000,6.5423369140625,-0.041541970700025556,-0.033604747959971426,0.5739619902927429
1772615962948405000,6.552405029296875,0.036066169637441636,0.01460135680437088,0.7454394507430493
1772615962958473000,6.562472900390625,0.1282803429543972,-0.025181203007698057,0.9481632594589143
1772615962968541000,6.572541015625,0.20203005429804324,-0.09155658619105815,1.0727831071443854
1772615962978609200,6.582609130859375,0.20487083068192005,-0.22174247050583362,1.0168246346876024
1772615962988677000,6.592677001953125,0.13801847763657568,-0.4287415453881025,0.7708344426319003
1772615962998745000,6.6027451171875,-0.036977439263463016,-0.6034241585552692,0.44306174716353414
1772615963008812800,6.612812744140625,-0.2702186243832111,-0.6769517515808343,0.16823540978915988
1772615963018881000,6.622881103515625,-0.4538537748128175,-0.7472177124619483,0.005550702062854543
1772615963028949000,6.632948974609375,-0.610832388985157,-0.7934820355087518,-0.026169501658994704
1772615963039017000,6.643016845703125,-0.7737000611960887,-0.8071773833841085,-0.04795509827849455
1772615963049086200,6.653086181640625,-0.9846808991909026,-0.7934756057679653,-0.18191729539474472
1772615963059154000,6.66315380859375,-1.1590274122714996,-0.6185778885453939,-0.37174730014279483
1772615963069222000,6.673221923828125,-1.367489545443654,-0.33218671251833437,-0.34001762533970176
1772615963079289900,6.683289794921875,-1.5791986977130175,-0.05527823510766029,-0.1558699953433126
1772615963089358000,6.693358154296875,-1.5377911670476196,0.23403788845539092,0.012268589308136141
1772615963099426000,6.703426025390625,-1.2899533012986182,0.42704467834234233,0.09300378932468592
1772615963109494000,6.713493896484375,-0.9177607416063547,0.5357803628712893,0.031047688454878514
1772615963119562000,6.72356201171875,-0.5070341608583927,0.660907794752717,-0.011543316374043933
1772615963129630200,6.733630126953125,-0.17583178320229054,0.6789373724400997,-0.11912435554172843
1772615963139698000,6.743697998046875,0.1297743809044361,0.7224708092182874,-0.281613495030161
1772615963149766000,6.753765869140625,0.4447258809834718,0.8130757937729358,-0.4647392528992146
1772615963159833900,6.763833740234375,0.7487947525203228,0.8281213872134685,-0.6051640610251575
1772615963169903000,6.773903076171875,1.0317197137415408,0.917506474584341,-0.6411118649799377
1772615963179971000,6.78397119140625,1.1683750863313673,0.8765309055954218,-0.563896231091395
1772615963190039000,6.7940390625,1.3127017242014407,0.8371013970047235,-0.5099240370810032
1772615963200107000,6.80410693359375,1.3632231201708316,0.7845826897382736,-0.583218259742111
1772615963210175000,6.814175048828125,1.4258762679606676,0.7523562443941831,-0.6665786799959837
1772615963220243000,6.824242919921875,1.3892676620095967,0.6731202105939388,-0.6381982425555587
1772615963230311000,6.834310791015625,1.2210767489492893,0.6210732124924659,-0.5217344114599749
1772615963240379100,6.844379150390625,0.9751204591631889,0.6103372989445924,-0.3856945038873702
1772615963250447000,6.854447021484375,0.6599626228570937,0.5728203459769488,-0.21461541337119414
1772615963260515000,6.86451513671875,0.2874427309066057,0.486177250790596,-0.036044633659068494
1772615963270583000,6.8745830078125,-0.09978665439784526,0.3973141414672136,0.06699150578770786
1772615963280651000,6.884651123046875,-0.483605354475975,0.2932359273552894,0.04028249042453244
1772615963290720000,6.894719970703125,-0.7955699476987123,0.20860358746945856,-0.0449791420744732
1772615963300788000,6.9047880859375,-1.0177309358775615,0.11512860043644904,-0.1465236912566237
1772615963310856200,6.914856201171875,-1.2001099487662314,-0.004551671954989433,-0.2083596774446778
1772615963320924200,6.924924072265625,-1.3332675423681735,-0.09905074133872985,-0.20703880410445852
1772615963330991900,6.934991943359375,-1.4177186804682016,-0.18400924443900585,-0.2248457337507978
1772615963341059800,6.945059814453125,-1.4042577258706093,-0.1597773049801588,-0.23344474486783146
1772615963351128000,6.955128173828125,-1.3501526261955499,-0.17521102095544336,-0.13540146353859453
1772615963361196000,6.965196044921875,-1.1934925764530897,-0.21807225756049156,-0.04625159142939374
1772615963371264000,6.975263916015625,-0.9705302087634802,-0.20236615438461303,-0.017437493545748292
1772615963381332000,6.98533203125,-0.761011844536662,-0.16020985117852687,-0.02410148147959262
1772615963391400200,6.995400146484375,-0.5305675966590643,-0.10383446848392486,-0.11210092317834496
1772615963401468200,7.00546826171875,-0.26003099236786364,-0.06661737524569034,-0.21722714850585906
1772615963411537000,7.015536865234375,-0.04361702340841293,-0.034600188738107676,-0.15566345818685368
1772615963421604900,7.02560498046875,0.12424655739367008,0.05405073913931846,-0.059755143059697
1772615963431673000,7.035673095703125,0.27594226272702216,0.25586042868494985,0.01493015950047411
1772615963441741000,7.045740966796875,0.46152270200550555,0.41587329598665235,0.10151922294464893
1772615963451809000,7.05580908203125,0.6533306374967098,0.49737669019699093,0.196029096850194
1772615963461877000,7.065876953125,0.774870858541131,0.6209609842896461,0.2568115736636333
1772615963471945000,7.075945068359375,0.8505746265619992,0.6136743344128132,0.31851942169368264
1772615963482013000,7.086012939453125,0.9252496360570192,0.5602227302104235,0.35450174897257236
1772615963492081000,7.096080810546875,0.8787415673822164,0.4275532123863697,0.31232564508747307
1772615963502149000,7.106149169921875,0.7063584633290767,0.2649216870188713,0.15185591913005336
1772615963512217000,7.116217041015625,0.48689621271491046,0.13279051385521887,-0.11051809270000085
1772615963522285800,7.126285888671875,0.2642664379805326,-0.006841244196891784,-0.3657950406748801
1772615963532353800,7.136353759765625,0.08533961137235165,-0.12755202867984772,-0.5358826542019843
1772615963542422000,7.146422119140625,-0.04722001633644104,-0.1778723491191864,-0.6134149528242647
1772615963552490000,7.156489990234375,-0.21142390558719634,-0.2280301724731922,-0.6334814431667327
1772615963562558000,7.166557861328125,-0.30915187388956544,-0.24129063606262205,-0.622791560717672
1772615963572626000,7.1766259765625,-0.3349053238272667,-0.24572306555211543,-0.5714515418417752
1772615963582694100,7.186694091796875,-0.3307780147641897,-0.20864625756740568,-0.4919642366942018
1772615963592762000,7.19676220703125,-0.2974994300186634,-0.14280454286932945,-0.39809542803801595
1772615963602829800,7.206829833984375,-0.20630817000865936,-0.07867313922047614,-0.34301582077499476
1772615963612897800,7.216897705078125,-0.05951484976410865,-0.021757073777914047,-0.2938301851877011
1772615963622966000,7.226966064453125,0.08659925604462623,0.010316226831078528,-0.24630426297355443
1772615963633034000,7.237033935546875,0.25116437982320783,0.006264905613660812,-0.24917203696221113
1772615963643103000,7.24710302734375,0.4057493768572807,-0.01814180589020252,-0.25922157568112014
1772615963653171000,7.2571708984375,0.510830630531907,-0.06659048723876476,-0.2666868335278705
1772615963663239000,7.267239013671875,0.5433113428980112,-0.11041969209313392,-0.286843961295858
1772615963673307000,7.277306884765625,0.5131815775722265,-0.12013795303106307,-0.2618757069190964
1772615963683374800,7.287374755859375,0.4952607209563255,-0.14618132582604884,-0.19569029334988444
1772615963693443000,7.297443115234375,0.3659516194760799,-0.12972528106570244,-0.11110299818217753
1772615963703511000,7.307510986328125,0.2210848833799362,-0.029651626420021057,-0.011133388432860374
1772615963713579000,7.3175791015625,0.12840426159501075,0.11383388445079326,0.0988964640924707
1772615963723647000,7.32764697265625,0.07784662526845931,0.2244575746834278,0.23416293960716575
1772615963733715000,7.33771484375,0.03543020982146263,0.2885509844094515,0.2850428666906431
1772615963743783000,7.347782958984375,0.2551180858850479,0.21379823350310323,0.12626195233669132
1772615963753851000,7.357850830078125,0.3855687586158514,0.15438216793835163,0.06510247717071324
1772615963763918800,7.3679189453125,0.5044938287258148,-0.22725743453502653,-0.04859996292013675
1772615963773988000,7.377988037109375,0.7621990084946155,-0.3254366537362337,-0.1668813648317009
1772615963784056000,7.38805615234375,0.8377595686525106,-0.29302082329988477,-0.18993644253090022
1772615963794123800,7.398123779296875,0.7997954564392566,-0.26188217319250107,-0.0705272056331858
1772615963804192000,7.40819189453125,0.7117863335967064,-0.24593524699807165,0.08753478332906961
1772615963814259200,7.41825927734375,0.6420844363391399,-0.17692308557033537,0.04800345833171159
1772615963824327200,7.4283271484375,0.44909927376210684,-0.14244739999473094,-0.041335707538202406
1772615963834395100,7.43839501953125,0.2557423552632332,-0.11704992388784885,-0.08881766274645925
1772615963844463000,7.448463134765625,0.10765957973003387,-0.03474281207919121,-0.07442633196357637
1772615963854531300,7.45853125,0.04617430667579174,-0.017646715849637985,-0.03881996185760945
