time,seconds_elapsed,z,y,x
1772615956464561400,0.0685615234375,0.48558515310287476,0.8049991130828857,0.10531094670295715
1772615956474629600,0.078629638671875,0.5251328349113464,0.7087953686714172,0.08282694220542908
1772615956484697600,0.088697509765625,0.5687435269355774,0.6199713945388794,0.020179878920316696
1772615956494765600,0.098765625,0.6112483739852905,0.5762377381324768,-0.06696301698684692
1772615956504833500,0.10883349609375,0.6225320100784302,0.5750207901000977,-0.15741963684558868
1772615956514901800,0.11890185546875,0.5898470282554626,0.6335884928703308,-0.22260528802871704
1772615956524969500,0.128969482421875,0.5162252187728882,0.7172638177871704,-0.22373835742473602
1772615956535037400,0.139037353515625,0.43743056058883667,0.7812220454216003,-0.15267163515090942
1772615956545106700,0.149106689453125,0.36702650785446167,0.8064709305763245,-0.015275818295776844
1772615956555174700,0.159174560546875,0.315371572971344,0.8121194839477539,0.15818437933921814
1772615956565242600,0.16924267578125,0.2892184257507324,0.7969730496406555,0.31858378648757935
1772615956575310600,0.179310546875,0.3145695924758911,0.7490977048873901,0.4290245473384857
1772615956585378600,0.189378662109375,0.3744741380214691,0.666389524936676,0.4765821695327759
1772615956595446500,0.199446533203125,0.4484008252620697,0.5844336748123169,0.4503697156906128
1772615956605514500,0.209514404296875,0.5077056288719177,0.5353777408599854,0.3609783947467804
1772615956615582500,0.21958251953125,0.5366606116294861,0.5221197605133057,0.2185211181640625
1772615956625650700,0.229650634765625,0.5409535765647888,0.5224913358688354,0.03885049745440483
1772615956635718700,0.23971875,0.5109354853630066,0.5508313775062561,-0.14056186378002167
1772615956645786600,0.24978662109375,0.4659062325954437,0.5937597751617432,-0.2931261658668518
1772615956655854300,0.259854248046875,0.4273673892021179,0.6312317848205566,-0.411056786775589
1772615956665923600,0.269923583984375,0.4009823501110077,0.665653645992279,-0.4922444820404053
1772615956675991600,0.279991455078125,0.3816712200641632,0.6953393816947937,-0.514827311038971
1772615956686059500,0.2900595703125,0.362813264131546,0.7349276542663574,-0.5125841498374939
1772615956696127700,0.300127685546875,0.325152188539505,0.7874252200126648,-0.4972797930240631
1772615956706195700,0.31019580078125,0.2940056324005127,0.8369637131690979,-0.47725531458854675
1772615956716263400,0.320263427734375,0.27940431237220764,0.8701099157333374,-0.43763041496276855
1772615956726331400,0.330331298828125,0.28836512565612793,0.8940859436988831,-0.37658560276031494
1772615956736399600,0.340399658203125,0.2977149486541748,0.8639823794364929,-0.3109549283981323
1772615956746467600,0.350467529296875,0.33398157358169556,0.8713669776916504,-0.2367844581604004
1772615956756535600,0.36053564453125,0.37743666768074036,0.8650904297828674,-0.15540385246276855
1772615956766603500,0.370603515625,0.4257986545562744,0.8535001873970032,-0.06825151294469833
1772615956776671700,0.380671630859375,0.47606101632118225,0.8191733360290527,0.008578818291425705
1772615956786739700,0.39073974609375,0.5253977179527283,0.7761926651000977,0.07070756703615189
1772615956796808400,0.400808349609375,0.5791930556297302,0.7319711446762085,0.10027984529733658
1772615956806877000,0.410876953125,0.6264532208442688,0.684584379196167,0.10115474462509155
1772615956816945000,0.42094482421875,0.6658568382263184,0.6419003009796143,0.08418188244104385
1772615956827013000,0.43101318359375,0.6850693821907043,0.6135202050209045,0.06781277805566788
1772615956837080800,0.441080810546875,0.6695668697357178,0.5825827717781067,0.06102624535560608
1772615956847148800,0.451148681640625,0.6412878036499023,0.5614511370658875,0.054808296263217926
1772615956857216800,0.461216796875,0.6015928983688354,0.550577700138092,0.0433412566781044
1772615956867285000,0.471284912109375,0.5658979415893555,0.5309605002403259,0.03059932217001915
1772615956877353000,0.48135302734375,0.532995879650116,0.5106557607650757,0.03741594776511192
1772615956887421000,0.4914208984375,0.5082207918167114,0.4981500208377838,0.06720440834760666
1772615956897489000,0.501489013671875,0.48313355445861816,0.5016188025474548,0.12092409282922745
1772615956907557000,0.51155712890625,0.4552086889743805,0.517119288444519,0.19374717772006989
1772615956917625900,0.5216259765625,0.425432413816452,0.5248278379440308,0.27831798791885376
1772615956927693800,0.53169384765625,0.4061124622821808,0.5053079724311829,0.33635926246643066
1772615956937762000,0.541761962890625,0.40026816725730896,0.4833879768848419,0.37105679512023926
1772615956947830000,0.551830078125,0.40453892946243286,0.4795716404914856,0.3712608218193054
1772615956957898000,0.56189794921875,0.41040879487991333,0.4754674434661865,0.33878597617149353
1772615956967966000,0.571966064453125,0.4182133972644806,0.47497665882110596,0.270569771528244
1772615956978034000,0.582033935546875,0.42394161224365234,0.4800283908843994,0.1815386861562729
1772615956988102000,0.592101806640625,0.41159293055534363,0.4844081699848175,0.0801275372505188
1772615956998169900,0.602169921875,0.39299288392066956,0.49575188755989075,-0.04044042155146599
1772615957008237800,0.61223779296875,0.3733934760093689,0.5148411989212036,-0.15497198700904846
1772615957018306000,0.62230615234375,0.3677973747253418,0.5180193781852722,-0.26461857557296753
1772615957028374000,0.6323740234375,0.3808894455432892,0.4965693950653076,-0.3584749698638916
1772615957038442800,0.64244287109375,0.4011014997959137,0.47219187021255493,-0.4326501190662384
1772615957048511000,0.652510986328125,0.41614845395088196,0.4589138329029083,-0.4528230130672455
1772615957058579000,0.662578857421875,0.4143417775630951,0.44682493805885315,-0.441841721534729
1772615957068647000,0.67264697265625,0.3965766131877899,0.438524067401886,-0.37829360365867615
1772615957078715000,0.68271484375,0.3720254600048065,0.4397488534450531,-0.3006778955459595
1772615957088783000,0.692783203125,0.3451612591743469,0.45661264657974243,-0.19549907743930817
1772615957098851000,0.70285107421875,0.32481658458709717,0.4625120759010315,-0.09084456413984299
1772615957108918800,0.712918701171875,0.31478559970855713,0.45841002464294434,-0.005120015703141689
1772615957118986800,0.72298681640625,0.3171938955783844,0.44914594292640686,0.045416660606861115
1772615957129055000,0.733054931640625,0.3245183527469635,0.4374089241027832,0.06655565649271011
1772615957139123000,0.743123046875,0.3308736979961395,0.4263767600059509,0.07012562453746796
1772615957149191000,0.75319091796875,0.33244839310646057,0.4136952757835388,0.05208702012896538
1772615957159260200,0.76326025390625,0.3282243609428406,0.4003576338291168,0.022775737568736076
1772615957169327900,0.773327880859375,0.32647085189819336,0.38516196608543396,-0.01180552039295435
1772615957179395800,0.783395751953125,0.3206811547279358,0.37251195311546326,-0.027162637561559677
1772615957189463800,0.7934638671875,0.3145412504673004,0.3546087443828583,-0.020416924729943275
1772615957199532000,0.803531982421875,0.30829668045043945,0.32932788133621216,0.0005091296043246984
1772615957209600000,0.81360009765625,0.30448633432388306,0.30994096398353577,0.0263372715562582
1772615957219668000,0.82366796875,0.2910557687282562,0.2988012135028839,0.0708157867193222
1772615957229736000,0.83373583984375,0.2758719325065613,0.2698349356651306,0.12701746821403503
1772615957239804000,0.843803955078125,0.2505868077278137,0.2375054657459259,0.18516600131988525
1772615957249872000,0.853871826171875,0.22244639694690704,0.2161809206008911,0.2373727262020111
1772615957259939800,0.86393994140625,0.19185200333595276,0.2012387216091156,0.2649553418159485
1772615957270007800,0.8740078125,0.1697884202003479,0.179868683218956,0.27643081545829773
1772615957280076000,0.884075927734375,0.1550600677728653,0.16094426810741425,0.271884024143219
1772615957290145000,0.89414501953125,0.13221587240695953,0.14735567569732666,0.2621011435985565
1772615957300212700,0.904212646484375,0.08844656497240067,0.13713578879833221,0.25412043929100037
1772615957310281000,0.914281005859375,0.02811894752085209,0.1399136781692505,0.2584801912307739
1772615957320349000,0.924348876953125,-0.03276144713163376,0.1350211799144745,0.2697419226169586
1772615957330417000,0.9344169921875,-0.08083537220954895,0.12548235058784485,0.2816510498523712
1772615957340484900,0.94448486328125,-0.10283254832029343,0.09305782616138458,0.2956734001636505
1772615957350553000,0.954552978515625,-0.08653635531663895,0.04544937610626221,0.2872183322906494
1772615957360621000,0.96462109375,-0.049747712910175323,0.00578345637768507,0.2564455270767212
1772615957370689000,0.97468896484375,-0.03000427596271038,-0.041782885789871216,0.20454801619052887
1772615957380756700,0.9847568359375,-0.03850029408931732,-0.07655976712703705,0.145490825176239
1772615957390825000,0.994824951171875,-0.0725196897983551,-0.0919032096862793,0.08862073719501495
1772615957400893000,1.004892822265625,-0.11642429977655411,-0.09838268160820007,0.048178769648075104
1772615957410962000,1.0149619140625,-0.14445950090885162,-0.08648335933685303,0.00421226117759943
1772615957421030100,1.025030029296875,-0.1581428200006485,-0.06553440541028976,-0.04082472249865532
1772615957431098000,1.03509814453125,-0.16100652515888214,-0.0036138352006673813,-0.07426438480615616
1772615957441165800,1.045165771484375,-0.17569652199745178,0.05344252660870552,-0.08480357378721237
1772615957451233800,1.05523388671875,-0.1903867870569229,0.10468162596225739,-0.05508427694439888
1772615957461302000,1.065302001953125,-0.1872629076242447,0.14021779596805573,0.0004423651844263077
1772615957471370000,1.075369873046875,-0.17070510983467102,0.16580156981945038,0.07111817598342896
1772615957481438000,1.08543798828125,-0.14822910726070404,0.17802654206752777,0.13138337433338165
1772615957491506000,1.095505859375,-0.11330336332321167,0.17556113004684448,0.20249991118907928
1772615957501574100,1.10557421875,-0.07462067902088165,0.17479707300662994,0.26684215664863586
1772615957511641900,1.115641845703125,-0.048102788627147675,0.16633301973342896,0.3161833584308624
1772615957521709800,1.125709716796875,-0.028140796348452568,0.14627088606357574,0.36269092559814453
1772615957531779000,1.135779052734375,-0.0038168400060385466,0.12892858684062958,0.3902810513973236
1772615957541847000,1.145846923828125,0.019453328102827072,0.1172836497426033,0.3961133658885956
1772615957551915000,1.1559150390625,0.04301533102989197,0.11694396287202835,0.38023942708969116
1772615957561983000,1.16598291015625,0.045587144792079926,0.12257281690835953,0.34659865498542786
1772615957572051000,1.176051025390625,0.024493519216775894,0.14437203109264374,0.2853783071041107
1772615957582119000,1.186118896484375,-0.019624406471848488,0.16989363729953766,0.2003110945224762
1772615957592187000,1.196186767578125,-0.07135503739118576,0.20152263343334198,0.1008511632680893
1772615957602254800,1.2062548828125,-0.1241503432393074,0.2257922887802124,-0.008059073239564896
1772615957612323000,1.216322998046875,-0.1636703759431839,0.23736439645290375,-0.11578170210123062
1772615957622391000,1.22639111328125,-0.17040178179740906,0.24648864567279816,-0.19345252215862274
1772615957632459000,1.236458984375,-0.17040447890758514,0.2258310168981552,-0.23158438503742218
1772615957642527000,1.24652685546875,-0.15814568102359772,0.19959887862205505,-0.23412850499153137
1772615957652596000,1.256595947265625,-0.1355101615190506,0.169313445687294,-0.1958271563053131
1772615957662664000,1.266663818359375,-0.10766442865133286,0.12286925315856934,-0.12470317631959915
1772615957672732000,1.27673193359375,-0.0709434226155281,0.07311730086803436,-0.05281325429677963
1772615957682800000,1.286800048828125,-0.03397155553102493,0.04040888696908951,0.015640107914805412
1772615957692868000,1.2968681640625,0.009019297547638416,0.0034577250480651855,0.052974212914705276
1772615957702935800,1.306935791015625,0.04614775627851486,-0.023805053904652596,0.06729136407375336
1772615957713003800,1.317003662109375,0.07282181084156036,-0.03174862265586853,0.060035355389118195
1772615957723072000,1.327072021484375,0.10191817581653595,-0.03186127170920372,0.02871871553361416
1772615957733140000,1.337139892578125,0.14553093910217285,-0.0389946773648262,0.003956539556384087
1772615957743208000,1.3472080078125,0.18901024758815765,-0.046358317136764526,-0.01570717617869377
1772615957753276000,1.35727587890625,0.21378636360168457,-0.02897723950445652,-0.041710373014211655
1772615957763344100,1.36734423828125,0.22104640305042267,0.0242694690823555,-0.06086302548646927
1772615957773412000,1.377412109375,0.216522216796875,0.06861599534749985,-0.0868176817893982
1772615957783480800,1.387480712890625,0.20611485838890076,0.12462999671697617,-0.10535940527915955
1772615957793549000,1.397549072265625,0.19505856931209564,0.1986701935529709,-0.12366481870412827
1772615957803616800,1.40761669921875,0.18200774490833282,0.264728307723999,-0.13889436423778534
1772615957813684700,1.417684814453125,0.1868501901626587,0.31490904092788696,-0.14557678997516632
1772615957823752700,1.427752685546875,0.20963487029075623,0.35860884189605713,-0.14715950191020966
1772615957833821000,1.437821044921875,0.24364124238491058,0.38133862614631653,-0.15163539350032806
1772615957843888600,1.447888671875,0.293465256690979,0.3910927176475525,-0.14145386219024658
1772615957853956600,1.45795654296875,0.34302037954330444,0.3804265260696411,-0.11415188014507294
1772615957864024600,1.468024658203125,0.38945767283439636,0.35999128222465515,-0.07009920477867126
1772615957874092800,1.4780927734375,0.42703184485435486,0.33336761593818665,-0.014162756502628326
1772615957884160800,1.488160888671875,0.46864426136016846,0.3039255738258362,0.0405830442905426
1772615957894228700,1.498228759765625,0.5049472451210022,0.2502351999282837,0.08746619522571564
1772615957904296700,1.508296630859375,0.5312821865081787,0.1886080801486969,0.11245889216661453
1772615957914365700,1.51836572265625,0.5469729900360107,0.15425480902194977,0.09923756122589111
1772615957924433700,1.52843359375,0.5549377202987671,0.12041188031435013,0.06983040273189545
1772615957934501600,1.538501708984375,0.5481969714164734,0.08155344426631927,0.03435402363538742
1772615957944569900,1.54856982421875,0.5411180257797241,0.045038312673568726,-0.010643811896443367
1772615957954637800,1.558637939453125,0.5248657464981079,0.04265099763870239,-0.05027574300765991
1772615957964705800,1.568705810546875,0.4960883855819702,0.05167964845895767,-0.06863263994455338
1772615957974773800,1.578773681640625,0.4629284739494324,0.05616307258605957,-0.06394314020872116
1772615957984841700,1.588841796875,0.43172314763069153,0.060339976102113724,-0.05792013928294182
1772615957994909700,1.59890966796875,0.3958978056907654,0.07877455651760101,-0.05623921751976013
1772615958004977700,1.608977783203125,0.3598490059375763,0.09195694327354431,-0.04665450006723404
1772615958015045600,1.619045654296875,0.3282434642314911,0.09430970996618271,-0.038350336253643036
1772615958025113900,1.62911376953125,0.29705676436424255,0.09403646737337112,-0.02368430607020855
1772615958035182600,1.6391826171875,0.26274365186691284,0.10424129664897919,-0.013488348573446274
1772615958045250600,1.64925048828125,0.22740350663661957,0.10821020603179932,0.003871466498821974
1772615958055318800,1.65931884765625,0.1955196112394333,0.11914749443531036,0.020585160702466965
1772615958065386800,1.66938671875,0.1682906597852707,0.12611086666584015,0.04162253439426422
1772615958075454700,1.679454833984375,0.1516811102628708,0.12834852933883667,0.04666278883814812
1772615958085522700,1.689522705078125,0.1444532871246338,0.1334277093410492,0.04553307592868805
1772615958095591000,1.6995908203125,0.13165287673473358,0.14192445576190948,0.02975715510547161
1772615958105659000,1.709658935546875,0.11855146288871765,0.14662866294384003,0.023477688431739807
1772615958115726600,1.7197265625,0.10100945830345154,0.149398073554039,0.021626248955726624
1772615958125794600,1.729794677734375,0.07923731952905655,0.15227481722831726,0.018371067941188812
1772615958135862800,1.73986279296875,0.054597776383161545,0.16958005726337433,0.020768720656633377
1772615958145930800,1.7499306640625,0.03210285305976868,0.18469935655593872,0.016026696190238
1772615958155998700,1.759998779296875,0.013070349581539631,0.20139388740062714,0.001844971440732479
1772615958166067700,1.770067626953125,-0.005513188429176807,0.22589950263500214,-0.015399795025587082
1772615958176135700,1.7801357421875,-0.01595115102827549,0.24876563251018524,-0.04373799264431
1772615958186203600,1.79020361328125,-0.014621967449784279,0.2630084753036499,-0.07653108984231949
1772615958196271600,1.800271728515625,-0.008696097880601883,0.278453528881073,-0.11192814260721207
1772615958206339800,1.81033984375,-0.0024608387611806393,0.30479779839515686,-0.1349399834871292
1772615958216407800,1.82040771484375,-0.0006590133416466415,0.33302217721939087,-0.14400999248027802
1772615958226475800,1.830475830078125,-0.0020603686571121216,0.34942111372947693,-0.11734136939048767
1772615958236543700,1.840543701171875,-0.0003877286799252033,0.3552382290363312,-0.05908854305744171
1772615958246611700,1.85061181640625,0.012419412843883038,0.32636716961860657,0.001740716164931655
1772615958256679700,1.8606796875,0.05174469202756882,0.28689876198768616,0.04106846824288368
1772615958266747600,1.87074755859375,0.09809195250272751,0.2662971019744873,0.05101723596453667
1772615958276815600,1.880815673828125,0.11257181316614151,0.24748164415359497,0.04270181804895401
1772615958286884900,1.890884765625,0.09822962433099747,0.23448088765144348,0.03608386218547821
1772615958296952800,1.900952880859375,0.06908302009105682,0.2278454750776291,0.04099583625793457
1772615958307020500,1.9110205078125,0.037136804312467575,0.2333614081144333,0.057878147810697556
1772615958317088800,1.9210888671875,0.00984241347759962,0.24116350710391998,0.08392559736967087
1772615958327156700,1.93115673828125,0.012315956875681877,0.248877614736557,0.12285196036100388
1772615958337224700,1.941224609375,0.013107881881296635,0.2480515092611313,0.1592322736978531
1772615958347292700,1.951292724609375,0.009214340709149837,0.2246556282043457,0.20046812295913696
1772615958357361000,1.96136083984375,0.005131873302161694,0.20567618310451508,0.22574251890182495
1772615958367428900,1.971428955078125,0.00513826496899128,0.18178895115852356,0.24104423820972443
1772615958377496800,1.981496826171875,0.0007627567974850535,0.14529484510421753,0.2560576796531677
1772615958387564500,1.991564453125,0.00894558522850275,0.1238822266459465,0.2655356228351593
1772615958397632800,2.0016328125,0.010482154786586761,0.1240876242518425,0.26683059334754944
1772615958407700700,2.01170068359375,-0.003534328658133745,0.135213240981102,0.2754403352737427
1772615958417769700,2.021769775390625,-0.018301421776413918,0.1518002450466156,0.28008323907852173
1772615958427838000,2.031837890625,-0.03840376064181328,0.185264453291893,0.2882996201515198
1772615958437905700,2.04190576171875,-0.06058350205421448,0.21764233708381653,0.28956493735313416
1772615958447973600,2.0519736328125,-0.07975133508443832,0.24396821856498718,0.2824274003505707
1772615958458041600,2.06204150390625,-0.092007577419281,0.26155930757522583,0.26044902205467224
1772615958468109800,2.07210986328125,-0.09084031730890274,0.2849130928516388,0.23269012570381165
1772615958478177800,2.082177734375,-0.06992538273334503,0.3040127158164978,0.21259431540966034
1772615958488245800,2.092245849609375,-0.05155595764517784,0.33186593651771545,0.1714136004447937
1772615958498313700,2.102313720703125,-0.023896582424640656,0.34374377131462097,0.11734785884618759
1772615958508382000,2.1123818359375,0.007420593407005072,0.34335654973983765,0.04994538053870201
1772615958518449700,2.12244970703125,0.02757839299738407,0.3419719636440277,-0.006778735667467117
1772615958528517600,2.132517578125,0.040524281561374664,0.33781716227531433,-0.05758066102862358
1772615958538587000,2.1425869140625,0.050948236137628555,0.33538001775741577,-0.08636213839054108
1772615958548654800,2.15265478515625,0.07766027748584747,0.3460041582584381,-0.10474993288516998
1772615958558722800,2.162722900390625,0.09989442676305771,0.36457666754722595,-0.10412611067295074
1772615958568790800,2.172790771484375,0.12691564857959747,0.35441112518310547,-0.1078026071190834
1772615958578858800,2.182858642578125,0.178205206990242,0.3703743815422058,-0.11011955142021179
1772615958588926700,2.1929267578125,0.22548358142375946,0.35804763436317444,-0.11815842986106873
1772615958598994700,2.20299462890625,0.2714444398880005,0.3562656342983246,-0.12564890086650848
1772615958609062700,2.213062744140625,0.2963489890098572,0.3301440179347992,-0.1320098638534546
1772615958619131000,2.223130859375,0.31751373410224915,0.26930636167526245,-0.12824052572250366
1772615958629198800,2.23319873046875,0.32935813069343567,0.20778577029705048,-0.12002094835042953
1772615958639266800,2.243266845703125,0.3262300193309784,0.14338575303554535,-0.10541412979364395
1772615958649334800,2.253334716796875,0.3112148344516754,0.08969908952713013,-0.06716234982013702
1772615958659402800,2.26340283203125,0.2736707627773285,0.03131188824772835,-0.0016295663081109524
1772615958669470700,2.273470703125,0.21868844330310822,-0.005392598453909159,0.09457819908857346
1772615958679539700,2.283539794921875,0.1394701600074768,-0.047812651842832565,0.21572008728981018
1772615958689607700,2.293607666015625,0.05842484161257744,-0.018870214000344276,0.31445279717445374
1772615958699676000,2.303676025390625,0.008186926133930683,-0.01422323752194643,0.40200433135032654
1772615958709743600,2.31374365234375,-0.012481067329645157,-0.017125017940998077,0.45821303129196167
1772615958719811600,2.3238115234375,-0.0331621952354908,-0.031284138560295105,0.45544537901878357
1772615958729879800,2.3338798828125,-0.05055849254131317,-0.03907042369246483,0.38815823197364807
1772615958739947800,2.34394775390625,-0.0599931962788105,-0.029673298820853233,0.28225263953208923
1772615958750015700,2.354015625,-0.0555955171585083,-0.02730468474328518,0.15180063247680664
1772615958760083700,2.364083740234375,-0.037580519914627075,-0.02287939377129078,-0.001978344516828656
1772615958770152000,2.37415185546875,-0.0019104076782241464,-0.022211739793419838,-0.16538111865520477
1772615958780220000,2.384219970703125,0.044460002332925797,-0.008731997571885586,-0.31850728392601013
1772615958790287600,2.39428759765625,0.09383607655763626,0.006907415576279163,-0.4474969506263733
1772615958800356400,2.4043564453125,0.13260510563850403,0.026910139247775078,-0.5339147448539734
1772615958810424600,2.414424560546875,0.14917556941509247,0.05966728553175926,-0.5700541138648987
1772615958820492500,2.424492431640625,0.15235905349254608,0.08465249836444855,-0.5496255159378052
1772615958830560500,2.434560546875,0.14765484631061554,0.09986846894025803,-0.4877418577671051
1772615958840628500,2.44462841796875,0.1424233615398407,0.0932060033082962,-0.39694327116012573
1772615958850696400,2.454696533203125,0.14729854464530945,0.0740237832069397,-0.2931670844554901
1772615958860764400,2.464764404296875,0.1599658727645874,0.041322946548461914,-0.1776847243309021
1772615958870832400,2.474832275390625,0.17554670572280884,-0.010322672314941883,-0.06292937695980072
1772615958880900400,2.484900390625,0.17542597651481628,-0.06367569416761398,0.04031408950686455
1772615958890968600,2.494968505859375,0.160185769200325,-0.09697319567203522,0.12198018282651901
1772615958901036500,2.50503662109375,0.13048502802848816,-0.12253342568874359,0.183719664812088
1772615958911104500,2.5151044921875,0.08275319635868073,-0.13437144458293915,0.21264664828777313
1772615958921173200,2.52517333984375,0.041435759514570236,-0.136124387383461,0.21570385992527008
1772615958931241500,2.535241455078125,0.010091684758663177,-0.13682134449481964,0.1835307478904724
1772615958941309400,2.545309326171875,-0.00022731488570570946,-0.1314442902803421,0.13780730962753296
1772615958951377400,2.55537744140625,-0.0032441439107060432,-0.11836683750152588,0.0792505145072937
1772615958961445400,2.5654453125,-0.00368368998169899,-0.11612719297409058,0.016969557851552963
1772615958971513600,2.575513671875,0.0015677971532568336,-0.11690110713243484,-0.035440653562545776
1772615958981581600,2.58558154296875,0.01140308566391468,-0.11029615998268127,-0.07536966353654861
1772615958991649300,2.595649169921875,0.020328402519226074,-0.10403160750865936,-0.0998140200972557
1772615959001717200,2.60571728515625,0.024812258780002594,-0.10994166135787964,-0.1089651957154274
1772615959011785500,2.615785400390625,0.03148161247372627,-0.1034611240029335,-0.11287711560726166
1772615959021853400,2.625853515625,0.03060782328248024,-0.09360631555318832,-0.10839550942182541
1772615959031921400,2.63592138671875,0.032028086483478546,-0.08556489646434784,-0.10041428357362747
1772615959041989600,2.64598974609375,0.03154938295483589,-0.07821214944124222,-0.07718728482723236
1772615959052058400,2.656058349609375,0.03338270261883736,-0.07540198415517807,-0.04522455856204033
1772615959062126300,2.666126220703125,0.03141185641288757,-0.07368680834770203,0.0036182659678161144
1772615959072194300,2.6761943359375,0.026667168363928795,-0.07209556549787521,0.05612035468220711
1772615959082262500,2.686262451171875,0.020391013473272324,-0.07160548120737076,0.10308290272951126
1772615959092330500,2.69633056640625,-0.007877909578382969,-0.06237763166427612,0.10853652656078339
1772615959102398500,2.7063984375,-0.0062383608892560005,-0.035178542137145996,0.12471072375774384
1772615959112466400,2.716466552734375,-0.012603316456079483,-0.05536583438515663,0.15841622650623322
1772615959122534400,2.726534423828125,-0.006140231620520353,-0.09405722469091415,0.1792469471693039
1772615959132602400,2.736602294921875,0.011795093305408955,-0.0958295613527298,0.16235105693340302
1772615959142670300,2.74667041015625,0.033696215599775314,-0.09193618595600128,0.10874894261360168
1772615959152738300,2.75673828125,0.035392649471759796,-0.09463690221309662,0.05210616812109947
1772615959162806500,2.766806640625,0.008833990432322025,-0.08144611120223999,-0.013554048724472523
1772615959172874500,2.77687451171875,-0.027657708153128624,-0.06236695498228073,-0.06580260396003723
1772615959182943200,2.786943115234375,-0.04849045351147652,-0.03122793883085251,-0.12179311364889145
1772615959193011500,2.797011474609375,-0.056726809591054916,0.015675920993089676,-0.17086584866046906
1772615959203079400,2.807079345703125,-0.058107856661081314,0.07400345057249069,-0.21252799034118652
1772615959213147400,2.8171474609375,-0.06510824710130692,0.12412760406732559,-0.23545007407665253
1772615959223215400,2.82721533203125,-0.08060774207115173,0.18542687594890594,-0.2232699990272522
1772615959233283600,2.83728369140625,-0.09260474890470505,0.24502575397491455,-0.18404002487659454
1772615959243351600,2.8473515625,-0.09520681947469711,0.2956388592720032,-0.12509062886238098
1772615959253419500,2.85741943359375,-0.0697278305888176,0.3189825117588043,-0.06396549940109253
1772615959263487200,2.8674873046875,-0.030951296910643578,0.33734631538391113,-0.0011971647618338466
1772615959273555500,2.877555419921875,0.014010319486260414,0.35205522179603577,0.055445872247219086
1772615959283623400,2.88762353515625,0.06268546730279922,0.361622154712677,0.10907496511936188
1772615959293691400,2.89769140625,0.09754464775323868,0.3542116582393646,0.17083792388439178
1772615959303760600,2.9077607421875,0.12353606522083282,0.3404732048511505,0.22701092064380646
1772615959313828400,2.917828369140625,0.14870214462280273,0.32422739267349243,0.28399109840393066
1772615959323896300,2.927896240234375,0.174778014421463,0.2935059666633606,0.3464529514312744
1772615959333964300,2.93796435546875,0.19077029824256897,0.24937979876995087,0.397704154253006
1772615959344032500,2.948032470703125,0.1939021497964859,0.19783642888069153,0.42046523094177246
1772615959354100500,2.9581005859375,0.18804877996444702,0.15899421274662018,0.41309916973114014
1772615959364168400,2.96816845703125,0.15995489060878754,0.1312696635723114,0.37973901629447937
1772615959374236400,2.978236328125,0.11307793110609055,0.09957912564277649,0.33078718185424805
1772615959384304600,2.9883046875,0.06770884990692139,0.06887873262166977,0.2538455128669739
1772615959394372400,2.998372314453125,0.024739013984799385,0.031424567103385925,0.16994290053844452
1772615959404440300,3.0084404296875,-0.0194378774613142,0.00667218305170536,0.10019650310277939
1772615959414508300,3.01850830078125,-0.06637901812791824,-0.010405071079730988,0.034037720412015915
1772615959424576500,3.028576416015625,-0.10993693768978119,-0.00679012993350625,-0.014815757982432842
1772615959434645500,3.0386455078125,-0.12930850684642792,0.004053729586303234,-0.044580843299627304
1772615959444713500,3.04871337890625,-0.13710832595825195,0.009206065908074379,-0.0595950111746788
1772615959454781400,3.058781494140625,-0.12111552059650421,0.019358035176992416,-0.0646883100271225
1772615959464849400,3.068849365234375,-0.08628644794225693,0.028983011841773987,-0.05943092703819275
1772615959474917400,3.07891748046875,-0.040762364864349365,0.031124992296099663,-0.05491979792714119
1772615959484985300,3.0889853515625,0.0009129438549280167,0.049304552376270294,-0.06660636514425278
1772615959495053600,3.099053466796875,0.0202496238052845,0.08508465439081192,-0.09421056509017944
1772615959505121500,3.10912158203125,0.01765930838882923,0.12810741364955902,-0.12428511679172516
1772615959515189500,3.119189453125,0.008621337823569775,0.16580791771411896,-0.14810124039649963
1772615959525257500,3.129257568359375,0.008739210665225983,0.20826013386249542,-0.1597776859998703
1772615959535325400,3.139325439453125,0.028007980436086655,0.2490597665309906,-0.15240152180194855
1772615959545393400,3.149393310546875,0.05824336037039757,0.28654733300209045,-0.12730568647384644
1772615959555461400,3.15946142578125,0.09209693223237991,0.3040160536766052,-0.08407725393772125
1772615959565530600,3.169530517578125,0.13225574791431427,0.30885833501815796,-0.03114549070596695
1772615959575598600,3.1795986328125,0.17543411254882812,0.303400456905365,0.01723509095609188
1772615959585666300,3.189666259765625,0.21792031824588776,0.2964562773704529,0.06115034967660904
1772615959595734300,3.199734375,0.26312536001205444,0.3007764518260956,0.09472136199474335
1772615959605802500,3.209802490234375,0.28889840841293335,0.303511381149292,0.12777002155780792
1772615959615870500,3.219870361328125,0.30075693130493164,0.3013609051704407,0.13993427157402039
1772615959625938400,3.2299384765625,0.3065461218357086,0.3039364218711853,0.135779470205307
1772615959636006400,3.24000634765625,0.3240090012550354,0.3038727939128876,0.10296480357646942
1772615959646074600,3.25007470703125,0.34559449553489685,0.29217642545700073,0.05228846147656441
1772615959656142600,3.260142578125,0.3799213171005249,0.2792086899280548,-0.010372258722782135
1772615959666210300,3.270210205078125,0.4072990417480469,0.26096421480178833,-0.07061512023210526
1772615959676278300,3.2802783203125,0.43467020988464355,0.23575764894485474,-0.12970533967018127
1772615959686347500,3.290347412109375,0.4559210240840912,0.2102663666009903,-0.1818055361509323
1772615959696415500,3.30041552734375,0.47317802906036377,0.1988760232925415,-0.21733956038951874
1772615959706483500,3.3104833984375,0.48761144280433655,0.19764302670955658,-0.243148535490036
1772615959716551400,3.320551513671875,0.5018132328987122,0.2001360058784485,-0.2385047823190689
1772615959726619400,3.330619384765625,0.5025933384895325,0.20941901206970215,-0.22255787253379822
1772615959736687400,3.340687255859375,0.49886736273765564,0.2165762484073639,-0.20081423223018646
1772615959746755300,3.35075537109375,0.49526408314704895,0.2309636026620865,-0.1670146882534027
1772615959756823600,3.360823486328125,0.48796939849853516,0.2607609033584595,-0.12516897916793823
1772615959766891500,3.3708916015625,0.4778181314468384,0.29657062888145447,-0.08191394060850143
1772615959776959500,3.38095947265625,0.46735668182373047,0.3304063677787781,-0.035636454820632935
1772615959787027500,3.39102734375,0.45399409532546997,0.3703058660030365,0.004514783155173063
1772615959797095400,3.401095458984375,0.4436495900154114,0.4045219123363495,0.04012604057788849
1772615959807163100,3.4111630859375,0.4429512023925781,0.4303041100502014,0.07203865796327591
1772615959817232100,3.421232177734375,0.44857552647590637,0.44493046402931213,0.08574727922677994
1772615959827300400,3.43130029296875,0.4544083774089813,0.4613732099533081,0.08230010420084
1772615959837368300,3.441368408203125,0.4567982852458954,0.4689973294734955,0.05618301406502724
1772615959847436300,3.451436279296875,0.44831350445747375,0.4780004918575287,0.01347331702709198
1772615959857504300,3.461504150390625,0.42746439576148987,0.49539706110954285,-0.028009410947561264
1772615959867572200,3.471572265625,0.3944558799266815,0.5134581923484802,-0.06777477264404297
1772615959877640200,3.48164013671875,0.3635466992855072,0.5479674339294434,-0.09090752899646759
1772615959887708200,3.491708251953125,0.3307231366634369,0.5767366290092468,-0.0978599563241005
1772615959897776000,3.501776123046875,0.30808597803115845,0.5871967077255249,-0.10614106059074402
1772615959907844400,3.51184423828125,0.2985399067401886,0.5988926887512207,-0.1153482124209404
1772615959917912300,3.521912353515625,0.300939679145813,0.6022360324859619,-0.12915217876434326
1772615959927980300,3.531980224609375,0.3078670799732208,0.5979111790657043,-0.13129787147045135
1772615959938048000,3.542048095703125,0.3160482943058014,0.5853674411773682,-0.12404873967170715
1772615959948117200,3.5521171875,0.31547895073890686,0.5781005024909973,-0.09574338793754578
1772615959958185200,3.562185302734375,0.3114472031593323,0.5741814374923706,-0.05239404737949371
1772615959968253200,3.572253173828125,0.3014993667602539,0.5716248750686646,-0.0008714601863175631
1772615959978321400,3.5823212890625,0.2806124687194824,0.5856307148933411,0.05114513635635376
1772615959988389400,3.592389404296875,0.26397842168807983,0.5860636234283447,0.11092574894428253
1772615959998457000,3.60245703125,0.26197704672813416,0.5652750134468079,0.18211817741394043
1772615960008525000,3.612525146484375,0.2709712088108063,0.5646816492080688,0.2550784647464752
1772615960018593300,3.62259326171875,0.2679905891418457,0.5684577822685242,0.3140304684638977
1772615960028661200,3.6326611328125,0.26449665427207947,0.5616908669471741,0.3661149740219116
1772615960038729200,3.642729248046875,0.2570355236530304,0.526732325553894,0.4037952423095703
1772615960048797200,3.652797119140625,0.269510954618454,0.4740765392780304,0.40095534920692444
1772615960058865400,3.662865478515625,0.29928404092788696,0.4311900734901428,0.3471565544605255
1772615960068934100,3.67293408203125,0.327018678188324,0.39453041553497314,0.2609724700450897
1772615960079002000,3.683002197265625,0.3254261016845703,0.3599604666233063,0.14663764834403992
1772615960089070300,3.6930703125,0.28643208742141724,0.34820520877838135,0.05256437882781029
1772615960099138300,3.70313818359375,0.2317989617586136,0.34834155440330505,-0.012668420560657978
1772615960109206300,3.713206298828125,0.18326954543590546,0.3671276867389679,-0.030112726613879204
1772615960119274200,3.723274169921875,0.14013032615184784,0.4013948440551758,-0.018344217911362648
1772615960129342200,3.73334228515625,0.11423633992671967,0.4461040794849396,0.016722846776247025
1772615960139410200,3.74341015625,0.09840038418769836,0.4796639084815979,0.06314601004123688
1772615960149478100,3.75347802734375,0.0928225889801979,0.4975830316543579,0.11847279220819473
1772615960159546000,3.763546142578125,0.09759390354156494,0.48949742317199707,0.17013145983219147
1772615960169614300,3.7736142578125,0.11898321658372879,0.4633030891418457,0.21033026278018951
1772615960179682300,3.783682373046875,0.1519070863723755,0.43659719824790955,0.23817548155784607
1772615960189751000,3.7937509765625,0.18598994612693787,0.4039071500301361,0.2512553036212921
1772615960199819300,3.8038193359375,0.21365566551685333,0.3677515387535095,0.2452898472547531
1772615960209887200,3.81388720703125,0.23236092925071716,0.3420732021331787,0.22811083495616913
1772615960219955200,3.823955078125,0.2426772117614746,0.3319406509399414,0.20597517490386963
1772615960230023200,3.834023193359375,0.24645955860614777,0.3403954803943634,0.18725423514842987
1772615960240091400,3.84409130859375,0.24627232551574707,0.3583017885684967,0.17867112159729004
1772615960250159400,3.854159423828125,0.2424144595861435,0.38225308060646057,0.16576039791107178
1772615960260227300,3.864227294921875,0.24525712430477142,0.4102402329444885,0.1386701911687851
1772615960270295000,3.874294921875,0.2598358988761902,0.4351469874382019,0.09933540225028992
1772615960280363300,3.88436328125,0.27978459000587463,0.4500889182090759,0.05462917685508728
1772615960290431200,3.89443115234375,0.3195544481277466,0.460502564907074,-0.0009040419245138764
1772615960300499200,3.904499267578125,0.36469873785972595,0.47237521409988403,-0.06847243010997772
1772615960310567200,3.914567138671875,0.41065239906311035,0.48420825600624084,-0.13975009322166443
1772615960320636200,3.92463623046875,0.4462657868862152,0.5064728260040283,-0.19511215388774872
1772615960330704100,3.9347041015625,0.47184476256370544,0.5409247279167175,-0.22478048503398895
1772615960340772000,3.944772216796875,0.488799512386322,0.5777578353881836,-0.23678095638751984
1772615960350840300,3.95484033203125,0.5007822513580322,0.6302696466445923,-0.21630555391311646
1772615960360908300,3.964908203125,0.5270453095436096,0.6839568614959717,-0.188096821308136
1772615960370976300,3.974976318359375,0.5663557052612305,0.7417173385620117,-0.1489103138446808
1772615960381044200,3.985044189453125,0.6113583445549011,0.7981991767883301,-0.11403807252645493
1772615960391112400,3.995112548828125,0.6597140431404114,0.8328351378440857,-0.07941325753927231
1772615960401180200,4.00518017578125,0.7096301913261414,0.8448129892349243,-0.06336238980293274
1772615960411248000,4.015248046875,0.7664808034896851,0.848778486251831,-0.0672510415315628
1772615960421316000,4.025316162109375,0.817308783531189,0.840178370475769,-0.08260363340377808
1772615960431384300,4.03538427734375,0.8600723743438721,0.8344387412071228,-0.10004176944494247
1772615960441452300,4.045452392578125,0.8781246542930603,0.8451142907142639,-0.11325743794441223
1772615960451521300,4.055521240234375,0.8686373233795166,0.8470005989074707,-0.11525939404964447
1772615960461589200,4.06558935546875,0.8416701555252075,0.8507772088050842,-0.10284960269927979
1772615960471657200,4.0756572265625,0.7962257266044617,0.8696610927581787,-0.07640646398067474
1772615960481725200,4.08572509765625,0.7386415600776672,0.879654586315155,-0.04352521896362305
1772615960491793200,4.095793212890625,0.6808255910873413,0.8633099794387817,0.006097706500440836
1772615960501861400,4.105861328125,0.6293362975120544,0.8527116179466248,0.06416420638561249
1772615960511929300,4.115929443359375,0.5787158608436584,0.8480085730552673,0.1317514032125473
1772615960521997300,4.125997314453125,0.5442950129508972,0.8376134634017944,0.18760986626148224
1772615960532065300,4.136065185546875,0.5255468487739563,0.8191920518875122,0.2229350060224533
1772615960542133200,4.14613330078125,0.5230820775032043,0.8016058802604675,0.23407314717769623
1772615960552201200,4.156201171875,0.5255570411682129,0.7795400619506836,0.22898820042610168
1772615960562269200,4.166269287109375,0.5288516283035278,0.7577410340309143,0.2010210156440735
1772615960572337200,4.176337158203125,0.5283735990524292,0.7448510527610779,0.15829592943191528
1772615960582406400,4.186406494140625,0.5309805274009705,0.7425394058227539,0.09312836825847626
1772615960592474000,4.19647412109375,0.5202754139900208,0.738662838935852,0.013874432072043419
1772615960602542000,4.2065419921875,0.5005747079849243,0.7520944476127625,-0.06290583312511444
1772615960612610300,4.2166103515625,0.4801621735095978,0.7657868266105652,-0.14172498881816864
1772615960622678300,4.22667822265625,0.4664594233036041,0.7759147882461548,-0.20614738762378693
1772615960632746200,4.236746337890625,0.46230486035346985,0.7867988348007202,-0.2514841556549072
1772615960642814200,4.246814208984375,0.4624995291233063,0.8096565008163452,-0.28613799810409546
1772615960652882400,4.25688232421875,0.46114158630371094,0.8144888877868652,-0.29631534218788147
1772615960662950400,4.266950439453125,0.46009257435798645,0.806003749370575,-0.2928985059261322
1772615960673018000,4.27701806640625,0.4622640013694763,0.7896727323532104,-0.2809195816516876
1772615960683086000,4.287086181640625,0.4602668881416321,0.7773417830467224,-0.2578483521938324
1772615960693154300,4.297154296875,0.4493303596973419,0.7791088819503784,-0.22565957903862
1772615960703223300,4.307223388671875,0.4343003034591675,0.7975608706474304,-0.18733908236026764
1772615960713291300,4.317291259765625,0.4153704345226288,0.8197811841964722,-0.1403454840183258
1772615960723359200,4.327359130859375,0.4059351086616516,0.8509265780448914,-0.10452757030725479
1772615960733427200,4.33742724609375,0.4067937731742859,0.8681027889251709,-0.07372954487800598
1772615960743495200,4.3474951171875,0.4212832450866699,0.883123517036438,-0.048617273569107056
1772615960753563100,4.357563232421875,0.4470506012439728,0.878470242023468,-0.03230294585227966
1772615960763631400,4.36763134765625,0.48129698634147644,0.8742800354957581,-0.019663048908114433
1772615960773699300,4.37769921875,0.5157430171966553,0.8680387735366821,-0.015365973114967346
1772615960783767300,4.387767333984375,0.5452002882957458,0.8473814725875854,-0.008580505847930908
1772615960793835300,4.397835205078125,0.5693546533584595,0.8235328197479248,0.007606955710798502
1772615960803903700,4.40790380859375,0.5771308541297913,0.8093836903572083,0.029637955129146576
1772615960813971700,4.4179716796875,0.5736857652664185,0.7945775985717773,0.05537287890911102
1772615960824041000,4.428041015625,0.5707623958587646,0.7724208831787109,0.09040889143943787
1772615960834109000,4.43810888671875,0.5664218664169312,0.7503925561904907,0.1263306885957718
1772615960844177000,4.448177001953125,0.558152437210083,0.7137759923934937,0.15378308296203613
1772615960854244600,4.45824462890625,0.5493178367614746,0.6632755398750305,0.1830480843782425
1772615960864312800,4.468312744140625,0.5323324203491211,0.6043544411659241,0.20000337064266205
1772615960874380800,4.478380859375,0.5131968259811401,0.5347323417663574,0.20102253556251526
1772615960884448800,4.48844873046875,0.4915791451931,0.4591944217681885,0.17668524384498596
1772615960894516700,4.498516845703125,0.46801069378852844,0.38982105255126953,0.1360030472278595
1772615960904585000,4.5085849609375,0.43951886892318726,0.3377586305141449,0.08382213115692139
1772615960914653000,4.51865283203125,0.3965485095977783,0.30525901913642883,0.027498668059706688
1772615960924720600,4.528720703125,0.3431928753852844,0.31712448596954346,-0.022947460412979126
1772615960934788600,4.53878857421875,0.2714230716228485,0.34145763516426086,-0.03845559433102608
1772615960944856800,4.54885693359375,0.19639837741851807,0.3841582238674164,-0.03635675832629204
1772615960954925800,4.55892578125,0.12809982895851135,0.4670218527317047,-0.013908633030951023
1772615960964993800,4.568993896484375,0.06297489255666733,0.538933277130127,0.010882733389735222
1772615960975062000,4.57906201171875,0.02342895418405533,0.5826039910316467,0.03453964367508888
1772615960985129700,4.589129638671875,0.02614138461649418,0.604487419128418,0.039816964417696
1772615960995197700,4.59919775390625,0.07790060341358185,0.6088160276412964,0.027669651433825493
1772615961005265700,4.609265625,0.15220493078231812,0.5944980978965759,-0.0025881202891469
1772615961015334000,4.619333984375,0.23507538437843323,0.566059410572052,-0.025578752160072327
1772615961025401900,4.62940185546875,0.30147412419319153,0.5409484505653381,-0.025925230234861374
1772615961035469800,4.6394697265625,0.3465401530265808,0.5380341410636902,-0.012401201762259007
1772615961045537800,4.649537841796875,0.36216676235198975,0.5487751960754395,0.031128430739045143
1772615961055606000,4.65960595703125,0.35933855175971985,0.5773403644561768,0.08416114747524261
1772615961065673700,4.669673828125,0.3499615788459778,0.6086623668670654,0.137517049908638
1772615961075742700,4.67974267578125,0.34868764877319336,0.6413454413414001,0.19286151230335236
1772615961085811000,4.68981103515625,0.35801324248313904,0.665861964225769,0.23019291460514069
1772615961095879000,4.69987890625,0.3720278739929199,0.6937287449836731,0.25373363494873047
1772615961105947000,4.70994677734375,0.3729136288166046,0.7227873206138611,0.25984638929367065
1772615961116014600,4.7200146484375,0.3600728213787079,0.7474138140678406,0.2552013099193573
1772615961126082800,4.730082763671875,0.347553014755249,0.7647408246994019,0.240055114030838
1772615961136150800,4.74015087890625,0.3418216109275818,0.7733362317085266,0.21319636702537537
1772615961146218800,4.75021875,0.32936546206474304,0.7665270566940308,0.19027002155780792
1772615961156286700,4.76028662109375,0.31718710064888,0.7625744342803955,0.1630367934703827
1772615961166355000,4.77035498046875,0.3090554177761078,0.7669881582260132,0.13666322827339172
1772615961176423000,4.7804228515625,0.30297955870628357,0.7580434083938599,0.11534491181373596
1772615961186491000,4.790490966796875,0.2981610894203186,0.7396494746208191,0.09713049232959747
1772615961196558600,4.80055859375,0.29777103662490845,0.7147996425628662,0.08413780480623245
1772615961206627800,4.8106279296875,0.30081796646118164,0.6805205345153809,0.06276087462902069
1772615961216695800,4.82069580078125,0.3030003309249878,0.6503135561943054,0.036679644137620926
1772615961226763800,4.830763671875,0.3109264373779297,0.6287611126899719,0.004743015859276056
1772615961236832000,4.84083203125,0.32057395577430725,0.6023358702659607,-0.039804160594940186
1772615961246900000,4.85089990234375,0.34476879239082336,0.5801173448562622,-0.10613684356212616
1772615961256967700,4.8609677734375,0.3768364191055298,0.5676451921463013,-0.18579883873462677
1772615961267035600,4.87103564453125,0.4051005244255066,0.5731009840965271,-0.27712953090667725
1772615961277103900,4.881103759765625,0.4387657046318054,0.5852978825569153,-0.3662136495113373
1772615961287171800,4.891171875,0.47210583090782166,0.6151763796806335,-0.4471646845340729
1772615961297239800,4.90123974609375,0.5043529868125916,0.658073902130127,-0.5146780610084534
1772615961307307800,4.911307861328125,0.5304061770439148,0.7163982391357422,-0.5588026642799377
1772615961317376000,4.9213759765625,0.5531286597251892,0.7805637121200562,-0.5589450597763062
1772615961327444700,4.93144482421875,0.5832042694091797,0.8404837846755981,-0.5285956859588623
1772615961337512700,4.9415126953125,0.6129103899002075,0.9057654142379761,-0.45017120242118835
1772615961347581000,4.951580810546875,0.6547667384147644,0.9674993753433228,-0.3468882143497467
1772615961357649000,4.96164892578125,0.6922479271888733,1.0297541618347168,-0.22549600899219513
1772615961367716900,4.971716796875,0.7324954867362976,1.0919322967529297,-0.10379168391227722
1772615961377784800,4.981784912109375,0.7776210308074951,1.1419663429260254,0.012458719313144684
1772615961387852800,4.991852783203125,0.8363309502601624,1.1751774549484253,0.10255372524261475
1772615961397920800,5.001920654296875,0.8996268510818481,1.2006546258926392,0.16702532768249512
1772615961407988700,5.01198876953125,0.9601969718933105,1.1966632604599,0.1975185126066208
1772615961418056700,5.022056640625,1.0081349611282349,1.1896898746490479,0.2069626897573471
1772615961428125000,5.032125,1.054006814956665,1.1678133010864258,0.19115124642848969
1772615961438193000,5.04219287109375,1.0902318954467773,1.1339582204818726,0.1585485339164734
1772615961448260900,5.0522607421875,1.120734691619873,1.0998833179473877,0.11718085408210754
1772615961458329900,5.062329833984375,1.1369872093200684,1.0703144073486328,0.06572861224412918
1772615961468397800,5.072397705078125,1.1371954679489136,1.0468000173568726,0.01692032627761364
1772615961478465800,5.0824658203125,1.1248120069503784,1.039048194885254,-0.024583952501416206
1772615961488533800,5.09253369140625,1.0922281742095947,1.0381877422332764,-0.051882948726415634
1772615961498602000,5.10260205078125,1.0592572689056396,1.0381380319595337,-0.07233716547489166
1772615961508670000,5.112669921875,1.0202419757843018,1.0423557758331299,-0.08169471472501755
1772615961518738000,5.122738037109375,0.989989697933197,1.0420109033584595,-0.08561976999044418
1772615961528805600,5.1328056640625,0.9717185497283936,1.0447208881378174,-0.08698570728302002
1772615961538873900,5.142873779296875,0.9523658156394958,1.047890067100525,-0.08494076132774353
1772615961548941800,5.15294189453125,0.9393405318260193,1.0501766204833984,-0.07792306691408157
1772615961559009800,5.163009765625,0.9289395213127136,1.0524377822875977,-0.06584685295820236
1772615961569077800,5.173077880859375,0.9196522831916809,1.0650761127471924,-0.04609312862157822
1772615961579146800,5.183146728515625,0.9074234962463379,1.0737513303756714,-0.027022909373044968
1772615961589214700,5.193214599609375,0.893231213092804,1.0705573558807373,-0.0009108821395784616
1772615961599282700,5.20328271484375,0.8757104277610779,1.0655319690704346,0.025494329631328583
1772615961609351000,5.213350830078125,0.8616303205490112,1.0569586753845215,0.06141184642910957
1772615961619419000,5.2234189453125,0.848089337348938,1.0384963750839233,0.08810874074697495
1772615961629486800,5.23348681640625,0.8379413485527039,1.0232231616973877,0.09937363862991333
1772615961639554800,5.243554931640625,0.8245574235916138,0.989611029624939,0.10764855146408081
1772615961649623000,5.253623046875,0.8029224276542664,0.9459612965583801,0.10561975836753845
1772615961659690800,5.263690673828125,0.7822981476783752,0.906326413154602,0.0978885218501091
1772615961669758700,5.2737587890625,0.7543248534202576,0.8766612410545349,0.09127616137266159
1772615961679826700,5.28382666015625,0.7293418645858765,0.8479140400886536,0.07928894460201263
1772615961689895000,5.29389501953125,0.6962766051292419,0.8276766538619995,0.07667025923728943
1772615961699964000,5.3039638671875,0.6658613681793213,0.8042294383049011,0.06781114637851715
1772615961710032000,5.314031982421875,0.6400867700576782,0.7721220850944519,0.05528443679213524
1772615961720099800,5.324099853515625,0.6191236972808838,0.7429519891738892,0.04504665732383728
1772615961730167000,5.3341669921875,0.6047197580337524,0.7142990231513977,0.026446610689163208
1772615961740234800,5.34423486328125,0.5855545997619629,0.6812046766281128,0.017611239105463028
1772615961750302700,5.354302734375,0.5686150193214417,0.6550604104995728,0.006366042420268059
1772615961760370700,5.36437060546875,0.5413814187049866,0.6391139030456543,0.011982286348938942
1772615961770439000,5.37443896484375,0.5125316977500916,0.6199420690536499,0.021518800407648087
1772615961780507000,5.3845068359375,0.48625192046165466,0.6012072563171387,0.033530719578266144
1772615961790574800,5.394574951171875,0.467322438955307,0.5835763216018677,0.03511956334114075
1772615961800642800,5.404642822265625,0.4459055960178375,0.5693781971931458,0.026949932798743248
1772615961810710000,5.4147099609375,0.42244449257850647,0.5523830056190491,0.01799079217016697
1772615961820778200,5.4247783203125,0.3980701267719269,0.5407692790031433,-0.004791381768882275
1772615961830847000,5.434846923828125,0.3728638291358948,0.5254204273223877,-0.02061695046722889
1772615961840915000,5.4449150390625,0.3508125841617584,0.5087918639183044,-0.029019739478826523
1772615961850983200,5.454983154296875,0.3351859748363495,0.4955064058303833,-0.03862443193793297
1772615961861051100,5.465051025390625,0.3237130045890808,0.4801572263240814,-0.03726267069578171
1772615961871119000,5.475119140625,0.3176093101501465,0.4637444317340851,-0.034232791513204575
1772615961881187000,5.48518701171875,0.3115251362323761,0.44873183965682983,-0.028331683948636055
1772615961891255000,5.495255126953125,0.30417001247406006,0.4402478039264679,-0.011220874264836311
1772615961901323000,5.505322998046875,0.28663840889930725,0.43553218245506287,0.008998502045869827
1772615961911391000,5.515390869140625,0.27204108238220215,0.439969539642334,0.04023950919508934
1772615961921459000,5.525458984375,0.2596327066421509,0.44288939237594604,0.07111622393131256
1772615961931527200,5.535527099609375,0.24863334000110626,0.4503723382949829,0.10492584854364395
1772615961941595100,5.54559521484375,0.23185624182224274,0.4628015160560608,0.14323751628398895
1772615961951663900,5.555663818359375,0.22087442874908447,0.46801865100860596,0.1768447458744049
1772615961961732000,5.565732177734375,0.2108190804719925,0.4706366956233978,0.20936338603496552
1772615961971800000,5.575800048828125,0.19841141998767853,0.46011480689048767,0.24061398208141327
1772615961981868000,5.585867919921875,0.2011663168668747,0.4350210726261139,0.25583845376968384
1772615961991936000,5.59593603515625,0.21102480590343475,0.4209308326244354,0.24280709028244019
1772615962002004200,5.606004150390625,0.21225234866142273,0.4163688123226166,0.20258808135986328
1772615962012072200,5.616072265625,0.1992121785879135,0.41841840744018555,0.1616973727941513
1772615962022140000,5.626139892578125,0.16937987506389618,0.4290764033794403,0.13645564019680023
1772615962032208000,5.636207763671875,0.1375572234392166,0.4390435516834259,0.1301357001066208
1772615962042276000,5.646276123046875,0.1246950626373291,0.4483585059642792,0.13392490148544312
1772615962052344000,5.656343994140625,0.13197481632232666,0.4546954929828644,0.14719116687774658
1772615962062412000,5.666412109375,0.13931171596050262,0.4622524678707123,0.1573854237794876
1772615962072481300,5.676481201171875,0.15070632100105286,0.45457297563552856,0.16821517050266266
1772615962082549000,5.686549072265625,0.16549740731716156,0.43104130029678345,0.1755390763282776
1772615962092617000,5.696616943359375,0.18050618469715118,0.4032171070575714,0.17789463698863983
1772615962102685000,5.706684814453125,0.198612779378891,0.39105942845344543,0.17334403097629547
1772615962112753200,5.716753173828125,0.22718475759029388,0.37850528955459595,0.1615201234817505
1772615962122821000,5.726821044921875,0.2557326853275299,0.37161800265312195,0.14534194767475128
1772615962132889000,5.73688916015625,0.27640971541404724,0.3829646706581116,0.13826805353164673
1772615962142957000,5.74695703125,0.2812475562095642,0.3972393870353699,0.12659022212028503
1772615962153025000,5.75702490234375,0.2806718051433563,0.404701292514801,0.10987889766693115
1772615962163093000,5.767093017578125,0.2838056683540344,0.41862595081329346,0.07978089153766632
1772615962173161000,5.777160888671875,0.29722824692726135,0.4350073039531708,0.04371369630098343
1772615962183229000,5.78722900390625,0.31882014870643616,0.45286962389945984,0.012728763744235039
1772615962193297200,5.797297119140625,0.33804044127464294,0.46087801456451416,-0.02227688953280449
1772615962203366100,5.8073662109375,0.36378368735313416,0.47113245725631714,-0.04760868102312088
1772615962213433900,5.817433837890625,0.38212382793426514,0.4878515303134918,-0.07328607887029648
1772615962223502000,5.827502197265625,0.39751219749450684,0.5142130851745605,-0.08578237146139145
1772615962233570000,5.837570068359375,0.4030182659626007,0.5486000776290894,-0.089534230530262
1772615962243638000,5.847637939453125,0.404479444026947,0.5926241278648376,-0.07754103094339371
1772615962253706000,5.8577060546875,0.40590715408325195,0.6308692097663879,-0.06094155088067055
1772615962263774200,5.867774169921875,0.4141528904438019,0.6671774387359619,-0.044158127158880234
1772615962273842200,5.87784228515625,0.42587053775787354,0.6961877942085266,-0.03305833786725998
1772615962283910100,5.88791015625,0.443856805562973,0.7167535424232483,-0.032908786088228226
1772615962293977900,5.897977783203125,0.46495944261550903,0.7364582419395447,-0.05127394571900368
1772615962304046000,5.908046142578125,0.4901381731033325,0.7451360821723938,-0.06608302891254425
1772615962314114000,5.918114013671875,0.5123212337493896,0.7464513778686523,-0.07723687589168549
1772615962324183000,5.92818310546875,0.5374606847763062,0.7323981523513794,-0.07662332057952881
1772615962334251300,5.938251220703125,0.5609958171844482,0.7447139024734497,-0.061153821647167206
1772615962344319200,5.9483193359375,0.5734559297561646,0.7512387037277222,-0.027585702016949654
1772615962354387000,5.958386962890625,0.5719232559204102,0.7505542635917664,0.019298715516924858
1772615962364455000,5.968454833984375,0.5721938610076904,0.745193362236023,0.05628769099712372
1772615962374523100,5.978523193359375,0.5786935687065125,0.7243035435676575,0.0822090357542038
1772615962384591000,5.988591064453125,0.5937241911888123,0.7034969925880432,0.09692959487438202
1772615962394659000,5.9986591796875,0.6144041419029236,0.681919515132904,0.08661357313394547
1772615962404727000,6.00872705078125,0.6286253333091736,0.6579885482788086,0.06669788062572479
1772615962414795300,6.018795166015625,0.6352113485336304,0.6390694379806519,0.03534714877605438
1772615962424863000,6.028863037109375,0.6235670447349548,0.6309600472450256,-0.011408613994717598
1772615962434931000,6.038930908203125,0.613167405128479,0.619733989238739,-0.06324092298746109
1772615962445000200,6.049000244140625,0.5922946929931641,0.6155601739883423,-0.10612105578184128
1772615962455068200,6.059068115234375,0.5626062750816345,0.6387664079666138,-0.1106199324131012
1772615962465136000,6.06913623046875,0.5146550536155701,0.6591107249259949,-0.08789339661598206
1772615962475204000,6.0792041015625,0.4572191536426544,0.6764295101165771,-0.03249165043234825
1772615962485272000,6.08927197265625,0.4030977487564087,0.6913884878158569,0.04514395818114281
1772615962495340000,6.099340087890625,0.3519064784049988,0.7084411978721619,0.13734260201454163
1772615962505408000,6.109407958984375,0.32046160101890564,0.7073763608932495,0.21211905777454376
1772615962515476000,6.11947607421875,0.3103509247303009,0.6956246495246887,0.2568420469760895
1772615962525544200,6.129544189453125,0.31609010696411133,0.6805967688560486,0.25013235211372375
1772615962535612200,6.139612060546875,0.3397677540779114,0.6662663221359253,0.2017403244972229
1772615962545680100,6.14968017578125,0.36777374148368835,0.6473555564880371,0.12894752621650696
1772615962555748000,6.159748046875,0.38294872641563416,0.6379767060279846,0.03771668300032616
1772615962565817000,6.169817138671875,0.3909134864807129,0.6528295874595642,-0.06286634504795074
1772615962575885000,6.179885009765625,0.3959159851074219,0.6611967086791992,-0.1600504219532013
1772615962585953000,6.189953125,0.4035511314868927,0.6751132011413574,-0.2528086006641388
1772615962596021200,6.200021240234375,0.4054001569747925,0.6906053423881531,-0.32678908109664917
1772615962606089200,6.210089111328125,0.41693079471588135,0.6919415593147278,-0.38400882482528687
1772615962616157000,6.220156982421875,0.4283352494239807,0.6803932785987854,-0.40910804271698
1772615962626225000,6.230224853515625,0.4440578818321228,0.6627972722053528,-0.4057697653770447
1772615962636293000,6.240293212890625,0.4558705985546112,0.6542208194732666,-0.3720400333404541
1772615962646361000,6.250361083984375,0.4577629864215851,0.6499808430671692,-0.3077879548072815
1772615962656429000,6.260428955078125,0.45336610078811646,0.6476575136184692,-0.22302591800689697
1772615962666497000,6.2704970703125,0.42948806285858154,0.6403241157531738,-0.13782282173633575
1772615962676565200,6.280565185546875,0.39324110746383667,0.6326198577880859,-0.0629669576883316
1772615962686634000,6.290634033203125,0.3737013339996338,0.6071417927742004,0.004832053557038307
1772615962696702000,6.300701904296875,0.3642670810222626,0.5848119854927063,0.06494678556919098
1772615962706770200,6.310770263671875,0.3542425036430359,0.562724769115448,0.10966403782367706
1772615962716838100,6.320838134765625,0.34137091040611267,0.5377994775772095,0.12783904373645782
1772615962726906000,6.330906005859375,0.32591143250465393,0.5071789622306824,0.12884299457073212
1772615962736974000,6.34097412109375,0.3151615858078003,0.4920947849750519,0.10540319234132767
1772615962747042300,6.351042236328125,0.30076512694358826,0.4735688269138336,0.06855577975511551
1772615962757110000,6.361110107421875,0.2858932614326477,0.4533413052558899,0.02848931774497032
1772615962767178000,6.371177978515625,0.2657153308391571,0.43907225131988525,-0.0052767288871109486
1772615962777246000,6.381245849609375,0.24695363640785217,0.43543943762779236,-0.038573700934648514
1772615962787314200,6.391314208984375,0.2274339348077774,0.4255562424659729,-0.04595130309462547
1772615962797382100,6.401382080078125,0.21018090844154358,0.41027742624282837,-0.04334086924791336
1772615962807452000,6.411451904296875,0.20274576544761658,0.3967786729335785,-0.02757897786796093
1772615962817519900,6.421519775390625,0.20263896882534027,0.38050514459609985,-0.008521663956344128
1772615962827588000,6.431588134765625,0.20075377821922302,0.36443036794662476,0.0161279384046793
1772615962837656000,6.441656005859375,0.19089262187480927,0.352198988199234,0.04694177955389023
1772615962847724000,6.45172412109375,0.17186440527439117,0.3414362668991089,0.07124399393796921
1772615962857792000,6.4617919921875,0.15277433395385742,0.3289912939071655,0.09972730278968811
1772615962867860000,6.47185986328125,0.13693810999393463,0.3282843828201294,0.11749193072319031
1772615962877928000,6.481927978515625,0.12198685109615326,0.3296010494232178,0.13441473245620728
1772615962887996000,6.491995849609375,0.10308245569467545,0.33282414078712463,0.14717727899551392
1772615962898064000,6.50206396484375,0.07931161671876907,0.3376663029193878,0.15588608384132385
1772615962908132000,6.512132080078125,0.05910448357462883,0.3372655212879181,0.16707932949066162
1772615962918200000,6.522199951171875,0.041859716176986694,0.3343818485736847,0.17929843068122864
1772615962928268800,6.532268798828125,0.027778521180152893,0.32994920015335083,0.1932068169116974
1772615962938337000,6.5423369140625,0.02560298517346382,0.3154139220714569,0.2143043875694275
1772615962948405000,6.552405029296875,0.040574777871370316,0.2787511944770813,0.21692968904972076
1772615962958473000,6.562472900390625,0.07320835441350937,0.2389950007200241,0.20380191504955292
1772615962968541000,6.572541015625,0.11079128831624985,0.20585280656814575,0.16762098670005798
1772615962978609200,6.582609130859375,0.12321972846984863,0.17511913180351257,0.12525993585586548
1772615962988677000,6.592677001953125,0.116634301841259,0.14593979716300964,0.07838074117898941
1772615962998745000,6.6027451171875,0.09015636146068573,0.14784689247608185,0.03814250975847244
1772615963008812800,6.612812744140625,0.0595676489174366,0.17581067979335785,-0.0038365356158465147
1772615963018881000,6.622881103515625,0.047149594873189926,0.21313700079917908,-0.051801931113004684
1772615963028949000,6.632948974609375,0.04458820819854736,0.25310564041137695,-0.10374242812395096
1772615963039017000,6.643016845703125,0.04206006973981857,0.28069838881492615,-0.14213615655899048
1772615963049086200,6.653086181640625,0.019172314554452896,0.3227043151855469,-0.14679400622844696
1772615963059154000,6.66315380859375,-0.006987915839999914,0.3525237441062927,-0.11266133934259415
1772615963069222000,6.673221923828125,-0.021639013662934303,0.349153071641922,-0.014995780773460865
1772615963079289900,6.683289794921875,-0.007049684412777424,0.34239211678504944,0.10770430415868759
1772615963089358000,6.693358154296875,0.022375108674168587,0.3367156982421875,0.2267533242702484
1772615963099426000,6.703426025390625,0.05132260173559189,0.30183839797973633,0.32348760962486267
1772615963109494000,6.713493896484375,0.07356558740139008,0.2511160969734192,0.4012146294116974
1772615963119562000,6.72356201171875,0.08901804685592651,0.20713716745376587,0.4512082636356354
1772615963129630200,6.733630126953125,0.10115955770015717,0.17824217677116394,0.4680998921394348
1772615963139698000,6.743697998046875,0.09033993631601334,0.1633196920156479,0.4697004556655884
1772615963149766000,6.753765869140625,0.0693521574139595,0.1420658379793167,0.4573090970516205
1772615963159833900,6.763833740234375,0.030435390770435333,0.11331356316804886,0.4221034348011017
1772615963169903000,6.773903076171875,0.012327534146606922,0.09460530430078506,0.3774661421775818
1772615963179971000,6.78397119140625,-0.007313811685889959,0.055000100284814835,0.31437718868255615
1772615963190039000,6.7940390625,-0.012772326357662678,0.06550733000040054,0.23031604290008545
1772615963200107000,6.80410693359375,-0.02780853398144245,0.10610987991094589,0.14365066587924957
1772615963210175000,6.814175048828125,-0.06790180504322052,0.07636599987745285,0.044472746551036835
1772615963220243000,6.824242919921875,-0.09860938042402267,0.0664134994149208,-0.04141925647854805
1772615963230311000,6.834310791015625,-0.10799168795347214,0.06741389632225037,-0.12360601872205734
1772615963240379100,6.844379150390625,-0.10804202407598495,0.05972987413406372,-0.19513507187366486
1772615963250447000,6.854447021484375,-0.08781296014785767,0.05221318453550339,-0.2418505698442459
1772615963260515000,6.86451513671875,-0.051451485604047775,0.039264362305402756,-0.26573967933654785
1772615963270583000,6.8745830078125,-0.01063536386936903,0.029697852209210396,-0.25093427300453186
1772615963280651000,6.884651123046875,0.021243738010525703,0.027886370196938515,-0.22668646275997162
1772615963290720000,6.894719970703125,0.048690278083086014,0.05349266156554222,-0.19869530200958252
1772615963300788000,6.9047880859375,0.06860406696796417,0.09336178749799728,-0.16972383856773376
1772615963310856200,6.914856201171875,0.09592320770025253,0.12878231704235077,-0.13368044793605804
1772615963320924200,6.924924072265625,0.11580397188663483,0.15908083319664001,-0.08871084451675415
1772615963330991900,6.934991943359375,0.1374618113040924,0.18057025969028473,-0.027292918413877487
1772615963341059800,6.945059814453125,0.1578959822654724,0.19253158569335938,0.034996021538972855
1772615963351128000,6.955128173828125,0.1848331242799759,0.19824820756912231,0.08880056440830231
1772615963361196000,6.965196044921875,0.21592791378498077,0.2009774148464203,0.12511809170246124
1772615963371264000,6.975263916015625,0.23959186673164368,0.20342053472995758,0.15410862863063812
1772615963381332000,6.98533203125,0.24357542395591736,0.21618187427520752,0.17073501646518707
1772615963391400200,6.995400146484375,0.2387726902961731,0.2492605745792389,0.1557730883359909
1772615963401468200,7.00546826171875,0.23980440199375153,0.27411720156669617,0.14540594816207886
1772615963411537000,7.015536865234375,0.2605122923851013,0.2874028980731964,0.1498926877975464
1772615963421604900,7.02560498046875,0.27798768877983093,0.3052157163619995,0.15825341641902924
1772615963431673000,7.035673095703125,0.30850616097450256,0.32731756567955017,0.14949773252010345
1772615963441741000,7.045740966796875,0.3499654531478882,0.3570179343223572,0.13355392217636108
1772615963451809000,7.05580908203125,0.38575050234794617,0.3596823811531067,0.11532727628946304
1772615963461877000,7.065876953125,0.4214579164981842,0.34396520256996155,0.09704174846410751
1772615963471945000,7.075945068359375,0.4601826071739197,0.31979456543922424,0.06570659577846527
1772615963482013000,7.086012939453125,0.5004583597183228,0.2835540175437927,0.021680817008018494
1772615963492081000,7.096080810546875,0.529829740524292,0.25105783343315125,-0.015170201659202576
1772615963502149000,7.106149169921875,0.5490676164627075,0.23937693238258362,-0.04106438159942627
1772615963512217000,7.116217041015625,0.5489469170570374,0.2502494752407074,-0.06405673176050186
1772615963522285800,7.126285888671875,0.5366551280021667,0.2665051519870758,-0.07347233593463898
1772615963532353800,7.136353759765625,0.5182695388793945,0.29241591691970825,-0.07287551462650299
1772615963542422000,7.146422119140625,0.4990716278553009,0.3227948844432831,-0.06953537464141846
1772615963552490000,7.156489990234375,0.4855177402496338,0.35345765948295593,-0.050387196242809296
1772615963562558000,7.166557861328125,0.47389090061187744,0.3689900040626526,-0.018968025222420692
1772615963572626000,7.1766259765625,0.4640522003173828,0.3739757835865021,0.014961310662329197
1772615963582694100,7.186694091796875,0.461308091878891,0.3752301335334778,0.05291774496436119
1772615963592762000,7.19676220703125,0.4555455148220062,0.3678528666496277,0.09399092942476273
1772615963602829800,7.206829833984375,0.4513765871524811,0.3517276644706726,0.13575249910354614
1772615963612897800,7.216897705078125,0.44521722197532654,0.3398585915565491,0.1694318801164627
1772615963622966000,7.226966064453125,0.43884292244911194,0.3382588326931,0.1751030683517456
1772615963633034000,7.237033935546875,0.42970335483551025,0.3466744124889374,0.1572979986667633
1772615963643103000,7.24710302734375,0.41357630491256714,0.3628017008304596,0.11880280822515488
1772615963653171000,7.2571708984375,0.3920814096927643,0.38234683871269226,0.058108892291784286
1772615963663239000,7.267239013671875,0.3673672676086426,0.4080471396446228,-0.0034330307971686125
1772615963673307000,7.277306884765625,0.332607626914978,0.4216231405735016,-0.07616543769836426
1772615963683374800,7.287374755859375,0.31061258912086487,0.4282544255256653,-0.11674748361110687
1772615963693443000,7.297443115234375,0.2875571846961975,0.41755354404449463,-0.13102120161056519
1772615963703511000,7.307510986328125,0.272946298122406,0.4030989706516266,-0.12587571144104004
1772615963713579000,7.3175791015625,0.2723090648651123,0.3895331025123596,-0.09361935406923294
1772615963723647000,7.32764697265625,0.2702704071998596,0.33066126704216003,0.05390458554029465
1772615963733715000,7.33771484375,0.2853875160217285,0.21778397262096405,0.12778958678245544
1772615963743783000,7.347782958984375,0.30782651901245117,0.27534446120262146,0.15975338220596313
1772615963753851000,7.357850830078125,0.3335890769958496,0.33712145686149597,0.142972931265831
1772615963763918800,7.3679189453125,0.33550602197647095,0.35003992915153503,0.09574364125728607
1772615963773988000,7.377988037109375,0.31219786405563354,0.37658146023750305,0.04013975337147713
1772615963784056000,7.38805615234375,0.29556378722190857,0.39073482155799866,-0.03366043418645859
1772615963794123800,7.398123779296875,0.2915686070919037,0.3933233618736267,-0.10107859969139099
1772615963804192000,7.40819189453125,0.28151971101760864,0.39023861289024353,-0.1547868400812149
1772615963814259200,7.41825927734375,0.25777173042297363,0.36739325523376465,-0.1772771030664444
1772615963824327200,7.4283271484375,0.22658531367778778,0.32502156496047974,-0.15433397889137268
1772615963834395100,7.43839501953125,0.20310048758983612,0.2764895558357239,-0.08937922865152359
1772615963844463000,7.448463134765625,0.1887199580669403,0.2377067357301712,-0.011784568428993225
1772615963854531300,7.45853125,0.1910334676504135,0.2190265953540802,0.056863415986299515
