time,seconds_elapsed,z,y,x
1772615901891516000,0.033515869140625,-0.31839784114062786,0.12705167794227598,-0.43440976375024765
1772615901901584000,0.043583984375,-0.15164894358217715,0.2369663431227207,-0.40410223070476203
1772615901911652000,0.053652099609375,-0.09118541479110717,0.2833767966419458,-0.47297556818369774
1772615901921720000,0.063719970703125,-0.07143325109481811,0.4116653229027986,-0.6685398970663547
1772615901931788000,0.0737880859375,-0.0007885200291872024,0.6236199743658304,-0.5089932590369135
1772615901941856000,0.08385595703125,-0.1985369514852762,0.4316477882236242,-0.34921544260010123
1772615901951924000,0.093924072265625,-0.6156248839586973,0.06643091276288032,-0.09101268857270478
1772615901961992000,0.103991943359375,-0.6414812097489834,-0.0428512997329235,0.21713508630823342
1772615901972060000,0.114059814453125,-0.17812661614120007,0.021491700839996335,0.3623048604715615
1772615901982127900,0.1241279296875,0.5909387709915638,0.16570611050724982,0.21525040507279336
1772615901992196000,0.134196044921875,0.9580670330315828,0.021660627666115758,-0.04410875244811177
1772615902002264000,0.14426416015625,1.1664368117451667,0.10445406168699264,-0.13674246635138987
1772615902012332000,0.15433203125,1.176460777631402,0.21355331883132456,-0.16693784425929187
1772615902022400300,0.164400146484375,1.0819611237257718,0.02935001312494278,-0.25173498278539624
1772615902032468000,0.174468017578125,0.9988146384835243,-0.10933891111910342,-0.337050007705763
1772615902042536000,0.184535888671875,0.8852513876676559,-0.0018190321207046509,-0.1846665758365765
1772615902052604000,0.19460400390625,0.9305775530815124,0.0506201801687479,0.10415990104600786
1772615902062672100,0.204672119140625,0.8276894255369901,-0.0934323169350624,0.11477156715970485
1772615902072740000,0.214739990234375,0.8025672592401504,-0.17837796055376529,-0.019531287487223742
1772615902082808000,0.22480810546875,0.9714104987293481,-0.13345920689702034,-0.08599266845360398
1772615902092876000,0.2348759765625,1.1062333951950072,-0.09976210447847843,0.009650821724906564
1772615902102944300,0.2449443359375,1.1264414859652518,-0.16099018790125846,0.022518340473994612
1772615902113012000,0.255011962890625,1.074905359995365,-0.16678279982805252,-0.031404242241010065
1772615902123080000,0.265079833984375,0.9922796837568283,-0.09269055865705013,0.022722923135384918
1772615902133148000,0.27514794921875,0.8717857568949461,-0.033920974302291865,0.14441482761017976
1772615902143216000,0.285216064453125,0.6537707824796438,-0.08085866656601429,0.2989504325445741
1772615902153284000,0.2952841796875,0.44583822613954543,-0.36213352249264713,0.6151217567421495
1772615902163352000,0.30535205078125,0.02223959659785032,-0.728689537602663,0.6524057046715169
1772615902173420000,0.315419921875,-0.6323416254818439,-0.9304892902761697,0.44187100300900634
1772615902183488300,0.32548828125,-0.7197510288655757,-0.43301381587982174,-0.4844936816178262
1772615902193556000,0.335555908203125,-0.6210492470949888,-0.10991349613666533,-0.8569453306376934
1772615902203624000,0.3456240234375,-0.4609747127339244,-0.27298458196520803,-0.33360826975405217
1772615902213692000,0.35569189453125,-0.06685322982817887,-0.2602005037158727,-0.0594901537142694
1772615902223761200,0.36576123046875,0.04435176742374897,-0.36166765854656696,0.30133104407079514
1772615902233829000,0.3758291015625,0.009904138898849486,-0.45455403203666206,0.8387702800650149
1772615902243897000,0.38589697265625,0.3084428488373756,-0.31302257784307,0.7694076246991753
1772615902253965000,0.395965087890625,0.4095581214904785,-0.13583821098804474,0.5936615470189601
1772615902264033000,0.406032958984375,0.47472091401368377,-0.19860592506825922,0.5671116860065609
1772615902274101000,0.41610107421875,0.6418313383609056,-0.25821722094416616,0.3247912685047835
1772615902284169000,0.4261689453125,0.564408783723414,-0.37980420373976226,0.3541859975542873
1772615902294237200,0.4362373046875,0.5103358327522873,-0.25067981117665766,0.40434893547482786
1772615902304305200,0.44630517578125,0.49077363867014645,-0.28094343201518057,0.61656852148436
1772615902314373000,0.456373046875,0.42627427849173544,-0.1591010131537914,0.7190298019189387
1772615902324440800,0.46644091796875,0.46474575570523735,-0.07522913624644278,0.7199837416429072
1772615902334509000,0.476509033203125,0.6688385877519846,0.10456628988981247,0.7416734492730349
1772615902344577000,0.486576904296875,0.9495537639692425,0.3158165924757719,0.5700836875546723
1772615902354645000,0.49664501953125,1.1793097373217343,0.3925824367702007,0.5041492530718445
1772615902364713000,0.506712890625,1.3755626695230603,0.4338841689735651,0.5042906343039125
1772615902374781200,0.51678125,1.4068588482797144,0.3857289176136255,0.37432657604627306
1772615902384849200,0.52684912109375,1.3467518778413534,0.2071767695367336,0.047407136406376955
1772615902394917000,0.536917236328125,1.175617897066474,0.1391851833283901,-0.1675732926186174
1772615902404984800,0.54698486328125,0.9532219310879707,0.21176585089266298,-0.3353740373175591
1772615902415053000,0.557052978515625,0.8881184675365685,0.3455307627379894,-0.49272265384607017
1772615902425121000,0.56712109375,0.8138111223101615,0.45670390354692936,-0.3483020540822297
1772615902435189000,0.57718896484375,0.7474690568745136,0.5614397047847509,-0.18392631539590656
1772615902445257000,0.587257080078125,0.7252388126268983,0.6479056898385286,-0.23418102325312792
1772615902455325200,0.5973251953125,0.6008738895505666,0.5539408734619617,-0.7164916617434471
1772615902465393200,0.60739306640625,0.350516734457016,0.5558025756806135,-1.1111608416598289
1772615902475461000,0.617461181640625,-0.11775222693830728,0.472433972120285,-0.886312952484563
1772615902485528800,0.62752880859375,-0.06956570365726947,0.3055073799073696,-0.8705592107746749
1772615902495597000,0.63759716796875,0.16827449969053268,0.6000064590662717,-0.8127451005138456
1772615902505665000,0.6476650390625,0.272881998373568,0.5714040494382381,-0.7860079002358019
1772615902515733000,0.65773291015625,0.16947832252234218,0.2294768641501665,-0.8747934873435645
1772615902525801000,0.667801025390625,-0.08407733635157347,-0.0893634600609541,-1.1076960881587117
1772615902535869200,0.677869140625,-0.31604747862219806,-0.4520201296448707,-1.464492122080922
1772615902545937200,0.687937255859375,-0.6327431920200586,-0.6376181045800448,-1.653629961580038
1772615902556005000,0.698005126953125,-0.9063181410938501,-0.762625124952197,-1.5279197613745927
1772615902566072800,0.70807275390625,-1.0414628168597817,-0.688806440025568,-1.141589443801716
1772615902576141000,0.71814111328125,-0.9837526784300804,-0.5551677849084139,-0.5904696921750903
1772615902586210000,0.7282099609375,-0.7870084555804729,-0.45205052478313446,-0.19461079101748763
1772615902596278000,0.738278076171875,-0.6862278217092156,-0.28388416164219377,0.17705672188736496
1772615902606346200,0.74834619140625,-0.6075707568407058,-0.24116437933444976,0.47465128284357483
1772615902616414000,0.7584140625,-0.6517927604049444,-0.22856851713359355,0.5685333163075149
1772615902626482000,0.76848193359375,-0.7859674220949411,-0.38040801485180853,0.15478855678215622
1772615902636550000,0.7785498046875,-0.7693494647711515,-0.7482762816041707,-0.20672347281128167
1772615902646618000,0.7886181640625,-0.861945915403962,-0.6845715789347887,-0.19526319051161406
1772615902656685300,0.798685302734375,-0.9178498811945318,-0.8993629151284694,-0.13250007954128085
1772615902666753300,0.808753173828125,-1.0820756900161503,-0.9316285234391689,0.14854096762947738
1772615902676821500,0.818821533203125,-1.2509200985491276,-0.9367495197147131,0.47731385311633345
1772615902686889500,0.828889404296875,-1.4332780686497688,-0.7951672121167183,0.6192243697553873
1772615902696957400,0.83895751953125,-1.8550421762406826,-0.6254360838770866,0.42175387845784423
1772615902707025400,0.849025390625,-2.2633421143636108,-0.5670365018785,0.40420996539555487
1772615902717093400,0.85909326171875,-2.5615458932593462,-0.42688685743212695,0.5664937733039259
1772615902727161300,0.869161376953125,-2.440060325011611,-0.23240064264237878,1.0408460001356898
1772615902737229300,0.879229248046875,-2.053977187132835,0.000623100334405899,1.4948304155908525
1772615902747297300,0.88929736328125,-1.5435457850515841,0.2185930665642023,1.5408198672190307
1772615902757365500,0.899365478515625,-0.9874529942527412,0.4395709824383259,1.421984082827717
1772615902767433500,0.90943359375,-0.48674365250170226,0.5327829346209764,1.2269110080607235
1772615902777501400,0.91950146484375,-0.017666443463414908,0.5755155764102935,1.0923740158643573
1772615902787569400,0.9295693359375,0.2223018579542637,0.5982067161679268,1.1315561255652458
1772615902797637400,0.939637451171875,0.3673988956749439,0.6308037483900785,1.265773676548898
1772615902807705300,0.949705322265625,0.6302585355974734,0.7138695696115493,1.4147525241389869
1772615902817773300,0.959773193359375,0.9235422476172447,0.766226364314556,1.3940807613797486
1772615902827841300,0.96984130859375,0.9399043304838239,0.7314613404035568,1.051835815379396
1772615902837909500,0.979909423828125,0.7290684539176523,0.692456194704771,0.623773338296637
1772615902847977500,0.9899775390625,0.43834757812321185,0.5993062018424272,0.5548079386200756
1772615902858045400,1.00004541015625,0.310496420366317,0.5662292771488427,0.7693089866302907
1772615902868113200,1.010113037109375,0.2751398603029549,0.6127075352072715,1.0070308973606674
1772615902878181400,1.020181396484375,0.3671247549086809,0.702903938961029,1.3728165856853127
1772615902888249300,1.030249267578125,0.4805103110700845,0.699569241580367,1.6625797223635017
1772615902898318300,1.040318359375,0.5004506908148527,0.6685071638405322,1.7028941970951854
1772615902908385500,1.050385498046875,0.4203378741800785,0.5483692108094692,1.5318315279908477
1772615902918454500,1.06045458984375,0.36929771503359077,0.3025678193241358,1.3226970485150813
1772615902928522200,1.070522216796875,0.2748079980000853,0.07916881378293036,1.082294593463838
1772615902938590200,1.080590087890625,0.1648722900316119,-0.029001638078689572,0.9069770433939993
1772615902948658400,1.090658447265625,0.04553016355335712,-0.12736790428459643,0.8129423766516148
1772615902958726400,1.100726318359375,-0.1346397949837148,-0.16857319037616253,0.778294987770915
1772615902968794400,1.11079443359375,-0.3228279325425625,-0.2079050838112831,0.8455446695707738
1772615902978862300,1.1208623046875,-0.4589321009904146,-0.28655250406861305,1.053741575935483
1772615902988930600,1.1309306640625,-0.5737415524750947,-0.3804056767642498,1.0709941779009997
1772615902998998500,1.14099853515625,-0.6549044626846909,-0.4722860880821943,1.0793683307535946
1772615903009066200,1.151066162109375,-0.7377233234077691,-0.6119511638820171,1.1614027631007133
1772615903019134200,1.16113427734375,-0.7461129660904408,-0.7305325351208448,1.2234554607793688
1772615903029202400,1.171202392578125,-0.7338435593649745,-0.866190713366866,1.091078496161103
1772615903039270400,1.1812705078125,-0.794977534763515,-0.9777876325458288,0.6238558289483189
1772615903049338400,1.19133837890625,-0.8956956247925758,-0.9680085813313722,0.2583987149909139
1772615903059406300,1.20140625,-0.8817119614951312,-0.987860113748908,0.32794074551165103
1772615903069474600,1.211474609375,-0.7021310548923909,-0.9899182153224945,0.6571298836492001
1772615903079542300,1.221542236328125,-0.44062662897109983,-0.9375099826931953,0.9686880880281329
1772615903089610200,1.2316103515625,-0.2421726795941591,-0.8828057480812073,1.0967151868738234
1772615903099678500,1.241678466796875,-0.23706381214782593,-0.8343494679480791,1.0319536686278878
1772615903109746400,1.251746337890625,-0.36013796476125715,-0.8397101181983947,0.953578635571152
1772615903119814400,1.261814453125,-0.6285282046735287,-0.8704384339392185,0.8642281811222433
1772615903129882400,1.27188232421875,-0.9531827681213617,-0.8606862707316875,0.6240484289109707
1772615903139950600,1.28195068359375,-1.2830587194792926,-0.8032774533361196,0.27320290089100596
1772615903150018600,1.2920185546875,-1.5047836543284356,-0.7813304099440574,-0.04379764067232608
1772615903160086300,1.302086181640625,-1.5602286243051289,-0.8023772896260023,-0.27043402069956063
1772615903170154200,1.312154296875,-1.5406483100444077,-0.713899964749813,-0.60849547047019
1772615903180222500,1.322222412109375,-1.4286214750155806,-0.593928015935421,-0.7955063809432089
1772615903190290400,1.33229052734375,-1.1781123442307113,-0.544665680116415,-0.8058635243065655
1772615903200358400,1.3423583984375,-0.8465946170151233,-0.44555356397926804,-0.7659574842453003
1772615903210426400,1.35242626953125,-0.5038818343073129,-0.26156770041584965,-0.757627901186794
1772615903220494600,1.36249462890625,-0.22077508677840232,-0.13235679861307142,-0.8039705501668155
1772615903230562600,1.3725625,-0.12271861717402935,-0.06913783363401889,-0.8853907961383461
1772615903240630300,1.38263037109375,-0.12725918321311472,0.02689560571014881,-0.9635545245319604
1772615903250699300,1.39269921875,-0.11738704688772558,0.18256956702470778,-0.9674947865903377
1772615903260767500,1.402767578125,-0.06899214155301452,0.34065058948099614,-0.8652863118730485
1772615903270835500,1.41283544921875,-0.032096535354107614,0.446178417879343,-0.7974355954401194
1772615903280903400,1.4229033203125,-0.07313289461955427,0.5314835424602031,-0.8068722629576921
1772615903290971400,1.432971435546875,-0.08609013747870922,0.6532809531360865,-0.8000327723264694
1772615903301039400,1.443039306640625,-0.00928746830523014,0.7979267399579286,-0.7356018012091518
1772615903311107300,1.453107421875,0.19474983416199684,0.9002502193570137,-0.5571303171530365
1772615903321175300,1.46317529296875,0.4260603434801101,0.990484032511711,-0.3543978136740625
1772615903331243500,1.473243408203125,0.652288581097871,1.0364876587957144,-0.08562325061932205
1772615903341311500,1.4833115234375,0.8865946189701557,1.0101695607125758,0.1499783800214529
1772615903351379500,1.49337939453125,1.0496300489634274,0.9617150341451167,0.24025215986035764
1772615903361447400,1.503447509765625,1.068788338419795,0.89939915548563,0.25697408901527524
1772615903371515400,1.513515380859375,0.9378566041737795,0.8499836749315262,0.30705365950129926
1772615903381583400,1.523583251953125,0.8095389979489147,0.754689655777812,0.3817471545010805
1772615903391651300,1.5336513671875,0.6262310336470603,0.6115700556099415,0.3574366699133068
1772615903401719300,1.54371923828125,0.30093188868537546,0.5082879603117704,0.2402777326930314
1772615903411787500,1.55378759765625,0.027734833013266322,0.39342064116001124,0.15052899964153765
1772615903421855500,1.56385546875,-0.10363514651954174,0.3064654112845659,0.07539908598586917
1772615903431923500,1.57392333984375,-0.22214286800026892,0.23219722902476786,0.05850121574215591
1772615903441991400,1.583991455078125,-0.29636691885739563,0.1553156493961811,0.07491838979683817
1772615903452059400,1.594059326171875,-0.31254853059053417,0.10137889202535152,0.11938786531612276
1772615903462127400,1.60412744140625,-0.31392069572657344,0.018962474623322487,0.17508797909766435
1772615903472195300,1.6141953125,-0.3716702893838286,-0.03550853575468063,0.26433694593347606
1772615903482263300,1.62426318359375,-0.44298488253504037,-0.020683891588449476,0.29540092336945234
1772615903492331500,1.63433154296875,-0.5045768308341503,0.05567278738319874,0.20579780933372674
1772615903502399500,1.6443994140625,-0.48605888510793444,0.113640407705307,0.07749861554838716
1772615903512467500,1.654467529296875,-0.39968730033934113,0.14015958131849765,0.02096994198821485
1772615903522535400,1.664535400390625,-0.3334467955820262,0.1743476821243763,0.06947926748283206
1772615903532603400,1.674603271484375,-0.2086665697030723,0.1899018096089363,0.16109021420963107
1772615903542671400,1.68467138671875,-0.01431552560031414,0.1585527316212654,0.20792298479415475
1772615903552739300,1.6947392578125,0.1687761656023562,0.15779051507711409,0.18515439588613808
1772615903562807300,1.704807373046875,0.2719631299629807,0.18098142105042933,0.18525727173872292
1772615903572875500,1.71487548828125,0.29507556387260553,0.14836860673725605,0.18495916557498276
1772615903582943500,1.724943603515625,0.2839066657349467,0.11392448534369468,0.10878763391189276
1772615903593011500,1.735011474609375,0.30710590114519,0.10493336963653564,-0.10328209529817103
1772615903603079400,1.745079345703125,0.36637042941004033,0.11558628107607365,-0.44310514791384337
1772615903613147400,1.7551474609375,0.4035869381263852,0.14142974738478659,-0.6815775116853415
1772615903623216400,1.76521630859375,0.39933892529308795,0.1350163732111454,-0.7118641480732709
1772615903633284400,1.775284423828125,0.44353696345984933,0.11326105299890041,-0.5807421519521624
1772615903643352600,1.7853525390625,0.5774884839184582,0.1353553959071636,-0.4314600105665624
1772615903653420500,1.795420654296875,0.6410393112003803,0.1740893234491348,-0.26413616266436873
1772615903663488800,1.80548876953125,0.6610989334106445,0.2344447156906128,-0.1015313791733235
1772615903673556700,1.815556640625,0.650675300682336,0.3178986594468355,0.031417467048764226
1772615903683624700,1.825624755859375,0.6343133639462292,0.35227672986686226,0.1109225270487368
1772615903693692700,1.835692626953125,0.5928752920120954,0.3612947335809469,0.11747647873684763
1772615903703761000,1.845760986328125,0.5726981809020042,0.3619645956665277,0.029529022953659296
1772615903713828900,1.855828857421875,0.5145704015821219,0.3734071961790323,-0.015407120229303836
1772615903723896800,1.865896728515625,0.4445676216818392,0.316739552539587,0.019535890597105025
1772615903733964800,1.87596484375,0.34753625734150406,0.3086749040275812,0.03133811820223927
1772615903744032800,1.88603271484375,0.23903935000449417,0.2933200985074043,-0.0633732787579298
1772615903754100700,1.896100830078125,0.1695329753190279,0.2387012040913105,-0.19224355042949318
1772615903764168700,1.906168701171875,0.0492801637366414,0.14241115963757037,-0.2681343654550612
1772615903774236700,1.916236572265625,-0.07812924160212278,0.10689619414210319,-0.30854039092771707
1772615903784305000,1.926304931640625,-0.08785013288855552,0.04759469486773014,-0.2669767198525369
1772615903794372900,1.936372802734375,0.0536135167658329,-0.06878302884697914,-0.1814800912875682
1772615903804440800,1.94644091796875,0.2613645790591836,-0.09232815508544444,-0.0657340896051377
1772615903814508800,1.9565087890625,0.38788404982089997,-0.0972533365279436,0.10961897016949951
1772615903824576800,1.96657666015625,0.42017683839946984,-0.16034604477882383,0.3024918314784765
1772615903834644700,1.976644775390625,0.34535423712730406,-0.20879706421494482,0.3725334090191871
1772615903844712700,1.986712646484375,0.10945669227987527,-0.22971359551548956,0.2899793367121368
1772615903854780700,1.99678076171875,-0.17763707905858753,-0.2668646377801895,0.16030951216071843
1772615903864849000,2.006848876953125,-0.4099640719428658,-0.3382213165074587,0.08378237199299036
1772615903874916900,2.016916748046875,-0.5706275121077895,-0.4102642239332199,0.06411416025310754
1772615903884984800,2.02698486328125,-0.646506344434619,-0.4642091646105051,0.08328728195242584
1772615903895052500,2.037052490234375,-0.6566434153065085,-0.5754957026660442,0.1483406958170235
1772615903905120800,2.047120849609375,-0.6548588699772954,-0.7705190930724144,0.12039075874835252
1772615903915188700,2.057188720703125,-0.6336249432906508,-0.8657780409127473,0.07726619503200054
1772615903925256700,2.067256591796875,-0.6082891342431307,-0.9166834677636623,0.02034779150187969
1772615903935324700,2.07732470703125,-0.6595467355325818,-0.9839245278656482,-0.15449899925105273
1772615903945393000,2.087392822265625,-0.8116326092272996,-1.0185060119032858,-0.45120318723879754
1772615903955460900,2.0974609375,-0.9319178617745637,-0.9574965396672487,-0.7348039288297296
1772615903965528800,2.10752880859375,-0.9292357830837369,-0.799162419232726,-0.9523785390663891
1772615903975596500,2.117596435546875,-0.8362991407111287,-0.5978922433912753,-1.0149464927908032
1772615903985664800,2.127664794921875,-0.6474938941672443,-0.34737492929995056,-0.8596140383902937
1772615903995733800,2.137733642578125,-0.4479544876411557,-0.035735914769768715,-0.5823011448971926
1772615904005801700,2.1478017578125,-0.33920623589158055,0.31333763514161106,-0.22284823979064822
1772615904015870000,2.157869873046875,-0.29358956309854983,0.5730027168065309,0.07940591047443449
1772615904025938000,2.16793798828125,-0.32068565981686115,0.7806067718446255,0.184941922179237
1772615904036005600,2.178005615234375,-0.3811638016551733,0.9139064042657613,0.08940839518122375
1772615904046073600,2.188073486328125,-0.43625791236758227,0.9366530736029147,-0.15045388857871292
1772615904056141800,2.198141845703125,-0.5014958159536123,0.9042132777690887,-0.33665450558215376
1772615904066209800,2.208209716796875,-0.5009297065034508,0.8451900109142064,-0.34261494835652406
1772615904076277800,2.21827783203125,-0.4627208257488906,0.837106073179841,-0.2160972311604768
1772615904086345700,2.228345703125,-0.48519145462363955,0.865329128101468,-0.06794460526145994
1772615904096414000,2.2384140625,-0.5164256740599871,0.9475888936370611,0.04432129922024906
1772615904106481700,2.248481689453125,-0.5281545441679656,1.0280442400991916,0.175635091586411
1772615904116549600,2.258549560546875,-0.45802375397384165,1.0245879621654748,0.31251660108231005
1772615904126617600,2.26861767578125,-0.43836394473612306,1.0209335313111543,0.4150885022845119
1772615904136685800,2.278685791015625,-0.6005386662468314,1.0399772544771433,0.3964879928413778
1772615904146753800,2.28875390625,-0.806066791793704,1.0145242487907409,0.5117056598007679
1772615904156821800,2.29882177734375,-0.9344827438265084,0.9704203186482191,0.6896818346206098
1772615904166889700,2.3088896484375,-1.0484642200544476,0.9755302090078591,0.7576491631705313
1772615904176958000,2.3189580078125,-1.204950374534726,0.9463146359175443,0.740199869589135
1772615904187025700,2.329025634765625,-1.339544138419628,0.8210060022503137,0.6896034356221556
1772615904197093600,2.33909375,-1.4517013218298553,0.7274895141631365,0.6333312941063195
1772615904207161600,2.34916162109375,-1.4960624416038393,0.7018149746805429,0.6180480925176293
1772615904217229800,2.359229736328125,-1.4811363828897475,0.6500847874432801,0.6744480251315981
1772615904227297800,2.3692978515625,-1.4996666035756467,0.5600228237241506,0.7118924973849207
1772615904237365800,2.37936572265625,-1.512523747061193,0.4053402115345001,0.7171946223810315
1772615904247433700,2.389433837890625,-1.4805869323134422,0.25751521015465256,0.6528559326570481
1772615904257502000,2.399501953125,-1.4606974059730766,0.17418518503904343,0.5375891658589244
1772615904267569700,2.409569580078125,-1.5000535570666194,0.04681728075444698,0.4525080592922866
1772615904277637600,2.4196376953125,-1.6025924327820538,-0.09938859499096869,0.35916195933595296
1772615904287705600,2.42970556640625,-1.6776541035071015,-0.21335867304205894,0.22115429535433648
1772615904297773800,2.43977392578125,-1.668520072197914,-0.3106009036540985,0.07319339263513684
1772615904307841800,2.449841796875,-1.5228320828467607,-0.33726796130537984,-0.000499620085209608
1772615904317909800,2.45990966796875,-1.2944830536827445,-0.2997258738964796,-0.0026917233020067213
1772615904327977700,2.469977783203125,-1.0394248812913893,-0.24297815075814722,0.16599800612591206
1772615904338046000,2.4800458984375,-0.8117603272601962,-0.15512567978203295,0.4413115424953401
1772615904348113700,2.49011376953125,-0.6237082371711731,-0.0290659354865551,0.7145595977023244
1772615904358182700,2.5001826171875,-0.45303485964536666,0.10758242284059524,0.9468868097823112
1772615904368251000,2.5102509765625,-0.3850020646438002,0.2135615021377802,1.0957060828965157
1772615904378318800,2.52031884765625,-0.4064122246801853,0.32751229096651074,1.1707305634163319
1772615904388386800,2.53038671875,-0.46921471781283614,0.42552316786348815,1.2074270668465643
1772615904398454800,2.540454833984375,-0.539704842838645,0.46828854287862776,1.241681730082631
1772615904408522800,2.550522705078125,-0.6045183835327624,0.39221769511103627,1.1041844998411834
1772615904418590700,2.5605908203125,-0.7214712767869234,0.28300328715443607,0.7223889761537313
1772615904428658700,2.57065869140625,-0.8205348776072263,0.16475158626139164,0.35975729488059877
1772615904438726700,2.5807265625,-0.8920543456807732,0.02807984705865383,0.1957000475589186
1772615904448795000,2.590794921875,-0.8959174508497119,-0.026142156994342802,0.15048793697878718
1772615904458862800,2.60086279296875,-0.822448894535005,-0.006057984864711761,0.21598010758683084
1772615904468930800,2.610930908203125,-0.663367755125463,0.03317278628349304,0.36349319347329434
1772615904478998800,2.620998779296875,-0.5272361141487956,0.03571078032851219,0.4789497837550938
1772615904489066800,2.631066650390625,-0.4647559848383069,0.015595628538727759,0.5009230575669557
1772615904499134700,2.641134765625,-0.4582344741150737,0.00905132146179676,0.36368272469602525
1772615904509202700,2.65120263671875,-0.5364072625979781,0.018126023799180983,0.15381678914055227
1772615904519270700,2.661270751953125,-0.7075318910226226,0.04462415462434292,-0.051282954926416276
1772615904529339000,2.6713388671875,-0.8522934131786227,0.07593231607973575,-0.20389855158366263
1772615904539406800,2.68140673828125,-0.9840189281508326,0.08846329635083675,-0.28465375777520235
1772615904549474800,2.691474853515625,-1.0430293355241418,0.11951076104342936,-0.21804734231494366
1772615904559542500,2.70154248046875,-0.9693661334201693,0.11899345917105673,-0.09245784587971866
1772615904569610800,2.71161083984375,-0.838970990268886,0.12891805633604525,-0.03331862449496984
1772615904579678700,2.7216787109375,-0.6528764639884234,0.20374737960994244,-0.025905498694255947
1772615904589746700,2.73174658203125,-0.47698155242204665,0.24698972448706624,0.01696425001081079
1772615904599814700,2.741814697265625,-0.39710312906503675,0.22465865021347997,0.07589644104875624
1772615904609883000,2.7518828125,-0.3231877057656646,0.20704934376478193,0.04972122203502804
1772615904619950800,2.761950927734375,-0.236676712526381,0.20196926402151583,-0.06614603140689432
1772615904630018800,2.772018798828125,-0.19542787955403326,0.17180618094801903,-0.2373106630483642
1772615904640086800,2.782086669921875,-0.15272124898880718,0.13959902482628822,-0.33042649791277945
1772615904650154800,2.79215478515625,-0.1767281475201249,0.15987024396061897,-0.3650785264359787
1772615904660222500,2.802222412109375,-0.26932693624049425,0.19125030160844325,-0.4364964338311925
1772615904670290700,2.812290771484375,-0.3087406627401709,0.2381084988951683,-0.43115057929120953
1772615904680358700,2.822358642578125,-0.25632395454347134,0.26636019538939,-0.2765222911046818
1772615904690426600,2.832426513671875,-0.1425827168121934,0.3233411427617073,-0.06666687694322318
1772615904700495600,2.84249560546875,-0.048076340904831885,0.3115460755497217,0.13742566284257918
1772615904710563600,2.8525634765625,0.024675007051229474,0.23471125767230985,0.2146241264006123
1772615904720631600,2.862631591796875,0.0460930581331253,0.11048866567611694,0.058929268428497016
1772615904730699500,2.872699462890625,0.03914513869136572,-0.0007803367227315903,-0.2748013307972811
1772615904740767700,2.882767822265625,-0.09459405419081449,-0.09921966816484927,-0.5106121654756367
1772615904750835700,2.892835693359375,-0.29558745891749855,-0.09434066395163536,-0.48278680463470514
1772615904760903700,2.902903564453125,-0.46578357432037587,0.04558861574232578,-0.18151092481724918
1772615904770971600,2.9129716796875,-0.6683215781405568,0.2284919447660446,0.08938201863095163
1772615904781039600,2.92303955078125,-0.837615191745758,0.500252537894249,0.014221472375001758
1772615904791107600,2.933107666015625,-0.9231342513382435,0.7314063953459262,-0.17419711293885484
1772615904801175600,2.943175537109375,-0.9808949509114027,0.898028451654315,-0.1823921280985698
1772615904811243500,2.953243408203125,-0.9907482364058494,0.9592506898581981,-0.16273118634968994
1772615904821311700,2.963311767578125,-0.8238724975973367,1.0399784235209226,-0.18452203453304244
1772615904831379700,2.973379638671875,-0.738570295625925,1.0188134704172611,-0.23096235346756874
1772615904841447700,2.98344775390625,-0.7165367429941892,0.8912333846867084,-0.29180819610711184
1772615904851515600,2.993515625,-0.50972471511662,0.8031716548740864,-0.2788141101025976
1772615904861583600,3.00358349609375,-0.23141046256124972,0.7621002242952585,-0.2855073058646172
1772615904871651600,3.013651611328125,0.04376812231689691,0.8018664174944162,-0.1797519523207098
1772615904881719600,3.023719482421875,0.28625615147054195,0.6765951932281256,0.051962352025322615
1772615904891787500,3.03378759765625,0.5068804316014052,0.4792097498655319,0.18393168569076807
1772615904901855700,3.043855712890625,0.6703396399646997,0.2377291441887617,0.13927808577623219
1772615904911923700,3.053923828125,0.774186383408308,-0.1642348689109087,-0.07438360706670209
1772615904921991700,3.06399169921875,0.7013403429061174,-0.47255029197633264,-0.5202478261640295
1772615904932059600,3.0740595703125,0.4805179098546505,-0.5363952798992395,-0.9432814787667244
1772615904942127600,3.084127685546875,0.22021628385186193,-0.6111766723781824,-1.0346300482302904
1772615904952195600,3.094195556640625,-0.02521978145241737,-0.6830120745331049,-0.9215687555871903
1772615904962263600,3.104263671875,-0.1445883575461805,-0.7427940508008003,-0.8746770944222807
1772615904972331800,3.114331787109375,-0.16351590698659418,-0.6607499738425016,-0.8057229467920959
1772615904982399700,3.124399658203125,-0.22353110748827457,-0.6181044258147478,-0.6153622874997556
1772615904992467700,3.1344677734375,-0.25912133017703887,-0.6624748979389667,-0.3644709524642676
1772615905002535700,3.14453564453125,-0.24094635266959666,-0.6397913569658994,-0.16916184045169502
1772615905012603600,3.154603759765625,-0.2160141559869051,-0.5405255115717649,-0.00907272957600653
1772615905022671600,3.164671630859375,-0.21277225145623085,-0.43110652095377444,0.15594591012373565
1772615905032740600,3.17474072265625,-0.28812077629864213,-0.3841945476531982,0.305078121644631
1772615905042808600,3.18480859375,-0.45736777428314085,-0.3834802619040012,0.2655969559319317
1772615905052876800,3.194876708984375,-0.6455506511449813,-0.4073480442255735,-0.010806202305108308
1772615905062944800,3.20494482421875,-0.7645791816294193,-0.4200432751476764,-0.3066969184854999
1772615905073012500,3.215012451171875,-0.814142253960669,-0.3652443479895591,-0.40817773651536554
1772615905083080400,3.22508056640625,-0.7499234642893076,-0.31009178508818147,-0.37879137343540786
1772615905093148700,3.235148681640625,-0.5584726716727018,-0.16696867778897284,-0.39955969190429896
1772615905103216600,3.245216552734375,-0.31388299406468867,0.023141221612691876,-0.3410785325694829
1772615905113284600,3.25528466796875,0.028442250630259513,0.08308277235627173,-0.17203787081204353
1772615905123352800,3.265352783203125,0.3855255039960146,0.09520458730459212,-0.08549286570530384
1772615905133420800,3.2754208984375,0.6479547896772623,0.146449621373415,-0.09895078809559345
1772615905143488800,3.28548876953125,0.7974930247157812,0.1155535478502512,-0.08978782295286655
1772615905153556500,3.295556396484375,0.8836886683955788,0.06610299598276614,-0.052455944228544826
1772615905163624700,3.305624755859375,0.9115396751344204,0.018970657929778097,-0.0086526044677943
1772615905173692700,3.315692626953125,0.9062345544636249,-0.0011813187390565872,0.03750847740024328
1772615905183760600,3.3257607421875,0.8760141882449388,-0.033332945281267165,0.05368395165354013
1772615905193828600,3.33582861328125,0.7718149781018495,-0.028861352825164794,-0.02762004752717912
1772615905203896800,3.345896728515625,0.6336807651311159,0.05567103381752968,-0.1378363260027021
1772615905213964800,3.35596484375,0.5705903949677944,0.19539806893765926,-0.06435191453173757
1772615905224032800,3.36603271484375,0.5696726956009864,0.31674656680226326,0.08125365723297
1772615905234100500,3.3761005859375,0.6150654965102672,0.3441881159573793,0.11260521943867206
1772615905244168700,3.386168701171875,0.7223509822309017,0.406149774351716,0.14171667456738649
1772615905254236700,3.396236572265625,0.8789820981398224,0.4040133468449115,0.27303594682626425
1772615905264304600,3.4063046875,1.0488836145102978,0.32946927025318146,0.4023577616576105
1772615905274372600,3.41637255859375,1.1588374426573513,0.26621348039507864,0.40162871673069894
1772615905284440800,3.42644091796875,1.1707073286712169,0.1480389363914728,0.2946810846623033
1772615905294508800,3.4365087890625,1.1260527789086103,0.06597206307947635,0.10681560318656265
1772615905304576500,3.446576416015625,1.0365390967220067,0.04447568606436252,-0.04446735662743449
1772615905314644500,3.45664453125,0.9591589199215174,0.03528641743659973,-0.0488115963768214
1772615905324712700,3.466712646484375,0.921467779430747,0.00547463201880455,0.007379223531112074
1772615905334780700,3.47678076171875,0.8414537469953298,0.01213701251745224,-0.026094299264624712
1772615905344848600,3.4868486328125,0.7686670354649424,0.06379062738716602,-0.03579064063169062
1772615905354916600,3.49691650390625,0.8140864321202039,0.03918576296269893,0.16959836870543657
1772615905364985600,3.506985595703125,0.938170784689486,0.023105565777420997,0.4450150731883943
1772615905375053600,3.517053466796875,1.058469481240213,0.06602817718088627,0.6597090864874422
1772615905385121500,3.52712158203125,1.0769579086109995,0.02246200717687607,0.8203646356068551
1772615905395189800,3.537189697265625,0.968676689851284,-0.0002963525980710983,0.8787377679899334
1772615905405257700,3.5472578125,0.826288911089301,-0.0033200843334197996,0.9056805738426744
1772615905415325700,3.55732568359375,0.711016810528934,-0.002032382610440254,0.9096168903782963
1772615905425393700,3.5673935546875,0.5993991408228874,0.017315876460075378,0.8959342558540403
1772615905435461600,3.577461669921875,0.45426557048410177,-0.01192132394015789,0.8557293059114366
1772615905445529600,3.587529541015625,0.3141141724720597,-0.04779343231022358,0.8111384690348058
1772615905455597600,3.59759765625,0.20865794800519943,-0.0505985528588295,0.8047527135204523
1772615905465665500,3.60766552734375,0.17298574612140655,-0.08718903863131999,0.8546520320687443
1772615905475733800,3.617733642578125,0.2557008542090654,-0.19657821863293645,0.8993889994177967
1772615905485801700,3.6278017578125,0.4123942216992378,-0.2754138549387455,0.8367709229413419
1772615905495869700,3.63786962890625,0.5895715742915868,-0.3418307391762733,0.7350695940285921
1772615905505937700,3.647937744140625,0.7242842883810401,-0.4161152880489826,0.7559779420226812
1772615905516005600,3.658005615234375,0.7995338828936219,-0.5085357975929975,0.8194879989027977
1772615905526073600,3.668073486328125,0.773705029632151,-0.6165881760329007,0.7973441908296197
1772615905536141600,3.6781416015625,0.5775006127476692,-0.755764007011056,0.6362896324552595
1772615905546209500,3.68820947265625,0.1904141430452466,-0.9042401657760143,0.3191793469071388
1772615905556277800,3.69827783203125,-0.2610322783648968,-1.0086159015297889,-0.02196589422300458
1772615905566345700,3.708345703125,-0.7011082877159118,-1.0543933178424834,-0.3248236364044249
1772615905576413700,3.71841357421875,-1.0657359651118516,-1.029050786793232,-0.5767687182765454
1772615905586481700,3.728481689453125,-1.2707728000104426,-0.9115122026056051,-0.7651082470048218
1772615905596549600,3.738549560546875,-1.2721283062726259,-0.782140557283163,-0.8263677484791725
1772615905606617600,3.74861767578125,-1.117858366537094,-0.6591442922115326,-0.7207092063732444
1772615905616685600,3.758685546875,-0.9122241502672433,-0.466954663926363,-0.48314606640115376
1772615905626753500,3.76875341796875,-0.6465221265256405,-0.2890940052449703,-0.20244053479507565
1772615905636821800,3.77882177734375,-0.40370851867944,-0.1712929707288742,-0.008974676029011606
1772615905646889700,3.7888896484375,-0.25809417908638715,-0.07320961311757564,0.11002656458970159
1772615905656958200,3.798958251953125,-0.2199959190994501,0.029895372048020362,0.16171554303374142
1772615905667026000,3.80902587890625,-0.20973551410883665,0.10016659362614154,0.11379435615800321
1772615905677094100,3.81909423828125,-0.2485103581830859,0.21897300579249857,0.04666771621592342
1772615905687162000,3.829162109375,-0.32578269069492816,0.3352268108665943,0.010534582289494573
1772615905697231000,3.839231201171875,-0.48311201800107956,0.46766485802233215,0.021875110667012632
1772615905707299300,3.84929931640625,-0.6157488025993109,0.6599795739918947,0.10981522339396178
1772615905717367300,3.8593671875,-0.6452361783683299,0.8280342934519052,0.23385222969017921
1772615905727435000,3.86943505859375,-0.6220069862112403,1.017252796971798,0.30181846226155756
1772615905737503000,3.8795029296875,-0.6182473414167762,1.1613865426182746,0.3731383161097765
1772615905747571200,3.8895712890625,-0.6645283233374357,1.2506798600524662,0.5713777094205841
1772615905757639200,3.89963916015625,-0.6617752252370118,1.2805600345313548,0.8295232168354093
1772615905767707100,3.90970703125,-0.5925234098345041,1.2031406947642564,0.9978144484650343
1772615905777775000,3.919775146484375,-0.5307502597495913,1.0482336261689662,1.0020287782244384
1772615905787843300,3.92984326171875,-0.5055716870903969,0.8000514770269394,0.809076787264645
1772615905797911000,3.9399111328125,-0.5267807715967298,0.5250380195826292,0.521604830263555
1772615905807979000,3.94997900390625,-0.5743617302000522,0.3059358344525099,0.23751031380631027
1772615905818047000,3.960046875,-0.6081038408041,0.09754325938522815,0.07707264522127806
1772615905828115200,3.970115234375,-0.649229047396779,-0.11522270846068858,-0.06109802730232477
1772615905838183200,3.98018310546875,-0.7391492645576596,-0.2885521534532308,-0.25704430470727385
1772615905848251100,3.990251220703125,-0.8762760540515184,-0.44861996581256386,-0.3992377299409359
1772615905858319000,4.000319091796875,-0.9397875722363591,-0.5944406416326761,-0.3549481410332024
1772615905868387300,4.01038720703125,-0.9335133142724633,-0.6514063914358615,-0.23955606735497711
1772615905878455000,4.020455078125,-0.9504241170629858,-0.6671218469619751,-0.12992051137685776
1772615905888523000,4.03052294921875,-0.967690016901493,-0.6386193905770778,-0.041454219351336356
1772615905898591000,4.040591064453125,-0.9213546744450927,-0.5741729296296835,0.03385251217596233
1772615905908659200,4.0506591796875,-0.8357610883116722,-0.4816442835360765,0.08035824276320636
1772615905918727200,4.06072705078125,-0.7321879011124373,-0.3594716098070144,0.035035073024034497
1772615905928795100,4.070795166015625,-0.5440466714352369,-0.16272387982606887,0.029526465670391914
1772615905938863000,4.080863037109375,-0.28479660031199455,-0.05626081640422344,0.07433489082045852
1772615905948931300,4.090931396484375,0.02714695012271404,0.11496142717599868,0.15184585439376533
1772615905958999000,4.1009990234375,0.3215238642066717,0.40339375364184377,0.36894948611781
1772615905969067000,4.11106689453125,0.5247352372437715,0.5851017354011535,0.706534623613581
1772615905979135000,4.121135009765625,0.645853433483839,0.7376105106830596,0.9868373465724288
1772615905989204200,4.131204345703125,0.6536030246973037,0.868387931150198,1.1365976268637925
1772615905999272200,4.141272216796875,0.5419084903627633,0.9279051190018653,1.2292884047165513
1772615906009340200,4.151340087890625,0.3904085998624563,0.9036018678724765,1.313749479688704
1772615906019408100,4.161408203125,0.1938929250717163,0.7449427532672882,1.2893088659152387
1772615906029476000,4.17147607421875,-0.0954872036382556,0.5929957035213709,1.12777375748232
1772615906039544000,4.1815439453125,-0.3514087148606777,0.4786608838111162,1.0018258029982448
1772615906049612000,4.191612060546875,-0.45865299178808927,0.32857495176196094,0.9424769574508071
1772615906059680300,4.20168017578125,-0.47295156625360246,0.16503800198733806,0.8429526072509587
1772615906069748200,4.211748291015625,-0.46112931877374647,0.021929507735371587,0.6420007766436785
1772615906079816200,4.221816162109375,-0.4712278112009167,-0.11465279961824416,0.30835531668439503
1772615906089884200,4.23188427734375,-0.4382715902775526,-0.24855098245441912,0.051640755388140676
1772615906099952000,4.2419521484375,-0.3350917863100767,-0.36340719569027424,0.016127835719287394
1772615906110020000,4.25202001953125,-0.11682429843842983,-0.41268706716597076,0.04932904437966645
1772615906120088000,4.262088134765625,0.10671119296401739,-0.346527372559905,0.08500942956991493
1772615906130156000,4.272156005859375,0.2425654783040285,-0.23094109148383138,0.12520239681378006
1772615906140224300,4.282224365234375,0.2480041622266173,-0.11412497635185719,0.27451668690331277
1772615906150292200,4.292292236328125,0.20259061079025267,-0.04892214407920837,0.5598251822602004
1772615906160360200,4.302360107421875,0.19307225633859634,0.038703532403707504,0.7695947447691113
1772615906170428200,4.31242822265625,0.15290508112311363,0.1443617091834545,0.8738326794873923
1772615906180496100,4.32249609375,0.057358548513054844,0.1609142000555992,0.9017170770391821
1772615906190564000,4.332564208984375,-0.08610796539634466,0.1099497364938259,0.8172839860524982
1772615906200632000,4.342632080078125,-0.21913696418255565,0.06812076554596423,0.7083708260647952
1772615906210700000,4.352699951171875,-0.3051011371940374,0.031303485280275344,0.6493762738477439
1772615906220768300,4.362768310546875,-0.3531903375804424,-0.0010094693034887314,0.6291465557675808
1772615906230836200,4.372836181640625,-0.3956999842688441,-0.08757949925363064,0.5376010754924267
1772615906240904200,4.382904296875,-0.4794420973166823,-0.20092998410165308,0.36347792283892627
1772615906250972200,4.39297216796875,-0.4528562882080674,-0.2907072856605053,0.3008151304379105
1772615906261040000,4.4030400390625,-0.2919172459721565,-0.3383937504649162,0.5105909765571356
1772615906271108000,4.413108154296875,-0.09513444467782974,-0.3151806326597929,0.8974476560916751
1772615906281176000,4.423176025390625,0.0821671188160777,-0.3131955963224172,1.2246968391425908
1772615906291244000,4.433244140625,0.21848609905838964,-0.36156595173776146,1.301453477217257
1772615906301313300,4.443313232421875,0.24845336729884146,-0.43143794486522674,1.1431533321175724
1772615906311381000,4.453381103515625,0.14444237320423126,-0.581827828297019,0.8166696535464376
1772615906321449000,4.463448974609375,-0.0851259686216712,-0.7018664126068354,0.4766798660617321
1772615906331517200,4.47351708984375,-0.3780915546029806,-0.773149441576004,0.23933884440772235
1772615906341585200,4.483585205078125,-0.7115399576202035,-0.8176888405263424,0.03141878222301602
1772615906351653000,4.493653076171875,-1.0334180420920251,-0.7476409063100814,-0.11650456496477127
1772615906361721000,4.50372119140625,-1.349335464593768,-0.6209504628956317,-0.22590002857670186
1772615906371789300,4.513789306640625,-1.589204835681617,-0.4408189366728067,-0.27956417955122886
1772615906381857300,4.523857177734375,-1.7321423572808503,-0.20776830568909643,-0.2742689957525581
1772615906391925000,4.533925048828125,-1.7428394001230596,0.07053951712548732,-0.19972287333421407
1772615906401993000,4.543992919921875,-1.6807073535978794,0.3766068690031767,-0.12184212660044431
1772615906412061200,4.554061279296875,-1.5576801088660954,0.6303799700200557,-0.07574987218491733
1772615906422129200,4.564129150390625,-1.329763918161392,0.7390121941745281,-0.04186075432561338
1772615906432197000,4.574197021484375,-0.9982540819913148,0.6932412076026201,-0.013769728285819292
1772615906442265000,4.58426513671875,-0.6501473312854766,0.6421241838276386,-0.11487930185049772
1772615906452333300,4.594333251953125,-0.34329262842237945,0.6406359910964965,-0.3184920952953398
1772615906462401000,4.604401123046875,-0.10364479113072156,0.5597475139141083,-0.45641770701669154
1772615906472469000,4.614468994140625,0.05340864184349775,0.458062332418561,-0.5618600490886718
1772615906482537000,4.624536865234375,0.18103256671577692,0.47435003487467764,-0.7388087805569171
1772615906492605200,4.634605224609375,0.31633009495586156,0.5320370846897363,-0.8607409235283732
1772615906502673200,4.644673095703125,0.5332204492554068,0.5633183581382036,-0.8260136012792587
1772615906512741000,4.6547412109375,0.7656982487872243,0.5938520280897617,-0.7037515687663107
1772615906522809000,4.66480908203125,0.9392308151364326,0.6607283465325832,-0.5114258199460804
1772615906532877300,4.674877197265625,1.0532833107739685,0.6980190895289182,-0.3158436266131699
1772615906542945000,4.684945068359375,1.068045995619893,0.6653758800774813,-0.1684738216549158
1772615906553013000,4.695012939453125,0.9953919705584645,0.5679425108075141,-0.06675042704083026
1772615906563081200,4.705081298828125,0.7992039202868938,0.4718009349137544,-0.048296778722479936
1772615906573149200,4.715149169921875,0.49229514914900063,0.3596212474107742,-0.10930661628469825
1772615906583217200,4.725217041015625,0.0824114489659667,0.22526947558820246,-0.20422091540582477
1772615906593286100,4.7352861328125,-0.30830811654180285,0.06275310103297234,-0.3328442996442318
1772615906603354000,4.74535400390625,-0.6179334531620144,-0.1254044952571392,-0.47627873791493475
1772615906613422000,4.755422119140625,-0.8277367718100548,-0.2627589560270309,-0.6038784051287919
1772615906623490000,4.765489990234375,-0.9433025946199893,-0.34365795460343357,-0.6834487123847007
1772615906633558000,4.77555810546875,-1.0231842328473926,-0.39242052420675755,-0.7188221505176275
1772615906643626200,4.785626220703125,-1.1221417429447174,-0.41342298022508617,-0.7350703977461904
1772615906653694200,4.795694091796875,-1.1501645991191267,-0.4073357692658901,-0.7867591569945216
1772615906663761700,4.80576171875,-1.0745151916339992,-0.3056722150802612,-0.8624563491441309
1772615906673829600,4.81582958984375,-0.9021747576788067,-0.13349252464473246,-0.7906735539592802
1772615906683897600,4.825897705078125,-0.7482990779578685,-0.002148117944598198,-0.5180824282910674
1772615906693965300,4.83596533203125,-0.49223991183042526,0.16499182475805282,-0.2584942112546414
1772615906704033500,4.846033447265625,-0.20965455782711503,0.41379356710314746,-0.1426031020130962
1772615906714101500,4.8561015625,-0.017594693401455877,0.6163964528530835,-0.06205598561428487
1772615906724169500,4.86616943359375,0.10252397040724753,0.7690279777318239,0.07425766086578368
1772615906734237400,4.876237548828125,0.20094255132228134,0.8923919070720672,0.161355660212785
1772615906744305700,4.8863056640625,0.26139029802232977,0.9711714292764663,0.20125446681566536
1772615906754373600,4.89637353515625,0.27484043896496296,0.9942050988614558,0.2964490441828966
1772615906764441600,4.906441650390625,0.2924938768163323,0.9659744451552629,0.3989193847067654
1772615906774509300,4.91650927734375,0.29983664079457517,0.9195376881510019,0.44247671381719406
1772615906784577500,4.92657763671875,0.3434709075987339,0.8535586108088493,0.4582003526497632
1772615906794645500,4.9366455078125,0.42098844704329963,0.7412976747632026,0.5147784913748502
1772615906804713500,4.94671337890625,0.55175271576792,0.5658715497523545,0.5217192504234611
1772615906814781400,4.956781494140625,0.7050473807305098,0.35535716022551056,0.3939041868932545
1772615906824849700,4.966849609375,0.8010343505844474,0.13307985219061375,0.17095482481569052
1772615906834917600,4.976917724609375,0.8021423118263482,-0.16751695932149885,-0.08245185404159128
1772615906844985600,4.986985595703125,0.8045388515740632,-0.38519583365023136,-0.3353141238238662
1772615906855053300,4.99705322265625,0.7971671537622809,-0.539777323552966,-0.5389793050430715
1772615906865121500,5.00712158203125,0.7497773338168859,-0.6892407397896051,-0.6709222621582448
1772615906875190500,5.0171904296875,0.6791440009281039,-0.7592559407800435,-0.7614282433178275
1772615906885258500,5.027258544921875,0.6246320740178227,-0.7040946100503206,-0.8064289031043648
1772615906895326700,5.03732666015625,0.556325722771883,-0.5724801542371512,-0.7018962232232093
1772615906905394400,5.04739453125,0.4607704223334789,-0.46313481337726115,-0.4435531108770519
1772615906915462400,5.05746240234375,0.41361178079545496,-0.34863398945033547,-0.18479513411968945
1772615906925530400,5.0675302734375,0.4539674643203616,-0.22253099053502082,-0.0232237122643739
1772615906935598600,5.0775986328125,0.5580106071189046,-0.12297697584927081,0.03606112813614309
1772615906945666600,5.08766650390625,0.7062386363416909,-0.050515550750494,0.02799034214429557
1772615906955734500,5.097734619140625,0.8802139780223369,-0.025565233889222144,0.04695552018135786
1772615906965802500,5.107802490234375,1.0145067131340504,-0.04261398384571075,0.05693082462027669
1772615906975870700,5.11787060546875,1.1279933915823697,-0.0693254651606083,0.022686463582515717
1772615906985938400,5.1279384765625,1.1785051429405808,-0.08156359996497631,-0.0850159323759377
1772615906996006400,5.13800634765625,1.1758274481639266,-0.09001929362118244,-0.19523199165575206
1772615907006074400,5.148074462890625,1.1787673010081052,-0.09565817629098891,-0.20299210426323114
1772615907016142600,5.158142578125,1.1163453316256404,-0.07129530392885208,-0.06678389091901481
1772615907026210600,5.16821044921875,1.0335232560321688,-0.07729132947325706,0.18235775090493261
1772615907036278500,5.178278564453125,0.9796849905997514,-0.13088906414806842,0.4035456562679261
1772615907046346500,5.188346435546875,0.9366954514399171,-0.23539397923946379,0.4705469893299043
1772615907056414700,5.198414794921875,0.8223439728558063,-0.32479367965757844,0.46710729720480737
1772615907066482400,5.208482421875,0.6716548142164945,-0.4177659778654575,0.5257492365919053
1772615907076550400,5.21855029296875,0.5535775931075215,-0.5344967528015375,0.5712956936929374
1772615907086618400,5.228618408203125,0.3956310106858611,-0.5853904892146587,0.5459763243235647
1772615907096686600,5.2386865234375,0.22342823163568973,-0.6533879206418991,0.4806164748582989
1772615907106754600,5.248754638671875,0.1552007908448577,-0.6962760452538729,0.4465677094578743
1772615907116822500,5.258822509765625,0.19493863473236558,-0.6364210037499666,0.6364994027484208
1772615907126890500,5.268890380859375,0.2949126283958554,-0.646155631300807,1.0816481122538446
1772615907136957400,5.27895751953125,0.3107709995239973,-0.6512129146903753,1.0663871955621986
1772615907147025700,5.289025634765625,0.43332711961269377,-0.652867696160078,1.4143804759562015
1772615907157093600,5.29909375,0.44232174245119094,-0.5751069956094026,1.524705767764151
1772615907167161300,5.309161376953125,0.21048487117141484,-0.5852624789208173,1.517777137544751
1772615907177229300,5.319229248046875,-0.28559125782102346,-0.7074836679667234,1.3729527792856095
1772615907187297500,5.329297607421875,-0.8923033520057797,-0.8231196334034204,0.9316058001507073
1772615907197365500,5.339365478515625,-1.4866002012535928,-0.8574351599812507,0.2844374116107821
1772615907207433500,5.34943359375,-2.005592510931194,-0.7615010893583297,-0.346915860420838
1772615907217501700,5.359501708984375,-2.365370410208404,-0.5786468601733445,-0.8630019272629171
1772615907227569700,5.369569580078125,-2.4248271000444888,-0.2831651997178793,-1.0227812780696899
1772615907237637600,5.3796376953125,-2.2306115188896656,-0.04139759379327297,-0.7276095603462308
1772615907247705300,5.389705322265625,-1.9629089689806103,0.23251988510787486,-0.29302681464925406
1772615907257773600,5.399773681640625,-1.6612538805872201,0.6022744039982557,0.10739968668483198
1772615907267841500,5.409841552734375,-1.2052373747825622,0.8591934018254279,0.4439182178623974
1772615907277909500,5.419909423828125,-0.6942731809988617,0.9280126710295676,0.660621159831062
1772615907287977500,5.4299775390625,-0.2183560429379344,0.9471317975193262,0.7669633733522147
1772615907298045700,5.440045654296875,0.1267167468994856,0.9383885190933943,0.8391725041903555
1772615907308114400,5.450114501953125,0.3422597782433033,0.8181079427212476,0.8384151830170303
1772615907318182400,5.460182373046875,0.37845162008702754,0.787314160528779,0.7586321097932756
1772615907328250400,5.47025048828125,0.18026245912611483,0.7683838346093893,0.6894782018072902
1772615907338318600,5.480318603515625,-0.21204612913876772,0.7474398307800293,0.525745656395331
1772615907348386600,5.490386474609375,-0.5322735237941145,0.8259230003863572,0.44232254616878924
1772615907358454500,5.50045458984375,-0.686877810050547,0.9357277754515408,0.6049983490694314
1772615907368522500,5.5105224609375,-0.8410247079282999,0.9757043965309857,0.9725080116424709
1772615907378590500,5.520590576171875,-0.9897329218834638,0.9655132573843002,1.3247785309642552
1772615907388658400,5.530658447265625,-1.0130220275342463,0.9764654440313577,1.4904405100688338
1772615907398726400,5.540726318359375,-0.9892948227271438,0.9348141677379608,1.5103934570342301
1772615907408794400,5.55079443359375,-0.9739026078060269,0.821202986127138,1.4656947758689522
1772615907418862600,5.560862548828125,-0.9988464949265122,0.7071329548329115,1.360840901209414
1772615907428930600,5.5709306640625,-1.0603981112152336,0.5976327156722545,1.2246871214661748
1772615907438998500,5.58099853515625,-1.1149313731744885,0.44889936727583407,1.1030960470173508
1772615907449066800,5.591066650390625,-1.195265431344509,0.31423253815472124,1.0486694603029638
1772615907459134500,5.601134521484375,-1.3288099784374237,0.16018822386860845,1.00411011454314
1772615907469202400,5.611202392578125,-1.4652210208773613,0.012833762609958648,0.9021510114770382
1772615907479270400,5.6212705078125,-1.5662591366410255,-0.11800269456803798,0.8055307852208614
1772615907489338600,5.631338623046875,-1.7052020356461404,-0.23260171817243097,0.7561940689913929
1772615907499406600,5.641406494140625,-1.8711416626483202,-0.3260726135522127,0.7216833121024072
1772615907509474600,5.651474609375,-2.0208108305901287,-0.39490649580359455,0.569286107436195
1772615907519542500,5.66154248046875,-2.1304247592583296,-0.4415039963275194,0.3122692752577364
1772615907529610800,5.67161083984375,-2.1617627313300964,-0.4384060303121805,0.009169541013985871
1772615907539678500,5.681678466796875,-2.1157135123386976,-0.37741350921094413,-0.24207060745917258
1772615907549747500,5.69174755859375,-1.6090665972322225,-0.13738251782059668,-0.29081498381868004
1772615907559815400,5.7018154296875,-1.1802011332035065,0.06300152283608913,-0.09100750094093382
1772615907569883600,5.711883544921875,-0.9099106126278639,0.3178337775170803,0.25922077196352183
1772615907579951600,5.72195166015625,-0.7686053684055805,0.5478051471859217,0.627327815907821
1772615907590020400,5.732020263671875,-0.7743091330051421,0.7872972093939781,0.8853989063795655
1772615907600088600,5.742088623046875,-0.9627285951018333,0.9808078571498393,1.0160918634336442
1772615907610156500,5.752156494140625,-1.2026868135169149,1.0752069732904435,1.0366246561136097
1772615907620224500,5.762224609375,-1.3813918140679597,1.1052777019053697,0.9954285031765698
1772615907630292500,5.77229248046875,-1.4876824435323477,1.0771037468224762,0.9011427112173288
1772615907640360700,5.782360595703125,-1.4872072272360324,0.9947124638617039,0.8182436979301273
1772615907650428400,5.792428466796875,-1.431626794311404,0.8482610889226198,0.748000825663656
1772615907660496100,5.80249609375,-1.3795295273274182,0.660829468819499,0.659292760771513
1772615907670564400,5.812564453125,-1.2603472675859928,0.4692886598318815,0.4803501520723104
1772615907680632300,5.82263232421875,-1.1251073147520423,0.34248423464894295,0.18390519954264162
1772615907690700300,5.8327001953125,-1.0242968702644109,0.22627309967279433,-0.06565137975774706
1772615907700768300,5.842768310546875,-0.8864338754504919,0.09963760131597518,-0.1620098863378167
1772615907710836500,5.85283642578125,-0.766483846206963,-0.024735212805867195,-0.1639426810313016
1772615907720904400,5.862904541015625,-0.640728345555067,-0.0487029483705759,-0.16447160027623176
1772615907730972400,5.872972412109375,-0.5229445544347167,0.024724691411852837,-0.17009901170395314
1772615907741040000,5.8830400390625,-0.4414937671944499,0.13567922103404997,-0.1585939404144883
1772615907751108400,5.8931083984375,-0.4052864355206489,0.24146540810763834,-0.09457626280579716
1772615907761176300,5.90317626953125,-0.3995391240403056,0.324887787681818,0.026664756096340714
1772615907771244300,5.913244384765625,-0.44178865848779675,0.412664270812273,0.14713643459379672
1772615907781312300,5.923312255859375,-0.5064309342682362,0.48378188008666034,0.18728322460837662
1772615907791380500,5.93338037109375,-0.5185711616560816,0.5113724823236465,0.15803736597765236
1772615907801448400,5.943448486328125,-0.48550212800800796,0.4668219774574041,0.19580990114156155
1772615907811516200,5.95351611328125,-0.44535570331960916,0.4178799596339464,0.26667784650381654
1772615907821584100,5.963584228515625,-0.3594605038911104,0.38763387445211406,0.2822795394571498
1772615907831652400,5.97365234375,-0.23399872548878192,0.30875615257024763,0.24947131216973065
1772615907841720300,5.98372021484375,-0.10486731866300106,0.19865677847266197,0.205001471324265
1772615907851788300,5.993788330078125,-0.022687048104405402,0.10355331345498561,0.139180287957564
1772615907861857500,6.003857421875,0.029476562114059923,0.015017536389827727,0.07302589058112352
1772615907871925200,6.01392529296875,0.028172786039113995,-0.09018062166273594,-0.00503832296077162
1772615907881993200,6.0239931640625,-0.02912818706780672,-0.10431260738968849,-0.08435461892299354
1772615907892061200,6.034061279296875,-0.026806173861026763,-0.11877660154998301,-0.09781845959741621
1772615907902129400,6.04412939453125,0.015222119051218033,-0.14111352104246616,0.012073847620747983
1772615907912197400,6.054197265625,0.051469490474462504,-0.1020984384715557,0.15606405661068856
1772615907922265300,6.064265380859375,0.07243073769956827,-0.03246259218752384,0.26278279356034473
1772615907932333300,6.074333251953125,0.1168888881072402,-0.015231471401453017,0.31984380216524005
1772615907942401500,6.084401611328125,0.1238429450288415,-0.05058043268024921,0.3442426956888288
1772615907952469200,6.09446923828125,0.10005991838127375,-0.09686755208075046,0.3298348156299442
1772615907962537200,6.104537109375,0.08371025660485029,-0.17826222521960736,0.2934659915178083
1772615907972605200,6.114605224609375,0.09972527959942817,-0.28412089300751686,0.28760113633871076
1772615907982673400,6.12467333984375,0.12134236038476227,-0.4054617920875549,0.27480500232540067
1772615907992741400,6.134741455078125,0.17920885841995476,-0.5298439585596323,0.2830473454918712
1772615908002809300,6.144809326171875,0.26379794368594883,-0.6558692160636186,0.3139513100605458
1772615908012877300,6.154877197265625,0.2676411751106381,-0.759232559904456,0.336976905936934
1772615908022945300,6.1649453125,0.2514347211971879,-0.841664174875617,0.34938787655755876
1772615908033013200,6.17501318359375,0.15485066223293542,-0.9387678737998009,0.2617302523001097
1772615908043081200,6.185081298828125,-0.015174480517208575,-1.0039227752774953,0.06431720854453742
1772615908053149200,6.195149169921875,-0.18379063325226305,-1.0083382536321879,-0.24152112035024909
1772615908063217400,6.205217529296875,-0.2949193503975868,-0.9004337592303753,-0.5567473822500556
1772615908073285400,6.215285400390625,-0.37085751169621944,-0.7374556123822927,-0.7127165271189063
1772615908083353300,6.225353271484375,-0.3608402678117156,-0.5080225873738528,-0.6655968293517828
1772615908093421300,6.23542138671875,-0.25274405023008584,-0.20470950264036655,-0.44244748772270975
1772615908103489300,6.2454892578125,-0.06482493887096644,0.10547580595016479,-0.07040620046886616
1772615908113557200,6.25555712890625,0.14763795437514782,0.3601069851011038,0.28281529030166563
1772615908123626200,6.265626220703125,0.2335483513727784,0.5844166757464409,0.45250385804120447
1772615908133694500,6.275694580078125,0.16641308973282576,0.6375736809164285,0.5036052458556368
1772615908143762400,6.285762451171875,0.06440379084944725,0.6287193433314562,0.48833410003092137
1772615908153830400,6.295830322265625,0.03575461947023868,0.6324690512537956,0.3763060959583148
1772615908163898000,6.305898193359375,-0.03621171558797359,0.5790221232265234,0.24871797305177895
1772615908173966300,6.31596630859375,-0.04106996927410364,0.5229150360792875,0.16593971833372487
1772615908184034300,6.326034423828125,0.08422229778021574,0.554712442356348,0.1404263607622124
1772615908194102300,6.336102294921875,0.29611937383711334,0.6283487564533948,0.2153725884140469
1772615908204170200,6.346170166015625,0.5645797563761472,0.6764139914423227,0.4326660618880763
1772615908214238500,6.356238525390625,0.7522133287921547,0.6846849761813879,0.6862611394569277
1772615908224306400,6.366306396484375,0.7642477577179669,0.5838485204696655,0.7748446281213313
1772615908234374400,6.37637451171875,0.5179349095791578,0.5191209044933319,0.6546840248670429
1772615908244442000,6.386442138671875,0.08100947321355342,0.5542763890266418,0.4425647574268281
1772615908254510300,6.39651025390625,-0.24572920303195714,0.5675064574778079,0.2488411975726485
1772615908264578300,6.406578369140625,-0.3632537586942315,0.579970217731595,0.15131343715065157
1772615908274646300,6.416646240234375,-0.2869277671217918,0.6179220549851656,0.2125144773028791
1772615908284714200,6.42671435546875,-0.19985855547785758,0.6081307288110256,0.33103622730895876
1772615908294782500,6.436782470703125,-0.05483575203716755,0.5408762247055768,0.44273236907869573
1772615908304850400,6.446850341796875,0.08781973775029182,0.45966509144008155,0.5199328784633428
1772615908314918400,6.45691845703125,0.1750862255319953,0.3462111462175846,0.5045326994314789
1772615908324986000,6.466986083984375,0.19918986243605613,0.24434476293623447,0.470790186968632
1772615908335054300,6.477054443359375,0.1288616499736905,0.07481003405153751,0.41627234177421774
1772615908345122300,6.487122314453125,0.10472235723435878,-0.002264437800645828,0.4894106066886335
1772615908355190300,6.497190185546875,0.11187748968601226,-0.06363923621773719,0.6501007887300103
1772615908365258200,6.50725830078125,0.12679887222498654,-0.20050912834107876,0.7623455773584544
1772615908375326500,6.517326416015625,0.16786884149909018,-0.23611761733889577,0.7872723672136664
1772615908385395200,6.527395263671875,0.024912907460331916,-0.5263882651478052,0.6850891730681061
1772615908395463200,6.537463134765625,-0.28838498019278047,-0.8267956915676593,0.44366628892794246
1772615908405531400,6.547531494140625,-0.5179723189800978,-0.8623170868039131,0.081552055657655
1772615908415599400,6.557599365234375,-0.6502016918212175,-0.9105436498343944,-0.23244532203432172
1772615908425667300,6.567667236328125,-0.8486036187499761,-0.8438222296923399,-0.52036582652051
1772615908435735300,6.5777353515625,-0.6089511052832007,-0.6011907004147767,-1.1071453954733907
1772615908445803500,6.587803466796875,-0.6127089965119957,-0.34427287163138387,-1.042256232259795
1772615908455871200,6.597871337890625,-0.47035365871489043,-0.1811053396910429,-0.7807858547385782
1772615908465939200,6.607939208984375,-0.19851912356764076,0.08108604558110237,-0.22316629276387392
1772615908476007200,6.618007080078125,0.16732698970735072,0.37209903618991375,0.4776383358303457
1772615908486075400,6.628075439453125,0.5317573909655213,0.5862678565710783,1.0422387696683406
1772615908496143400,6.638143310546875,0.7661667430818081,0.6433090096980333,1.3550357220619915
1772615908506211300,6.64821142578125,0.9272755889266728,0.6484095477074384,1.34111621004194
1772615908516279300,6.658279296875,1.017321478293836,0.6175882929861545,1.0181357903514057
1772615908526347500,6.668347412109375,1.108453117071092,0.5177408483117818,0.6400732426472008
1772615908536415200,6.678415283203125,1.1111322731524704,0.41805531620085234,0.35595044994354247
1772615908546483200,6.688483154296875,1.1081973887443541,0.27997663280963897,0.24952682348294183
1772615908556551200,6.69855126953125,1.1177537371188402,0.04698854566812515,0.23273482476649804
1772615908566619400,6.708619384765625,1.0790537118464707,-0.10182546674907207,0.12736014110324903
1772615908576687400,6.718687255859375,1.0284171650648117,-0.19816110391020775,0.02059720653555123
1772615908586755300,6.72875537109375,0.9513689966976642,-0.2898012767314911,-0.034838682802254335
1772615908596823300,6.7388232421875,0.9399632210642099,-0.36291736634671684,0.035634947746479885
1772615908606891500,6.7488916015625,0.8899550353139638,-0.37971710997819896,0.15305681021925993
1772615908616959200,6.758959228515625,0.7925561528354883,-0.41952948040664195,0.19728011982459573
1772615908627027200,6.769027099609375,0.6671054803490638,-0.42706805921792984,0.19872469260971992
1772615908637096400,6.779096435546875,0.493514169549942,-0.37123452831506726,0.18621910250820217
1772615908647164400,6.789164306640625,0.3349240285277366,-0.3765566001206636,0.20431845749616623
1772615908657232400,6.799232421875,0.14946984597742557,-0.4539508054465055,0.22396615617098287
1772615908667301000,6.809301025390625,0.009379238241910934,-0.5091103826105594,0.18790796891059725
1772615908677369000,6.819369140625,0.00652034167945385,-0.5507359399408102,0.1606745095482096
1772615908687437000,6.82943701171875,0.045541853991150856,-0.5647954449534416,0.15946012878976762
1772615908697505300,6.83950537109375,0.06981470998227596,-0.6060743808031082,0.17058485899213702
1772615908707573200,6.8495732421875,0.09588263269662857,-0.6367471669644117,0.23052872955696657
1772615908717641200,6.85964111328125,0.14429858081936836,-0.7032616663575172,0.31969858500827103
1772615908727709000,6.869708984375,0.16095160945653914,-0.7827659957051276,0.3410561015419662
1772615908737777200,6.879777099609375,0.22679858485162258,-0.8630430629909038,0.4271549337837845
1772615908747845000,6.88984521484375,0.2667635154932737,-0.934987186217308,0.57139013051074
1772615908757913000,6.8999130859375,0.23335633593201635,-0.9224684809058904,0.6494386715594679
1772615908767981000,6.90998095703125,0.13923428316712377,-0.8276081769943237,0.7157841710612177
1772615908778049300,6.92004931640625,0.04872983637750149,-0.8055915754973888,0.7093939585674554
1772615908788117200,6.9301171875,0.0002063362270593643,-0.6755711108773946,0.6070580215455964
1772615908798185200,6.940185302734375,-0.11061316883862019,-0.4977525377720594,0.45652270176112647
1772615908808253000,6.9502529296875,-0.26855741317272186,-0.40873043849468227,0.17254713550843298
1772615908818321200,6.960321044921875,-0.36071781047582624,-0.30828327436149117,-0.20296214751638472
1772615908828389000,6.97038916015625,-0.3929869259178638,-0.12188099730610846,-0.45160771291907875
1772615908838457000,6.98045703125,-0.3365507529467344,0.0458142411917448,-0.4056437975909561
1772615908848525000,6.990525146484375,-0.177763043525815,0.18609072688817976,-0.05976668736701831
1772615908858593300,7.00059326171875,0.0738864894658327,0.32771219745278357,0.38997817255593836
1772615908868661200,7.0106611328125,0.2643535317420959,0.4124252013593912,0.7712603398937732
1772615908878729200,7.020729248046875,0.2930541410475969,0.41855683598220345,1.0546775416113436
1772615908888798200,7.030798095703125,0.27740590553879735,0.31650515926182266,1.1677991130743175
1772615908898866200,7.0408662109375,0.1991255650281906,0.32108605731129647,1.1449072631128132
1772615908908934100,7.05093408203125,0.13770575842559338,0.35968554481863974,1.2345064316257834
1772615908919002000,7.061002197265625,-0.03065700407028198,0.31988895648121835,1.2779799549102782
1772615908929070300,7.0710703125,-0.3469207557916641,0.23977146367132662,1.1401992315523326
1772615908939138000,7.081137939453125,-0.6562824730396271,0.2182137118577957,0.8307738014183939
1772615908949206000,7.0912060546875,-1.1318956597179173,0.5020704009711742,0.408211857980676
1772615908959274000,7.10127392578125,-1.6537223160386085,0.710895522236824,0.04323978759385645
1772615908969342200,7.11134228515625,-1.862424687707424,0.6715490157544612,-0.05541106770709157
1772615908979410200,7.12141015625,-1.765852903702855,0.7182944003164767,0.23867690990027038
1772615908989478100,7.13147802734375,-1.2873206147074698,0.9264601808905601,0.6452724187254906
1772615908999546000,7.141546142578125,-0.7579214773058891,1.1603028390347956,1.1290766567744315
1772615909009614300,7.1516142578125,-0.23865035068690776,1.3185323300510645,1.7221271592229603
1772615909019682000,7.16168212890625,0.17841127830147743,1.3212456806629895,2.0052913360275326
1772615909029750000,7.17175,0.44595045434236524,1.2703531132936476,1.6728429038330912
1772615909039818000,7.18181787109375,0.4739397005081176,1.4391478374660014,0.9098985568638891
1772615909049886200,7.19188623046875,0.3505149808913469,1.5962480321913957,0.3394577264346182
1772615909059954200,7.2019541015625,0.24355156673192976,1.5288433059602975,-0.02877140951938927
1772615909070022100,7.212022216796875,-0.15288988355398178,1.2339812387078999,-0.4388192142229527
1772615909080090000,7.222090087890625,-0.4946645086288452,0.9939946709811687,-0.8136796779502182
1772615909090158300,7.232158447265625,-0.675025751954317,0.7996423117041588,-1.1535882899574934
1772615909100226000,7.24222607421875,-0.7157219194799661,0.656937137556076,-1.31022276686728
1772615909110294000,7.2522939453125,-0.5816115551978349,0.4900549690067768,-1.2818198253341018
1772615909120362000,7.262362060546875,-0.38021629167199134,0.3346767757683992,-1.096227111095935
1772615909130431200,7.27243115234375,-0.21471768643558023,0.26257483163177964,-0.7802984365478157
1772615909140499200,7.282499267578125,-0.11334463962912558,0.2835422163367271,-0.4453120833735913
1772615909150567200,7.292567138671875,-0.07851298022270202,0.3067395520508289,-0.15372947618328034
1772615909160635100,7.30263525390625,-0.11318448063135146,0.35429333038628097,0.12994937214516103
1772615909170703000,7.312703125,-0.15460720886588095,0.4158312104105949,0.34264731625616546
1772615909180771000,7.32277099609375,-0.3790408181518316,0.3795399998456239,0.3304552856158465
1772615909190839000,7.332839111328125,-0.6298083076119423,0.31435937940478326,0.1070015542127192
1772615909200907300,7.3429072265625,-0.7899164519816636,0.28359833043813704,-0.14155812300480902
1772615909210975200,7.352975341796875,-0.7988233965367079,0.22986732477247715,-0.3917831030860543
1772615909221043200,7.363043212890625,-0.7248042206019163,0.21554770751893518,-0.4965791831437498
1772615909231111200,7.373111083984375,-0.5543751732259988,0.20099194342195986,-0.4577919910445809
1772615909241179100,7.38317919921875,-0.30874738474190233,0.18361644572913646,-0.23918635725975035
1772615909251247000,7.3932470703125,-0.15634031626880168,0.13554127386808396,0.07302073948197066
1772615909261315000,7.403315185546875,-0.2770926018059254,0.06473404571712017,0.16666691836342215
1772615909271383000,7.413383056640625,-0.48325347229838367,0.037224692022800446,-0.05316453088931739
1772615909281451300,7.423451171875,-0.5048650001257657,0.04102992952466011,-0.2842988068576902
1772615909291519200,7.433519287109375,-0.35777240467369553,-0.053799979248642917,-0.33857619435973463
1772615909301587200,7.443587158203125,-0.11630465847849845,-0.20298399402201175,-0.22727935410588979
1772615909311655200,7.4536552734375,0.12445055553317069,-0.2847936777025461,-0.05243862776756286
1772615909321723100,7.46372314453125,0.2923451159954071,-0.27672669110298154,0.12949709833301604
1772615909331791000,7.473791015625,0.4059755868285894,-0.1959837598711252,0.31456958808936175
1772615909341859000,7.483859130859375,0.4431593623191118,-0.11616671131253242,0.47279345308244225
1772615909351927000,7.493927001953125,0.37559798422157764,-0.055202831783890724,0.7006586442522704
1772615909361996300,7.503996337890625,0.1917003834635019,-0.07508417481780051,0.7926019647385925
1772615909372064000,7.51406396484375,-0.06368482892513275,-0.13835457772314547,0.526217694353871
1772615909382132000,7.524132080078125,-0.34998131240606306,-0.17394377749860285,0.08179572822041808
1772615909392200200,7.5342001953125,-0.5408545973956584,-0.15655600484609603,-0.3224528886850923
1772615909402268200,7.54426806640625,-0.5721984146863222,-0.15141104317307472,-0.5752323755547404
1772615909412336000,7.554336181640625,-0.44579029534459114,-0.2382914542466402,-0.6550324729785323
1772615909422404000,7.564404052734375,-0.2259083580136299,-0.35688217783570286,-0.5910044566389173
1772615909432472300,7.574472412109375,0.031924247527122494,-0.3664794427424669,-0.3882206613641232
1772615909442540300,7.584540283203125,0.23721827205717563,-0.3557172257095575,-0.17672230230122804
1772615909452608000,7.59460791015625,0.4460042303562164,-0.2816489499360323,0.005852233159542084
1772615909462676000,7.604676025390625,0.6730138276100158,-0.2030471223860979,0.2100120660278946
1772615909472744200,7.614744140625,0.7821487405896186,-0.2549409757524729,0.3402501189213246
1772615909482812200,7.624812255859375,0.6387292806923389,-0.512803976431489,0.10284056207574903
1772615909492880100,7.634880126953125,0.6169172618567943,-0.7304670686691999,-0.1942629274278879
1772615909502948000,7.644947998046875,0.4683429034143686,-0.7844131783902645,-0.3615681436948478
1772615909513016300,7.655016357421875,0.3238964385569095,-0.6184755972146988,-0.48510881784148513
1772615909523084300,7.665084228515625,0.04546352805793285,-0.4931558576315641,-0.5917861085359006
1772615909533152000,7.675152099609375,-0.19328385326266287,-0.3832470376700163,-0.3911205475240946
1772615909543220000,7.685219970703125,-0.2555582308679819,-0.3327659737110138,-0.1375168117247522
1772615909553288200,7.6952880859375,-0.1369593239724636,-0.2978185789704323,0.07078260516636073
1772615909563356200,7.705356201171875,0.11830313881933688,-0.2579442492216825,0.30589594083353877
1772615909573424000,7.715424072265625,0.3034147915422916,-0.2327659688234329,0.5741068055909126
1772615909583492000,7.7254921875,0.5668465322643518,-0.19331658648848532,0.8126983387626707
1772615909593561000,7.73556103515625,0.8739631009340286,-0.16259528501033782,1.0397299286525696
1772615909603629000,7.745629150390625,0.957876478895545,-0.20340484978258608,1.15063426245749
1772615909613697000,7.755697021484375,0.9474988772660493,-0.28452070598006246,1.0539140829581766
1772615909623765200,7.76576513671875,0.8358335690259933,-0.3397492567270994,0.7961619222424924
1772615909633833200,7.775833251953125,0.6125169810712338,-0.3324854032039642,0.5547461984954775
1772615909643901200,7.785901123046875,0.4153384584575891,-0.36703590758144855,0.3946798474408686
1772615909653969200,7.79596923828125,0.24898878934979438,-0.46411038041114805,0.30619923462904985
1772615909664036600,7.80603662109375,0.06525134758949279,-0.549369327762723,0.21004231503568588
1772615909674104600,7.8161044921875,-0.03347907575368881,-0.6092296299636364,0.06336071153730154
1772615909684172300,7.82617236328125,-0.03207505417466163,-0.6639286038786173,-0.04260127049461007
1772615909694240300,7.836240234375,-0.025621932512521744,-0.7002437798410653,-0.0784291743967682
1772615909704308500,7.84630859375,0.04574234499931335,-0.6420435198068618,0.005180544443055987
1772615909714376400,7.85637646484375,0.0880167216271162,-0.5704197145760059,0.20044848419502376
1772615909724444400,7.8664443359375,0.08973287789523601,-0.5433002369821072,0.35699477136470376
1772615909734512400,7.876512451171875,-0.055176528298854825,-0.5100953019946813,0.3202011642355472
1772615909744580600,7.88658056640625,-0.385196418172121,-0.3512222523778677,-0.08069792304635047
1772615909754648300,7.8966484375,-0.6048930620640516,-0.3661825056225061,-0.38631848100461064
1772615909764716300,7.90671630859375,-0.6398521472424268,-0.7056412549704313,-0.7457498318664729
1772615909774784300,7.9167841796875,-0.8199006713569164,-0.6515069292008876,-1.2097010031279176
1772615909784852500,7.9268525390625,-0.9188631498903036,-0.428197940030694,-1.0940225137237458
1772615909794920400,7.93692041015625,-0.9857762932121753,-0.3086795802026987,-0.6145907186053693
1772615909804988400,7.946988525390625,-0.8873042285442352,-0.020463526836037634,-0.14639891409948466
1772615909815057400,7.957057373046875,-0.7706354129284619,0.2172632792651653,0.1676185199998319
1772615909825125400,7.96712548828125,-0.7143155598133802,0.35936230421364307,0.274437411122024
1772615909835193300,7.977193359375,-0.6562982551306485,0.40740065119564534,0.1015299909338355
1772615909845261300,7.98726123046875,-0.5527759213358163,0.3443365845173597,-0.25579021299295124
1772615909855329500,7.99732958984375,-0.4296873018056154,0.32098668859004975,-0.5391141834691167
1772615909865397500,8.0073974609375,-0.27722704184055325,0.34365152486264705,-0.6087221918981522
1772615909875465500,8.017465576171874,-0.0451128149241209,0.4186784165352583,-0.4735564733441919
1772615909885533400,8.027533447265625,0.2311497657984495,0.48235623119771476,-0.26523506381697953
1772615909895601400,8.037601318359375,0.49672611733376976,0.5207920525759459,-0.10443506472557783
1772615909905669400,8.04766943359375,0.6407540645182133,0.559457006534934,0.008872969220206141
1772615909915737300,8.0577373046875,0.7214058103352785,0.6026198564350604,0.03434088021479547
1772615909925805300,8.067805419921875,0.7066051315665245,0.5868646534204482,-0.02078106835260987
1772615909935873500,8.07787353515625,0.5485901600837707,0.547532175463438,-0.17948036883771418
1772615909945941500,8.08794140625,0.4590203637957573,0.5557710114985704,-0.3622635055478662
1772615909956009500,8.098009521484375,0.48755496888458727,0.582903933095932,-0.39829073141440746
1772615909966077400,8.108077392578124,0.5356476764023304,0.6023065527021885,-0.3016431056946516
1772615909976145400,8.1181455078125,0.578209637799859,0.6494096646606922,-0.12354885745309292
1772615909986213400,8.12821337890625,0.5889461358696222,0.6395423506408929,-0.014973989509046076
1772615909996281300,8.13828125,0.5412368747115135,0.6052069503188133,-0.05358896684646606
1772615910006349300,8.148349365234376,0.4930220021188259,0.5906108542114495,-0.1894684596929699
1772615910016417500,8.15841748046875,0.4455950650334358,0.5345896917819977,-0.3010108722057193
1772615910026485500,8.168485595703125,0.4526151729285717,0.44318800389170643,-0.32019502675570544
1772615910036553500,8.178553466796876,0.49373804143369193,0.359008083948493,-0.2630388689469546
1772615910046622500,8.18862255859375,0.5556821641713381,0.2879045031994581,-0.2113400266960263
1772615910056690400,8.1986904296875,0.7710819876521825,0.28763270052075385,-0.38199922956600785
1772615910066758400,8.20875830078125,0.654922875124216,0.21051789665818213,-0.4665067009631544
1772615910076826400,8.218826416015625,0.5345137039363383,0.059037879902124404,-0.4855594111531973
1772615910086894600,8.22889453125,0.41593116365373134,0.01412029528915882,-0.46742169691622254
1772615910096962600,8.238962646484374,0.2092296104133129,-0.023995208093523977,-0.41979309977889057
1772615910107030300,8.2490302734375,-0.0510819524616003,-0.027858313262462613,-0.4043196363151073
1772615910117098200,8.25909814453125,-0.2546937229931354,-0.12850596840381623,-0.30467531299740075
1772615910127166500,8.26916650390625,-0.39394086564183234,-0.045936990788578984,-0.23241050644926725
