time,seconds_elapsed,z,y,x
1772615901891516000,0.033515869140625,-0.7316924333572388,-0.7402893900871277,1.1035581827163696
1772615901901584000,0.043583984375,-0.7432683706283569,-0.7277137041091919,1.0908565521240234
1772615901911652000,0.053652099609375,-0.7512639760971069,-0.7397838830947876,1.0452381372451782
1772615901921720000,0.063719970703125,-0.7814168334007263,-0.7902600765228271,1.0139031410217285
1772615901931788000,0.0737880859375,-0.8072039484977722,-0.8484908938407898,1.016564130783081
1772615901941856000,0.08385595703125,-0.6414035558700562,-0.8872406482696533,1.1763533353805542
1772615901951924000,0.093924072265625,-0.4621979296207428,-0.8946511149406433,1.409424066543579
1772615901961992000,0.103991943359375,-0.39251765608787537,-0.8873223662376404,1.5506776571273804
1772615901972060000,0.114059814453125,-0.39995360374450684,-0.9485703706741333,1.500978708267212
1772615901982127900,0.1241279296875,-0.42436227202415466,-0.9886775612831116,1.3359946012496948
1772615901992196000,0.134196044921875,-0.468601256608963,-0.9650556445121765,1.1414581537246704
1772615902002264000,0.14426416015625,-0.4865104854106903,-0.9036394357681274,0.9341251850128174
1772615902012332000,0.15433203125,-0.49841123819351196,-0.7844526171684265,0.7388652563095093
1772615902022400300,0.164400146484375,-0.4925940930843353,-0.6946947574615479,0.5948542356491089
1772615902032468000,0.174468017578125,-0.4241654574871063,-0.6607989072799683,0.5099607706069946
1772615902042536000,0.184535888671875,-0.33789634704589844,-0.7495381236076355,0.47871315479278564
1772615902052604000,0.19460400390625,-0.32717281579971313,-0.9161872863769531,0.44756099581718445
1772615902062672100,0.204672119140625,-0.3757219612598419,-1.0317232608795166,0.44061094522476196
1772615902072740000,0.214739990234375,-0.42668280005455017,-1.0822299718856812,0.44198790192604065
1772615902082808000,0.22480810546875,-0.4817061126232147,-1.1388447284698486,0.4299658536911011
1772615902092876000,0.2348759765625,-0.5246357321739197,-1.188943862915039,0.4124903082847595
1772615902102944300,0.2449443359375,-0.5395427942276001,-1.2008862495422363,0.374347984790802
1772615902113012000,0.255011962890625,-0.5102670788764954,-1.1246395111083984,0.3364793658256531
1772615902123080000,0.265079833984375,-0.4410562813282013,-1.0095558166503906,0.30857449769973755
1772615902133148000,0.27514794921875,-0.31097790598869324,-0.9108731150627136,0.28735336661338806
1772615902143216000,0.285216064453125,-0.17704036831855774,-0.8998987674713135,0.309062123298645
1772615902153284000,0.2952841796875,-0.11505071073770523,-0.9835646748542786,0.3974619209766388
1772615902163352000,0.30535205078125,-0.16212262213230133,-0.9072283506393433,0.5693948268890381
1772615902173420000,0.315419921875,-0.28468015789985657,-0.6581849455833435,0.7809681296348572
1772615902183488300,0.32548828125,-0.33991196751594543,-0.5855477452278137,0.9005733728408813
1772615902193556000,0.335555908203125,-0.3542715013027191,-0.41102853417396545,1.021077036857605
1772615902203624000,0.3456240234375,-0.40032076835632324,-0.3637097477912903,1.0914318561553955
1772615902213692000,0.35569189453125,-0.42847034335136414,-0.5070495009422302,1.1367406845092773
1772615902223761200,0.36576123046875,-0.426799476146698,-0.5545474886894226,1.1780608892440796
1772615902233829000,0.3758291015625,-0.34739813208580017,-0.46535205841064453,1.2077080011367798
1772615902243897000,0.38589697265625,-0.23079454898834229,-0.3579300045967102,1.1437149047851562
1772615902253965000,0.395965087890625,-0.12248658388853073,-0.13026973605155945,1.0205378532409668
1772615902264033000,0.406032958984375,-0.06273803114891052,0.06186774745583534,0.8605740070343018
1772615902274101000,0.41610107421875,-0.06415562331676483,0.22696320712566376,0.7357881665229797
1772615902284169000,0.4261689453125,-0.054499272257089615,0.27230167388916016,0.6619253754615784
1772615902294237200,0.4362373046875,-0.07225523144006729,0.17961186170578003,0.6401380300521851
1772615902304305200,0.44630517578125,-0.08831355720758438,-0.013534415513277054,0.6724376678466797
1772615902314373000,0.456373046875,-0.09702116250991821,-0.19129835069179535,0.7213354110717773
1772615902324440800,0.46644091796875,-0.08019638061523438,-0.3015982210636139,0.7471994757652283
1772615902334509000,0.476509033203125,-0.027831092476844788,-0.3534364402294159,0.7049573659896851
1772615902344577000,0.486576904296875,0.023953808471560478,-0.2341044843196869,0.5838375687599182
1772615902354645000,0.49664501953125,0.07454974204301834,-0.10720252245664597,0.4019356966018677
1772615902364713000,0.506712890625,0.11932893097400665,0.011948100291192532,0.2003788948059082
1772615902374781200,0.51678125,0.1226404458284378,0.050093941390514374,0.0315973274409771
1772615902384849200,0.52684912109375,0.05966894328594208,-0.07710076868534088,-0.05557805299758911
1772615902394917000,0.536917236328125,-0.007708759047091007,-0.23207281529903412,-0.08108159899711609
1772615902404984800,0.54698486328125,-0.05915517359972,-0.3264451026916504,-0.08483345806598663
1772615902415053000,0.557052978515625,-0.11104986816644669,-0.4007359445095062,-0.10836924612522125
1772615902425121000,0.56712109375,-0.11612558364868164,-0.38563448190689087,-0.17105552554130554
1772615902435189000,0.57718896484375,-0.08114935457706451,-0.31669995188713074,-0.2458498775959015
1772615902445257000,0.587257080078125,-0.03862506523728371,-0.24220575392246246,-0.30663973093032837
1772615902455325200,0.5973251953125,-0.04315801337361336,-0.14735040068626404,-0.3229138255119324
1772615902465393200,0.60739306640625,-0.09046667069196701,-0.03483051434159279,-0.20371899008750916
1772615902475461000,0.617461181640625,-0.10436869412660599,-0.133154034614563,0.056912172585725784
1772615902485528800,0.62752880859375,-0.12707161903381348,-0.4851109981536865,0.374036580324173
1772615902495597000,0.63759716796875,-0.13306176662445068,-0.8600859642028809,0.643848717212677
1772615902505665000,0.6476650390625,-0.06552588194608688,-1.119094967842102,0.794025182723999
1772615902515733000,0.65773291015625,0.02791600674390793,-1.2096104621887207,0.8196244239807129
1772615902525801000,0.667801025390625,0.11572202295064926,-1.1382009983062744,0.7355076670646667
1772615902535869200,0.677869140625,0.15302787721157074,-0.9850014448165894,0.6010432839393616
1772615902545937200,0.687937255859375,0.13460944592952728,-0.7523056268692017,0.4570360481739044
1772615902556005000,0.698005126953125,0.0840156078338623,-0.5156224370002747,0.350231409072876
1772615902566072800,0.70807275390625,0.06537214666604996,-0.3421936631202698,0.2955614924430847
1772615902576141000,0.71814111328125,0.05397966504096985,-0.3096737861633301,0.26962390542030334
1772615902586210000,0.7282099609375,0.04947333037853241,-0.44576239585876465,0.289268434047699
1772615902596278000,0.738278076171875,0.06762098520994186,-0.6004400253295898,0.33634233474731445
1772615902606346200,0.74834619140625,0.09145841002464294,-0.7810750603675842,0.3713325262069702
1772615902616414000,0.7584140625,0.10049396008253098,-0.9096760153770447,0.3800320625305176
1772615902626482000,0.76848193359375,0.04943264275789261,-0.9409064054489136,0.33176493644714355
1772615902636550000,0.7785498046875,-0.0024144467897713184,-0.8526794910430908,0.22721588611602783
1772615902646618000,0.7886181640625,-0.048765700310468674,-0.7168212532997131,0.08269865065813065
1772615902656685300,0.798685302734375,-0.0839231014251709,-0.5924376845359802,-0.056508611887693405
1772615902666753300,0.808753173828125,-0.09995479881763458,-0.48465871810913086,-0.1542932242155075
1772615902676821500,0.818821533203125,-0.10863140225410461,-0.4470401704311371,-0.20062153041362762
1772615902686889500,0.828889404296875,-0.12916943430900574,-0.4009605646133423,-0.18812410533428192
1772615902696957400,0.83895751953125,-0.19622135162353516,-0.3358305096626282,-0.11679922789335251
1772615902707025400,0.849025390625,-0.27203357219696045,-0.25472021102905273,0.027875671163201332
1772615902717093400,0.85909326171875,-0.33021968603134155,-0.2032386213541031,0.2232026606798172
1772615902727161300,0.869161376953125,-0.33362799882888794,-0.24384118616580963,0.41712313890457153
1772615902737229300,0.879229248046875,-0.27559545636177063,-0.29513707756996155,0.5694926977157593
1772615902747297300,0.88929736328125,-0.1882999837398529,-0.30317422747612,0.639065146446228
1772615902757365500,0.899365478515625,-0.0909237489104271,-0.21563977003097534,0.6219806671142578
1772615902767433500,0.90943359375,-0.022061066702008247,-0.15367867052555084,0.5466928482055664
1772615902777501400,0.91950146484375,0.00007697159890085459,-0.14948226511478424,0.4425334632396698
1772615902787569400,0.9295693359375,0.00034888042137026787,-0.22296953201293945,0.3580537438392639
1772615902797637400,0.939637451171875,0.017094947397708893,-0.2827472686767578,0.27952009439468384
1772615902807705300,0.949705322265625,0.05353737622499466,-0.3119698464870453,0.1701187938451767
1772615902817773300,0.959773193359375,0.09560541063547134,-0.30076566338539124,0.02312091924250126
1772615902827841300,0.96984130859375,0.08847852796316147,-0.2153085619211197,-0.10684932768344879
1772615902837909500,0.979909423828125,0.062467120587825775,-0.12737977504730225,-0.1819722056388855
1772615902847977500,0.9899775390625,0.023767393082380295,-0.07734030485153198,-0.19699589908123016
1772615902858045400,1.00004541015625,-0.0007842425839044154,-0.09252377599477768,-0.16598322987556458
1772615902868113200,1.010113037109375,0.0034304761793464422,-0.13374711573123932,-0.11122756451368332
1772615902878181400,1.020181396484375,0.050295453518629074,-0.1983862966299057,-0.07645893096923828
1772615902888249300,1.030249267578125,0.1267782300710678,-0.2527688443660736,-0.07177843153476715
1772615902898318300,1.040318359375,0.2058725655078888,-0.2544955909252167,-0.09611392021179199
1772615902908385500,1.050385498046875,0.2651209831237793,-0.23908734321594238,-0.11966079473495483
1772615902918454500,1.06045458984375,0.28676289319992065,-0.258467435836792,-0.14479917287826538
1772615902928522200,1.070522216796875,0.274630606174469,-0.25665462017059326,-0.16300693154335022
1772615902938590200,1.080590087890625,0.2559792697429657,-0.2129850685596466,-0.17726601660251617
1772615902948658400,1.090658447265625,0.2199126034975052,-0.1621360033750534,-0.19026997685432434
1772615902958726400,1.100726318359375,0.17445571720600128,-0.12050805240869522,-0.18124867975711823
1772615902968794400,1.11079443359375,0.13798053562641144,-0.09524025022983551,-0.1425471007823944
1772615902978862300,1.1208623046875,0.1168069839477539,-0.0811188817024231,-0.08517706394195557
1772615902988930600,1.1309306640625,0.10351914167404175,-0.05603749305009842,-0.02297094836831093
1772615902998998500,1.14099853515625,0.09237179905176163,-0.026951953768730164,0.04135345295071602
1772615903009066200,1.151066162109375,0.1013176217675209,-0.01531127654016018,0.10916632413864136
1772615903019134200,1.16113427734375,0.12201428413391113,-0.02252873405814171,0.16703195869922638
1772615903029202400,1.171202392578125,0.13031457364559174,0.012920334935188293,0.18055309355258942
1772615903039270400,1.1812705078125,0.09146345406770706,0.11598414927721024,0.1637144237756729
1772615903049338400,1.19133837890625,0.014301557093858719,0.23690204322338104,0.15364766120910645
1772615903059406300,1.20140625,-0.05522239953279495,0.3161773085594177,0.1516963690519333
1772615903069474600,1.211474609375,-0.08671747148036957,0.3430483341217041,0.13790519535541534
1772615903079542300,1.221542236328125,-0.08694355189800262,0.3291707932949066,0.1076955646276474
1772615903089610200,1.2316103515625,-0.06431306898593903,0.3175183832645416,0.058913908898830414
1772615903099678500,1.241678466796875,-0.022614287212491035,0.3240891695022583,0.010916925966739655
1772615903109746400,1.251746337890625,0.03361356258392334,0.3328211307525635,-0.014700552448630333
1772615903119814400,1.261814453125,0.10214788466691971,0.3254810571670532,0.006849216762930155
1772615903129882400,1.27188232421875,0.15945965051651,0.31963491439819336,0.07208920270204544
1772615903139950600,1.28195068359375,0.2019405961036682,0.34176772832870483,0.1688084453344345
1772615903150018600,1.2920185546875,0.22990939021110535,0.36195582151412964,0.27765852212905884
1772615903160086300,1.302086181640625,0.23940743505954742,0.3779035210609436,0.392315536737442
1772615903170154200,1.312154296875,0.22172164916992188,0.40194761753082275,0.5061992406845093
1772615903180222500,1.322222412109375,0.18947187066078186,0.40467602014541626,0.606139600276947
1772615903190290400,1.33229052734375,0.15131063759326935,0.38667118549346924,0.6800316572189331
1772615903200358400,1.3423583984375,0.11546023190021515,0.37296417355537415,0.7082539796829224
1772615903210426400,1.35242626953125,0.08568422496318817,0.3795730769634247,0.6856767535209656
1772615903220494600,1.36249462890625,0.05265171453356743,0.4094946086406708,0.6205488443374634
1772615903230562600,1.3725625,0.007368122227489948,0.46365025639533997,0.5403911471366882
1772615903240630300,1.38263037109375,-0.04098916053771973,0.5043407678604126,0.4840796887874603
1772615903250699300,1.39269921875,-0.08285831660032272,0.5223655700683594,0.45304375886917114
1772615903260767500,1.402767578125,-0.11304827034473419,0.5387235879898071,0.4255979359149933
1772615903270835500,1.41283544921875,-0.1319628357887268,0.5419095158576965,0.4133490025997162
1772615903280903400,1.4229033203125,-0.14978919923305511,0.5469524264335632,0.41181227564811707
1772615903290971400,1.432971435546875,-0.1697956621646881,0.5619393587112427,0.4171876013278961
1772615903301039400,1.443039306640625,-0.1896113008260727,0.5710569620132446,0.42718005180358887
1772615903311107300,1.453107421875,-0.20480570197105408,0.5624091625213623,0.4157830476760864
1772615903321175300,1.46317529296875,-0.20739801228046417,0.5691735744476318,0.3628646433353424
1772615903331243500,1.473243408203125,-0.1842988133430481,0.5908495783805847,0.26989075541496277
1772615903341311500,1.4833115234375,-0.15351080894470215,0.600953221321106,0.1567852944135666
1772615903351379500,1.49337939453125,-0.12825952470302582,0.5799073576927185,0.024723125621676445
1772615903361447400,1.503447509765625,-0.10647797584533691,0.563701331615448,-0.09876547008752823
1772615903371515400,1.513515380859375,-0.07770837843418121,0.5688217878341675,-0.2118140012025833
1772615903381583400,1.523583251953125,-0.04469084367156029,0.5758792161941528,-0.3074394166469574
1772615903391651300,1.5336513671875,-0.022969570010900497,0.5534476637840271,-0.36978402733802795
1772615903401719300,1.54371923828125,-0.015258238650858402,0.5427371859550476,-0.37872061133384705
1772615903411787500,1.55378759765625,-0.011923694983124733,0.5485058426856995,-0.3660798966884613
1772615903421855500,1.56385546875,-0.0120324045419693,0.5582292079925537,-0.3488621711730957
1772615903431923500,1.57392333984375,-0.012208173051476479,0.587283194065094,-0.3284330666065216
1772615903441991400,1.583991455078125,-0.013621127232909203,0.626251220703125,-0.3084547817707062
1772615903452059400,1.594059326171875,-0.015670696273446083,0.6538647413253784,-0.2935892939567566
1772615903462127400,1.60412744140625,-0.016874685883522034,0.6478585600852966,-0.262168824672699
1772615903472195300,1.6141953125,-0.013241334818303585,0.6166529655456543,-0.21270060539245605
1772615903482263300,1.62426318359375,0.0010674333898350596,0.6141176223754883,-0.16588489711284637
1772615903492331500,1.63433154296875,0.0142333023250103,0.6512244939804077,-0.11853735893964767
1772615903502399500,1.6443994140625,0.011267665773630142,0.6847973465919495,-0.06816750764846802
1772615903512467500,1.654467529296875,0.0023375535383820534,0.7099977731704712,-0.025234688073396683
1772615903522535400,1.664535400390625,0.011412963271141052,0.724773645401001,0.019109023734927177
1772615903532603400,1.674603271484375,0.02781989984214306,0.7381253838539124,0.04066891223192215
1772615903542671400,1.68467138671875,0.05411281809210777,0.7525027394294739,0.029714154079556465
1772615903552739300,1.6947392578125,0.07723571360111237,0.7733451724052429,0.0016739985439926386
1772615903562807300,1.704807373046875,0.10940385609865189,0.7820963859558105,-0.025037182494997978
1772615903572875500,1.71487548828125,0.13873139023780823,0.7478156089782715,-0.02980717085301876
1772615903582943500,1.724943603515625,0.16679567098617554,0.716244637966156,-0.021066730841994286
1772615903593011500,1.735011474609375,0.17368021607398987,0.7020856738090515,-0.02260284125804901
1772615903603079400,1.745079345703125,0.1463877111673355,0.7150596380233765,-0.041095245629549026
1772615903613147400,1.7551474609375,0.11213386803865433,0.7702293992042542,-0.07292348146438599
1772615903623216400,1.76521630859375,0.0916019156575203,0.8497704267501831,-0.11582184582948685
1772615903633284400,1.775284423828125,0.08202465623617172,0.9161388278007507,-0.17641036212444305
1772615903643352600,1.7853525390625,0.07767433673143387,0.9368911981582642,-0.23729224503040314
1772615903653420500,1.795420654296875,0.08587873727083206,0.9154759049415588,-0.27189069986343384
1772615903663488800,1.80548876953125,0.097554512321949,0.8610052466392517,-0.28541094064712524
1772615903673556700,1.815556640625,0.13012950122356415,0.8121514320373535,-0.28075334429740906
1772615903683624700,1.825624755859375,0.16789725422859192,0.7590158581733704,-0.2618824243545532
1772615903693692700,1.835692626953125,0.19334560632705688,0.6967862844467163,-0.233955979347229
1772615903703761000,1.845760986328125,0.2052925080060959,0.6468325257301331,-0.20027995109558105
1772615903713828900,1.855828857421875,0.21098394691944122,0.6029471158981323,-0.17836984992027283
1772615903723896800,1.865896728515625,0.2238759994506836,0.5922128558158875,-0.16137723624706268
1772615903733964800,1.87596484375,0.23999717831611633,0.6193333864212036,-0.15574118494987488
1772615903744032800,1.88603271484375,0.24053965508937836,0.6599252223968506,-0.13435408473014832
1772615903754100700,1.896100830078125,0.22185970842838287,0.6872380971908569,-0.11350792646408081
1772615903764168700,1.906168701171875,0.1956488937139511,0.7356199026107788,-0.08467846363782883
1772615903774236700,1.916236572265625,0.16450189054012299,0.7964769005775452,-0.03480996936559677
1772615903784305000,1.926304931640625,0.12941250205039978,0.8112149834632874,0.02006041258573532
1772615903794372900,1.936372802734375,0.09324385225772858,0.7970077991485596,0.043856024742126465
1772615903804440800,1.94644091796875,0.070445217192173,0.8131734132766724,0.03200650215148926
1772615903814508800,1.9565087890625,0.07201781868934631,0.8491234183311462,-0.009480753913521767
1772615903824576800,1.96657666015625,0.0968133881688118,0.8740693926811218,-0.07210434973239899
1772615903834644700,1.976644775390625,0.12118451297283173,0.8973150849342346,-0.12825629115104675
1772615903844712700,1.986712646484375,0.1392119973897934,0.9334691166877747,-0.14830756187438965
1772615903854780700,1.99678076171875,0.14151696860790253,0.9668238759040833,-0.1272352933883667
1772615903864849000,2.006848876953125,0.14039677381515503,0.9816694855690002,-0.07486514002084732
1772615903874916900,2.016916748046875,0.1429198533296585,1.0016472339630127,-0.012981532141566277
1772615903884984800,2.02698486328125,0.1601303219795227,1.0247046947479248,0.0493890605866909
1772615903895052500,2.037052490234375,0.1884479820728302,1.0043920278549194,0.11033497005701065
1772615903905120800,2.047120849609375,0.20444455742835999,0.9326944947242737,0.1772363930940628
1772615903915188700,2.057188720703125,0.23101119697093964,0.8630411028862,0.2216949462890625
1772615903925256700,2.067256591796875,0.26496946811676025,0.8189249634742737,0.2335512936115265
1772615903935324700,2.07732470703125,0.2827519178390503,0.8171244263648987,0.2312319427728653
1772615903945393000,2.087392822265625,0.2709006071090698,0.8231280446052551,0.2319898158311844
1772615903955460900,2.0974609375,0.2321883738040924,0.8389301896095276,0.2399260401725769
1772615903965528800,2.10752880859375,0.16694283485412598,0.8563235998153687,0.24207642674446106
1772615903975596500,2.117596435546875,0.09539541602134705,0.873114287853241,0.23257294297218323
1772615903985664800,2.127664794921875,0.04270728677511215,0.8823035359382629,0.20963811874389648
1772615903995733800,2.137733642578125,0.01802511140704155,0.8821809887886047,0.185014009475708
1772615904005801700,2.1478017578125,0.03563997521996498,0.8655282258987427,0.16995878517627716
1772615904015870000,2.157869873046875,0.0818447545170784,0.84406578540802,0.16199593245983124
1772615904025938000,2.16793798828125,0.1435328722000122,0.8518742918968201,0.1540573090314865
1772615904036005600,2.178005615234375,0.18871021270751953,0.8919591307640076,0.13946957886219025
1772615904046073600,2.188073486328125,0.2028965801000595,0.9283274412155151,0.12417776137590408
1772615904056141800,2.198141845703125,0.1930447369813919,0.9677028656005859,0.1173962876200676
1772615904066209800,2.208209716796875,0.18664272129535675,1.003373622894287,0.11157233268022537
1772615904076277800,2.21827783203125,0.18127165734767914,1.0053306818008423,0.10394316911697388
1772615904086345700,2.228345703125,0.18182484805583954,1.0102568864822388,0.09541668742895126
1772615904096414000,2.2384140625,0.19436167180538177,1.0412914752960205,0.07143492251634598
1772615904106481700,2.248481689453125,0.2214755415916443,1.093820333480835,0.04023769125342369
1772615904116549600,2.258549560546875,0.24999240040779114,1.1157608032226562,-0.009693114086985588
1772615904126617600,2.26861767578125,0.2687245309352875,1.1419786214828491,-0.06835483014583588
1772615904136685800,2.278685791015625,0.2773025929927826,1.1725159883499146,-0.10010582953691483
1772615904146753800,2.28875390625,0.2963617444038391,1.1735150814056396,-0.10582518577575684
1772615904156821800,2.29882177734375,0.3282749354839325,1.170738935470581,-0.10475832223892212
1772615904166889700,2.3088896484375,0.35909003019332886,1.1681667566299438,-0.10124870389699936
1772615904176958000,2.3189580078125,0.3849663734436035,1.160395860671997,-0.07722033560276031
1772615904187025700,2.329025634765625,0.39854586124420166,1.1119298934936523,-0.03464518114924431
1772615904197093600,2.33909375,0.40385034680366516,1.0659070014953613,0.011915930546820164
1772615904207161600,2.34916162109375,0.42171987891197205,1.0717988014221191,0.035951707512140274
1772615904217229800,2.359229736328125,0.44997817277908325,1.0997495651245117,0.027352627366781235
1772615904227297800,2.3692978515625,0.4860709011554718,1.1270078420639038,0.012937788851559162
1772615904237365800,2.37936572265625,0.5107714533805847,1.1278941631317139,0.005737932398915291
1772615904247433700,2.389433837890625,0.5163885354995728,1.1117310523986816,-0.006226691417396069
1772615904257502000,2.399501953125,0.5135160088539124,1.1019269227981567,-0.011792697943747044
1772615904267569700,2.409569580078125,0.5019343495368958,1.0828747749328613,-0.002850920893251896
1772615904277637600,2.4196376953125,0.4786396920681,1.0621931552886963,0.019393399357795715
1772615904287705600,2.42970556640625,0.4410599172115326,1.0334854125976562,0.05808710306882858
1772615904297773800,2.43977392578125,0.3807923197746277,1.0152134895324707,0.09973149001598358
1772615904307841800,2.449841796875,0.3168119490146637,1.044824242591858,0.10948195308446884
1772615904317909800,2.45990966796875,0.2521836757659912,1.0798561573028564,0.09307315945625305
1772615904327977700,2.469977783203125,0.20664753019809723,1.110045313835144,0.05911268666386604
1772615904338046000,2.4800458984375,0.18586954474449158,1.130603551864624,0.014474913477897644
1772615904348113700,2.49011376953125,0.18611332774162292,1.1211614608764648,-0.03327573090791702
1772615904358182700,2.5001826171875,0.19411613047122955,1.0595444440841675,-0.06246371194720268
1772615904368251000,2.5102509765625,0.20727214217185974,0.9859588742256165,-0.06943745911121368
1772615904378318800,2.52031884765625,0.2231607288122177,0.9245468378067017,-0.06916805356740952
1772615904388386800,2.53038671875,0.24825656414031982,0.8724374175071716,-0.05247919633984566
1772615904398454800,2.540454833984375,0.2817702889442444,0.8248251676559448,-0.03503495827317238
1772615904408522800,2.550522705078125,0.30632779002189636,0.8056641817092896,-0.03664547577500343
1772615904418590700,2.5605908203125,0.30153435468673706,0.8453314304351807,-0.05315734073519707
1772615904428658700,2.57065869140625,0.26949945092201233,0.8956466913223267,-0.061697352677583694
1772615904438726700,2.5807265625,0.2266034036874771,0.9208876490592957,-0.04953096807003021
1772615904448795000,2.590794921875,0.1870191991329193,0.933912456035614,-0.03423073887825012
1772615904458862800,2.60086279296875,0.16673070192337036,0.9615142345428467,-0.0310240276157856
1772615904468930800,2.610930908203125,0.17864105105400085,0.9788377285003662,-0.04645789787173271
1772615904478998800,2.620998779296875,0.19326633214950562,0.9813852906227112,-0.07924140244722366
1772615904489066800,2.631066650390625,0.2153179943561554,0.9837042689323425,-0.11337466537952423
1772615904499134700,2.641134765625,0.22695894539356232,0.9882633686065674,-0.14965836703777313
1772615904509202700,2.65120263671875,0.22461509704589844,1.014398455619812,-0.17253172397613525
1772615904519270700,2.661270751953125,0.20657484233379364,1.0466331243515015,-0.16510070860385895
1772615904529339000,2.6713388671875,0.17383836209774017,1.067431092262268,-0.12744446098804474
1772615904539406800,2.68140673828125,0.14645200967788696,1.0690521001815796,-0.06037994474172592
1772615904549474800,2.691474853515625,0.12735103070735931,1.0535937547683716,0.015958452597260475
1772615904559542500,2.70154248046875,0.1267414391040802,1.0363361835479736,0.08736499398946762
1772615904569610800,2.71161083984375,0.13139554858207703,1.0156461000442505,0.1424647867679596
1772615904579678700,2.7216787109375,0.13684384524822235,0.9881431460380554,0.18774650990962982
1772615904589746700,2.73174658203125,0.13790643215179443,0.9484231472015381,0.2228960245847702
1772615904599814700,2.741814697265625,0.1461973786354065,0.8893177509307861,0.25309547781944275
1772615904609883000,2.7518828125,0.14346782863140106,0.8320567607879639,0.2669994831085205
1772615904619950800,2.761950927734375,0.12956611812114716,0.7982825040817261,0.2639602720737457
1772615904630018800,2.772018798828125,0.09589105099439621,0.7709193229675293,0.2535291016101837
1772615904640086800,2.782086669921875,0.05371537059545517,0.7419968247413635,0.22664792835712433
1772615904650154800,2.79215478515625,0.016540581360459328,0.7238621711730957,0.20247144997119904
1772615904660222500,2.802222412109375,-0.030332917347550392,0.7197523713111877,0.17997147142887115
1772615904670290700,2.812290771484375,-0.06679829955101013,0.7309114933013916,0.16014619171619415
1772615904680358700,2.822358642578125,-0.08748280256986618,0.7341133952140808,0.13619345426559448
1772615904690426600,2.832426513671875,-0.09887900948524475,0.6980963349342346,0.12541991472244263
1772615904700495600,2.84249560546875,-0.09608615934848785,0.6163173317909241,0.108180470764637
1772615904710563600,2.8525634765625,-0.08744706213474274,0.5298731923103333,0.07597848027944565
1772615904720631600,2.862631591796875,-0.10647907108068466,0.44301658868789673,0.03900102525949478
1772615904730699500,2.872699462890625,-0.1612904965877533,0.3747574985027313,-0.00925497431308031
1772615904740767700,2.882767822265625,-0.22442393004894257,0.3378426134586334,-0.05091320350766182
1772615904750835700,2.892835693359375,-0.24539241194725037,0.34211310744285583,-0.0727032944560051
1772615904760903700,2.902903564453125,-0.21291756629943848,0.3580084443092346,-0.07127530872821808
1772615904770971600,2.9129716796875,-0.14624688029289246,0.36478087306022644,-0.035939790308475494
1772615904781039600,2.92303955078125,-0.09556372463703156,0.35292181372642517,0.04948482662439346
1772615904791107600,2.933107666015625,-0.06891921907663345,0.3155198395252228,0.1581820547580719
1772615904801175600,2.943175537109375,-0.03221313655376434,0.294244647026062,0.28804633021354675
1772615904811243500,2.953243408203125,0.0162313561886549,0.30293336510658264,0.40199658274650574
1772615904821311700,2.963311767578125,0.07765424251556396,0.33322176337242126,0.48975998163223267
1772615904831379700,2.973379638671875,0.1288306564092636,0.3395209014415741,0.5733277797698975
1772615904841447700,2.98344775390625,0.16090337932109833,0.31985506415367126,0.6519868969917297
1772615904851515600,2.993515625,0.19446346163749695,0.3022986948490143,0.7131906151771545
1772615904861583600,3.00358349609375,0.21312157809734344,0.2777632474899292,0.7314039468765259
1772615904871651600,3.013651611328125,0.2529997229576111,0.2742158770561218,0.7116460204124451
1772615904881719600,3.023719482421875,0.31864133477211,0.26445484161376953,0.6463308930397034
1772615904891787500,3.03378759765625,0.3900754153728485,0.23826366662979126,0.5384936332702637
1772615904901855700,3.043855712890625,0.44475170969963074,0.21778129041194916,0.40351879596710205
1772615904911923700,3.053923828125,0.4648788869380951,0.17832976579666138,0.24512507021427155
1772615904921991700,3.06399169921875,0.4220813512802124,0.16861428320407867,0.09174296259880066
1772615904932059600,3.0740595703125,0.3355862498283386,0.1818312108516693,-0.02757171355187893
1772615904942127600,3.084127685546875,0.24129092693328857,0.1629864126443863,-0.1000797301530838
1772615904952195600,3.094195556640625,0.16883817315101624,0.14527805149555206,-0.16320490837097168
1772615904962263600,3.104263671875,0.11153946071863174,0.17412380874156952,-0.23852843046188354
1772615904972331800,3.114331787109375,0.06959589570760727,0.2255232334136963,-0.29986771941185
1772615904982399700,3.124399658203125,0.04688658565282822,0.24389319121837616,-0.33455514907836914
1772615904992467700,3.1344677734375,0.03519536182284355,0.20660319924354553,-0.33735743165016174
1772615905002535700,3.14453564453125,0.04654362425208092,0.17509375512599945,-0.33875957131385803
1772615905012603600,3.154603759765625,0.07868368923664093,0.19170834124088287,-0.347852885723114
1772615905022671600,3.164671630859375,0.1298651248216629,0.20976030826568604,-0.35362422466278076
1772615905032740600,3.17474072265625,0.20035338401794434,0.2228752076625824,-0.3573790192604065
1772615905042808600,3.18480859375,0.27058732509613037,0.28062450885772705,-0.343291699886322
1772615905052876800,3.194876708984375,0.30763477087020874,0.34844109416007996,-0.3061506152153015
1772615905062944800,3.20494482421875,0.3116034269332886,0.3944051265716553,-0.23153017461299896
1772615905073012500,3.215012451171875,0.30451372265815735,0.4159168004989624,-0.13126753270626068
1772615905083080400,3.22508056640625,0.30137813091278076,0.4281010329723358,-0.0332602821290493
1772615905093148700,3.235148681640625,0.2910783886909485,0.4363260269165039,0.05657368525862694
1772615905103216600,3.245216552734375,0.2866378128528595,0.45551836490631104,0.12933842837810516
1772615905113284600,3.25528466796875,0.2998383641242981,0.46361806988716125,0.16140678524971008
1772615905123352800,3.265352783203125,0.3053295314311981,0.4591309130191803,0.1574128419160843
1772615905133420800,3.2754208984375,0.30278605222702026,0.480007529258728,0.12773121893405914
1772615905143488800,3.28548876953125,0.2993023693561554,0.48665130138397217,0.07917246967554092
1772615905153556500,3.295556396484375,0.294269859790802,0.47868117690086365,0.036179833114147186
1772615905163624700,3.305624755859375,0.2863275110721588,0.45148712396621704,0.0006460756994783878
1772615905173692700,3.315692626953125,0.26961132884025574,0.39754533767700195,-0.020613033324480057
1772615905183760600,3.3257607421875,0.25187599658966064,0.3244759440422058,-0.03361618518829346
1772615905193828600,3.33582861328125,0.2222156822681427,0.2595171630382538,-0.020031079649925232
1772615905203896800,3.345896728515625,0.17976301908493042,0.2089245617389679,0.003770922077819705
1772615905213964800,3.35596484375,0.1557023525238037,0.19091618061065674,0.021627310663461685
1772615905224032800,3.36603271484375,0.14855974912643433,0.1660877913236618,0.047673556953668594
1772615905234100500,3.3761005859375,0.13679932057857513,0.15135779976844788,0.06512162834405899
1772615905244168700,3.386168701171875,0.13208578526973724,0.150918111205101,0.07568958401679993
1772615905254236700,3.396236572265625,0.14373378455638885,0.11830737441778183,0.06460950523614883
1772615905264304600,3.4063046875,0.15953725576400757,0.07678789645433426,0.03947405517101288
1772615905274372600,3.41637255859375,0.1706637740135193,0.02009669691324234,-0.0058949170634150505
1772615905284440800,3.42644091796875,0.16580802202224731,-0.015554508194327354,-0.06355288624763489
1772615905294508800,3.4365087890625,0.14964592456817627,-0.0021918078418821096,-0.13920791447162628
1772615905304576500,3.446576416015625,0.12247130274772644,0.0451916866004467,-0.21015211939811707
1772615905314644500,3.45664453125,0.09748264402151108,0.08030133694410324,-0.26660457253456116
1772615905324712700,3.466712646484375,0.06453880667686462,0.0879368856549263,-0.304385244846344
1772615905334780700,3.47678076171875,0.02459145337343216,0.12195968627929688,-0.3341424763202667
1772615905344848600,3.4868486328125,-0.01096547581255436,0.18129146099090576,-0.34636983275413513
1772615905354916600,3.49691650390625,-0.026736000552773476,0.20504838228225708,-0.36044740676879883
1772615905364985600,3.506985595703125,-0.02965615689754486,0.20631098747253418,-0.3774000406265259
1772615905375053600,3.517053466796875,-0.031100336462259293,0.17628903687000275,-0.3930904269218445
1772615905385121500,3.52712158203125,-0.032028183341026306,0.13007041811943054,-0.4068182110786438
1772615905395189800,3.537189697265625,-0.035622671246528625,0.10031124949455261,-0.4061931073665619
1772615905405257700,3.5472578125,-0.034592825919389725,0.10745411366224289,-0.3954160809516907
1772615905415325700,3.55732568359375,-0.0379127562046051,0.12651948630809784,-0.3823777437210083
1772615905425393700,3.5673935546875,-0.04951508343219757,0.15121524035930634,-0.36098217964172363
1772615905435461600,3.577461669921875,-0.062268778681755066,0.17238545417785645,-0.32506874203681946
1772615905445529600,3.587529541015625,-0.07881206274032593,0.18834391236305237,-0.2737869322299957
1772615905455597600,3.59759765625,-0.08653242886066437,0.1960413008928299,-0.19665858149528503
1772615905465665500,3.60766552734375,-0.0859135091304779,0.17398686707019806,-0.1176023781299591
1772615905475733800,3.617733642578125,-0.0825645923614502,0.1256255954504013,-0.05684235692024231
1772615905485801700,3.6278017578125,-0.08512868732213974,0.07889644801616669,-0.02657579630613327
1772615905495869700,3.63786962890625,-0.09208647161722183,0.04886788874864578,-0.0400654561817646
1772615905505937700,3.647937744140625,-0.08437768369913101,0.029993530362844467,-0.09091132879257202
1772615905516005600,3.658005615234375,-0.05489209294319153,0.01295348908752203,-0.16802023351192474
1772615905526073600,3.668073486328125,-0.014021892100572586,-0.008903606794774532,-0.24769428372383118
1772615905536141600,3.6781416015625,0.025997089222073555,-0.03825720399618149,-0.315917432308197
1772615905546209500,3.68820947265625,0.046646974980831146,-0.04543548822402954,-0.35709789395332336
1772615905556277800,3.69827783203125,0.048475950956344604,-0.018046803772449493,-0.3606397211551666
1772615905566345700,3.708345703125,0.035109810531139374,0.020704586058855057,-0.33127838373184204
1772615905576413700,3.71841357421875,0.005411185324192047,0.07585270702838898,-0.26727864146232605
1772615905586481700,3.728481689453125,-0.04426822066307068,0.13386274874210358,-0.1868746131658554
1772615905596549600,3.738549560546875,-0.10543140769004822,0.15126360952854156,-0.10266316682100296
1772615905606617600,3.74861767578125,-0.15991488099098206,0.12893645465373993,-0.019095035269856453
1772615905616685600,3.758685546875,-0.18287523090839386,0.11703744530677795,0.044934872537851334
1772615905626753500,3.76875341796875,-0.1703125685453415,0.13136470317840576,0.06507715582847595
1772615905636821800,3.77882177734375,-0.13574309647083282,0.1489909142255783,0.05252988636493683
1772615905646889700,3.7888896484375,-0.08922380208969116,0.17897623777389526,0.010916130617260933
1772615905656958200,3.798958251953125,-0.04570450261235237,0.23419170081615448,-0.041563697159290314
1772615905667026000,3.80902587890625,-0.011235473677515984,0.29313942790031433,-0.0913166031241417
1772615905677094100,3.81909423828125,0.002617809921503067,0.33386677503585815,-0.11898668855428696
1772615905687162000,3.829162109375,-0.0014736043522134423,0.3598664104938507,-0.12394336611032486
1772615905697231000,3.839231201171875,0.007175263017416,0.40756353735923767,-0.1200990378856659
1772615905707299300,3.84929931640625,0.028672300279140472,0.46440204977989197,-0.09311695396900177
1772615905717367300,3.8593671875,0.0585322268307209,0.5117229223251343,-0.056960877031087875
1772615905727435000,3.86943505859375,0.08654814958572388,0.5383592844009399,-0.013264792039990425
1772615905737503000,3.8795029296875,0.11631149053573608,0.5462958812713623,0.04243842512369156
1772615905747571200,3.8895712890625,0.17311377823352814,0.5517920851707458,0.11381860077381134
1772615905757639200,3.89963916015625,0.24777254462242126,0.5315002202987671,0.18967027962207794
1772615905767707100,3.90970703125,0.3295169770717621,0.4735335409641266,0.2559361159801483
1772615905777775000,3.919775146484375,0.4005776345729828,0.3930123448371887,0.3037167191505432
1772615905787843300,3.92984326171875,0.4486743211746216,0.32735157012939453,0.32120755314826965
1772615905797911000,3.9399111328125,0.47750359773635864,0.31631842255592346,0.3024517297744751
1772615905807979000,3.94997900390625,0.489617258310318,0.3255619704723358,0.2653706669807434
1772615905818047000,3.960046875,0.49073725938796997,0.3374163508415222,0.21602411568164825
1772615905828115200,3.970115234375,0.47298380732536316,0.33850663900375366,0.15985405445098877
1772615905838183200,3.98018310546875,0.4274500608444214,0.32018277049064636,0.12995681166648865
1772615905848251100,3.990251220703125,0.36469534039497375,0.28336456418037415,0.1211894303560257
1772615905858319000,4.000319091796875,0.3028629720211029,0.23259617388248444,0.11169930547475815
1772615905868387300,4.01038720703125,0.2615453600883484,0.20667029917240143,0.0944630578160286
1772615905878455000,4.020455078125,0.23789767920970917,0.22594992816448212,0.059820663183927536
1772615905888523000,4.03052294921875,0.23260918259620667,0.25857314467430115,0.02801559492945671
1772615905898591000,4.040591064453125,0.22771428525447845,0.27468687295913696,0.015353329479694366
1772615905908659200,4.0506591796875,0.21045275032520294,0.2577395737171173,0.010574286803603172
1772615905918727200,4.06072705078125,0.16821351647377014,0.23616662621498108,0.009704019874334335
1772615905928795100,4.070795166015625,0.12073521316051483,0.24297365546226501,-0.002488464582711458
1772615905938863000,4.080863037109375,0.07390288263559341,0.2452702522277832,-0.03913708031177521
1772615905948931300,4.090931396484375,0.023437578231096268,0.24574749171733856,-0.09606241434812546
1772615905958999000,4.1009990234375,0.0065999687649309635,0.2824462056159973,-0.16715219616889954
1772615905969067000,4.11106689453125,0.01318037323653698,0.29579609632492065,-0.24494127929210663
1772615905979135000,4.121135009765625,0.04189126938581467,0.2852727770805359,-0.3092460036277771
1772615905989204200,4.131204345703125,0.08044105768203735,0.281452476978302,-0.3520568311214447
1772615905999272200,4.141272216796875,0.12501758337020874,0.2655467391014099,-0.3667662739753723
1772615906009340200,4.151340087890625,0.17135046422481537,0.21589529514312744,-0.3506584167480469
1772615906019408100,4.161408203125,0.20218242704868317,0.15823127329349518,-0.30850836634635925
1772615906029476000,4.17147607421875,0.22718045115470886,0.12559662759304047,-0.2401285022497177
1772615906039544000,4.1815439453125,0.254304438829422,0.11264128237962723,-0.1554177701473236
1772615906049612000,4.191612060546875,0.27920740842819214,0.09581542760133743,-0.0629083514213562
1772615906059680300,4.20168017578125,0.2982277274131775,0.06277947872877121,0.015891019254922867
1772615906069748200,4.211748291015625,0.3027500510215759,0.06773216277360916,0.07320357859134674
1772615906079816200,4.221816162109375,0.2715376913547516,0.10437297821044922,0.1123964712023735
1772615906089884200,4.23188427734375,0.2234351485967636,0.14200371503829956,0.14092157781124115
1772615906099952000,4.2419521484375,0.1749657392501831,0.15518775582313538,0.15777647495269775
1772615906110020000,4.25202001953125,0.12877720594406128,0.1593225747346878,0.14955902099609375
1772615906120088000,4.262088134765625,0.07792830467224121,0.17873887717723846,0.10727515816688538
1772615906130156000,4.272156005859375,0.02581876888871193,0.21248406171798706,0.05566709116101265
1772615906140224300,4.282224365234375,-0.0018128857482224703,0.23503990471363068,0.021773891523480415
1772615906150292200,4.292292236328125,-0.007342939730733633,0.21852324903011322,0.008166203275322914
1772615906160360200,4.302360107421875,-0.0011160771828144789,0.17627348005771637,0.01255855429917574
1772615906170428200,4.31242822265625,0.017550017684698105,0.1428377628326416,0.021511835977435112
1772615906180496100,4.32249609375,0.04107984900474548,0.12346284836530685,0.027369726449251175
1772615906190564000,4.332564208984375,0.05392400920391083,0.12516248226165771,0.04115744307637215
1772615906200632000,4.342632080078125,0.057948850095272064,0.13649967312812805,0.06672831624746323
1772615906210700000,4.352699951171875,0.06044210121035576,0.1484847068786621,0.09670991450548172
1772615906220768300,4.362768310546875,0.049002911895513535,0.14034050703048706,0.12120375037193298
1772615906230836200,4.372836181640625,0.022539345547556877,0.1155209094285965,0.16181829571723938
1772615906240904200,4.382904296875,-0.025708239525556564,0.09206432104110718,0.2132655531167984
1772615906250972200,4.39297216796875,-0.09101294726133347,0.06035805866122246,0.261238157749176
1772615906261040000,4.4030400390625,-0.1274782419204712,0.008904380723834038,0.28536155819892883
1772615906271108000,4.413108154296875,-0.11120367050170898,-0.04456710070371628,0.26993653178215027
1772615906281176000,4.423176025390625,-0.04794104024767876,-0.08497066795825958,0.2192745953798294
1772615906291244000,4.433244140625,0.020503534004092216,-0.12889151275157928,0.13860052824020386
1772615906301313300,4.443313232421875,0.0720147043466568,-0.16999192535877228,0.04947347939014435
1772615906311381000,4.453381103515625,0.08419493585824966,-0.1971396505832672,-0.0378694124519825
1772615906321449000,4.463448974609375,0.07870005071163177,-0.2018621563911438,-0.11022111028432846
1772615906331517200,4.47351708984375,0.06462843716144562,-0.19126810133457184,-0.16188935935497284
1772615906341585200,4.483585205078125,0.04213312640786171,-0.16179415583610535,-0.19007200002670288
1772615906351653000,4.493653076171875,0.013533705845475197,-0.12737998366355896,-0.18174004554748535
1772615906361721000,4.50372119140625,-0.008124888874590397,-0.07116397470235825,-0.13235272467136383
1772615906371789300,4.513789306640625,-0.01671837642788887,0.0007072861772030592,-0.05988864228129387
1772615906381857300,4.523857177734375,-0.01622188650071621,0.08435019105672836,0.03570589795708656
1772615906391925000,4.533925048828125,0.004024263471364975,0.15355029702186584,0.15754392743110657
1772615906401993000,4.543992919921875,0.028754986822605133,0.19823116064071655,0.2914009094238281
1772615906412061200,4.554061279296875,0.05362997576594353,0.22614295780658722,0.4294189512729645
1772615906422129200,4.564129150390625,0.07863040268421173,0.21715770661830902,0.5583572387695312
1772615906432197000,4.574197021484375,0.10688254982233047,0.2025153785943985,0.6437336206436157
1772615906442265000,4.58426513671875,0.12444059550762177,0.21334539353847504,0.6699535846710205
1772615906452333300,4.594333251953125,0.11676163971424103,0.23945875465869904,0.6661316752433777
1772615906462401000,4.604401123046875,0.09580659121274948,0.24681353569030762,0.6287165880203247
1772615906472469000,4.614468994140625,0.06490833312273026,0.2450004518032074,0.5904309749603271
1772615906482537000,4.624536865234375,0.009437658824026585,0.2409062683582306,0.5503860116004944
1772615906492605200,4.634605224609375,-0.06222374364733696,0.22456084191799164,0.504602313041687
1772615906502673200,4.644673095703125,-0.13490688800811768,0.18316252529621124,0.4431331157684326
1772615906512741000,4.6547412109375,-0.19557182490825653,0.12580016255378723,0.3600981533527374
1772615906522809000,4.66480908203125,-0.23594962060451508,0.07471797615289688,0.25633931159973145
1772615906532877300,4.674877197265625,-0.2526652216911316,0.025120867416262627,0.12580738961696625
1772615906542945000,4.684945068359375,-0.24799886345863342,-0.013679714873433113,-0.022390270605683327
1772615906553013000,4.695012939453125,-0.2206045240163803,-0.018581263720989227,-0.1740943193435669
1772615906563081200,4.705081298828125,-0.18836113810539246,-0.012279614806175232,-0.31869274377822876
1772615906573149200,4.715149169921875,-0.1601468026638031,-0.0074041662737727165,-0.4254596531391144
1772615906583217200,4.725217041015625,-0.12780214846134186,0.012100361287593842,-0.48655766248703003
1772615906593286100,4.7352861328125,-0.10231836885213852,0.011944832280278206,-0.4952603280544281
1772615906603354000,4.74535400390625,-0.08578458428382874,-0.016493264585733414,-0.4629278779029846
1772615906613422000,4.755422119140625,-0.07403232157230377,-0.017137747257947922,-0.41830581426620483
1772615906623490000,4.765489990234375,-0.055738456547260284,0.02676744945347309,-0.3821500837802887
1772615906633558000,4.77555810546875,-0.035533320158720016,0.08101551234722137,-0.34521177411079407
1772615906643626200,4.785626220703125,-0.01159809809178114,0.13775016367435455,-0.30007848143577576
1772615906653694200,4.795694091796875,0.0024740449152886868,0.20168572664260864,-0.24673566222190857
1772615906663761700,4.80576171875,-0.0047823297791182995,0.2650684416294098,-0.1914408653974533
1772615906673829600,4.81582958984375,-0.01009640097618103,0.29963040351867676,-0.13219325244426727
1772615906683897600,4.825897705078125,0.000043773092329502106,0.3131769001483917,-0.07199393957853317
1772615906693965300,4.83596533203125,0.019174590706825256,0.3152272701263428,-0.025255726650357246
1772615906704033500,4.846033447265625,0.03830874711275101,0.31728845834732056,-0.0036045429296791553
1772615906714101500,4.8561015625,0.0554717555642128,0.3362557590007782,0.005580433644354343
1772615906724169500,4.86616943359375,0.09264787286520004,0.3806186020374298,0.0004219419788569212
1772615906734237400,4.876237548828125,0.12078496813774109,0.4191069006919861,0.0017447343561798334
1772615906744305700,4.8863056640625,0.14425964653491974,0.43621107935905457,0.012048820033669472
1772615906754373600,4.89637353515625,0.1700020283460617,0.420371413230896,0.05001271143555641
1772615906764441600,4.906441650390625,0.20672538876533508,0.38651061058044434,0.09836192429065704
1772615906774509300,4.91650927734375,0.24225381016731262,0.34225577116012573,0.15772192180156708
1772615906784577500,4.92657763671875,0.28365787863731384,0.31379643082618713,0.20923300087451935
1772615906794645500,4.9366455078125,0.3324933350086212,0.2951420545578003,0.24289855360984802
1772615906804713500,4.94671337890625,0.39092016220092773,0.29979732632637024,0.23972107470035553
1772615906814781400,4.956781494140625,0.42940762639045715,0.3088137209415436,0.2072819173336029
1772615906824849700,4.966849609375,0.4457826018333435,0.3084629774093628,0.16295306384563446
1772615906834917600,4.976917724609375,0.43730390071868896,0.31852468848228455,0.10461598634719849
1772615906844985600,4.986985595703125,0.40187355875968933,0.34692084789276123,0.032259877771139145
1772615906855053300,4.99705322265625,0.3579697608947754,0.3733058571815491,-0.03945266082882881
1772615906865121500,5.00712158203125,0.2924063503742218,0.3901853561401367,-0.10622668266296387
1772615906875190500,5.0171904296875,0.22603026032447815,0.42173874378204346,-0.16196078062057495
1772615906885258500,5.027258544921875,0.15390679240226746,0.47379201650619507,-0.20597320795059204
1772615906895326700,5.03732666015625,0.10862533003091812,0.5319338440895081,-0.23361335694789886
1772615906905394400,5.04739453125,0.08163093775510788,0.5739595890045166,-0.22671325504779816
1772615906915462400,5.05746240234375,0.07836456596851349,0.5802545547485352,-0.18627741932868958
1772615906925530400,5.0675302734375,0.08474509418010712,0.5640583634376526,-0.1311313360929489
1772615906935598600,5.0775986328125,0.09032735228538513,0.5381202101707458,-0.07858771085739136
1772615906945666600,5.08766650390625,0.09370982646942139,0.5016836524009705,-0.04765615612268448
1772615906955734500,5.097734619140625,0.10181175917387009,0.470791757106781,-0.03313058614730835
1772615906965802500,5.107802490234375,0.11053254455327988,0.4526423215866089,-0.043320104479789734
1772615906975870700,5.11787060546875,0.10677162557840347,0.44470077753067017,-0.07746768742799759
1772615906985938400,5.1279384765625,0.0911344513297081,0.4582938253879547,-0.12698698043823242
1772615906996006400,5.13800634765625,0.05272261053323746,0.48788419365882874,-0.1830260306596756
1772615907006074400,5.148074462890625,0.01589023321866989,0.5233844518661499,-0.23438359797000885
1772615907016142600,5.158142578125,-0.010148024186491966,0.5422710180282593,-0.2745845317840576
1772615907026210600,5.16821044921875,-0.009716589003801346,0.5619605779647827,-0.3030995726585388
1772615907036278500,5.178278564453125,0.006449597887694836,0.5736761093139648,-0.32813143730163574
1772615907046346500,5.188346435546875,0.018498895689845085,0.5782190561294556,-0.34275901317596436
1772615907056414700,5.198414794921875,0.023554906249046326,0.5845469832420349,-0.34348979592323303
1772615907066482400,5.208482421875,0.033491119742393494,0.5957344174385071,-0.3342914283275604
1772615907076550400,5.21855029296875,0.04425668343901634,0.5956978797912598,-0.30184879899024963
1772615907086618400,5.228618408203125,0.04213119298219681,0.5975629687309265,-0.26109254360198975
1772615907096686600,5.2386865234375,0.03042713552713394,0.6322122812271118,-0.220672145485878
1772615907106754600,5.248754638671875,0.012962261214852333,0.6910191178321838,-0.18539166450500488
1772615907116822500,5.258822509765625,0.013621659949421883,0.7290372848510742,-0.15097109973430634
1772615907126890500,5.268890380859375,0.06523582339286804,0.7197921872138977,-0.12502892315387726
1772615907136957400,5.27895751953125,0.14793682098388672,0.6699679493904114,-0.11684823036193848
1772615907147025700,5.289025634765625,0.2443286031484604,0.6153844594955444,-0.11819898337125778
1772615907157093600,5.29909375,0.3598903715610504,0.563782274723053,-0.10971201956272125
1772615907167161300,5.309161376953125,0.47040805220603943,0.49836668372154236,-0.052607402205467224
1772615907177229300,5.319229248046875,0.5339817404747009,0.4397276043891907,0.0504516065120697
1772615907187297500,5.329297607421875,0.5463800430297852,0.4231923520565033,0.18550950288772583
1772615907197365500,5.339365478515625,0.5137086510658264,0.46642637252807617,0.3500915467739105
1772615907207433500,5.34943359375,0.433456152677536,0.5497720837593079,0.5367178916931152
1772615907217501700,5.359501708984375,0.3493979871273041,0.6452913880348206,0.7164035439491272
1772615907227569700,5.369569580078125,0.2963363826274872,0.7140790820121765,0.8685640692710876
1772615907237637600,5.3796376953125,0.2771152853965759,0.7579038143157959,0.9905696511268616
1772615907247705300,5.389705322265625,0.29041656851768494,0.8144366145133972,1.087281584739685
1772615907257773600,5.399773681640625,0.31570249795913696,0.8607796430587769,1.1231915950775146
1772615907267841500,5.409841552734375,0.340407133102417,0.8789210319519043,1.0934425592422485
1772615907277909500,5.419909423828125,0.3647952973842621,0.9075814485549927,0.9970195889472961
1772615907287977500,5.4299775390625,0.38624778389930725,0.9366825819015503,0.8479098677635193
1772615907298045700,5.440045654296875,0.3948897421360016,0.971586287021637,0.660301923751831
1772615907308114400,5.450114501953125,0.3875259459018707,1.0169240236282349,0.4729352593421936
1772615907318182400,5.460182373046875,0.3697751760482788,1.0747785568237305,0.3095197081565857
1772615907328250400,5.47025048828125,0.3339383900165558,1.135601282119751,0.20775941014289856
1772615907338318600,5.480318603515625,0.2845365107059479,1.1955277919769287,0.14462518692016602
1772615907348386600,5.490386474609375,0.25742942094802856,1.238310694694519,0.0999462902545929
1772615907358454500,5.50045458984375,0.2724379301071167,1.2503443956375122,0.08634313195943832
1772615907368522500,5.5105224609375,0.3107416331768036,1.2318867444992065,0.08418065309524536
1772615907378590500,5.520590576171875,0.35580578446388245,1.214227318763733,0.08581370115280151
1772615907388658400,5.530658447265625,0.4004092514514923,1.2048369646072388,0.07030285894870758
1772615907398726400,5.540726318359375,0.43086114525794983,1.1871908903121948,0.04412372037768364
1772615907408794400,5.55079443359375,0.4490160644054413,1.1680930852890015,0.022581947967410088
1772615907418862600,5.560862548828125,0.4546249210834503,1.1691263914108276,-0.009566135704517365
1772615907428930600,5.5709306640625,0.4568391740322113,1.1890426874160767,-0.05181547999382019
1772615907438998500,5.58099853515625,0.4601481556892395,1.2166242599487305,-0.0930878221988678
1772615907449066800,5.591066650390625,0.46478182077407837,1.2419202327728271,-0.11901773512363434
1772615907459134500,5.601134521484375,0.46002912521362305,1.2621066570281982,-0.12730790674686432
1772615907469202400,5.611202392578125,0.4480811655521393,1.272829294204712,-0.12111104279756546
1772615907479270400,5.6212705078125,0.4452430307865143,1.271932601928711,-0.1028611958026886
1772615907489338600,5.631338623046875,0.4521855413913727,1.2696729898452759,-0.0614323727786541
1772615907499406600,5.641406494140625,0.4478781223297119,1.268923044204712,-0.0011879421072080731
1772615907509474600,5.651474609375,0.42093726992607117,1.2772624492645264,0.06603013724088669
1772615907519542500,5.66154248046875,0.3671427369117737,1.2926323413848877,0.14362531900405884
1772615907529610800,5.67161083984375,0.29313895106315613,1.3122947216033936,0.21511095762252808
1772615907539678500,5.681678466796875,0.21024858951568604,1.354024052619934,0.25894075632095337
1772615907549747500,5.69174755859375,0.13768213987350464,1.4153685569763184,0.24192042648792267
1772615907559815400,5.7018154296875,0.09255807846784592,1.4722172021865845,0.18125520646572113
1772615907569883600,5.711883544921875,0.08250138908624649,1.513431429862976,0.10591316223144531
1772615907579951600,5.72195166015625,0.11023634672164917,1.5320810079574585,0.030225588008761406
1772615907590020400,5.732020263671875,0.16235819458961487,1.5432640314102173,-0.023060107603669167
1772615907600088600,5.742088623046875,0.21777085959911346,1.5382921695709229,-0.026886537671089172
1772615907610156500,5.752156494140625,0.27178362011909485,1.5073169469833374,0.01616399548947811
1772615907620224500,5.762224609375,0.3156389594078064,1.4682055711746216,0.08599021285772324
1772615907630292500,5.77229248046875,0.3556487262248993,1.437874436378479,0.16346897184848785
1772615907640360700,5.782360595703125,0.3862929344177246,1.4161443710327148,0.23158970475196838
1772615907650428400,5.792428466796875,0.41678136587142944,1.3973960876464844,0.27473846077919006
1772615907660496100,5.80249609375,0.44193997979164124,1.3873133659362793,0.2974320650100708
1772615907670564400,5.812564453125,0.45407596230506897,1.37742018699646,0.3088567852973938
1772615907680632300,5.82263232421875,0.4284220039844513,1.358659267425537,0.2974664270877838
1772615907690700300,5.8327001953125,0.38004350662231445,1.3530672788619995,0.2645178735256195
1772615907700768300,5.842768310546875,0.33542919158935547,1.346915602684021,0.21477162837982178
1772615907710836500,5.85283642578125,0.30037060379981995,1.3304601907730103,0.15458162128925323
1772615907720904400,5.862904541015625,0.2643961012363434,1.3351491689682007,0.07598961144685745
1772615907730972400,5.872972412109375,0.23500943183898926,1.3525285720825195,-0.008050160482525826
1772615907741040000,5.8830400390625,0.2036009132862091,1.364597201347351,-0.08400297909975052
1772615907751108400,5.8931083984375,0.1824903041124344,1.3651570081710815,-0.13710828125476837
1772615907761176300,5.90317626953125,0.17081047594547272,1.3491766452789307,-0.16791173815727234
1772615907771244300,5.913244384765625,0.18004781007766724,1.3348944187164307,-0.18210244178771973
1772615907781312300,5.923312255859375,0.185930997133255,1.317737340927124,-0.16598312556743622
1772615907791380500,5.93338037109375,0.18696358799934387,1.2852193117141724,-0.1400342434644699
1772615907801448400,5.943448486328125,0.19358153641223907,1.2411333322525024,-0.10527173429727554
1772615907811516200,5.95351611328125,0.2088095247745514,1.1965301036834717,-0.06837847828865051
1772615907821584100,5.963584228515625,0.22020944952964783,1.1485018730163574,-0.039335109293460846
1772615907831652400,5.97365234375,0.22850573062896729,1.103354573249817,-0.018224231898784637
1772615907841720300,5.98372021484375,0.232557475566864,1.065006136894226,-0.012440111488103867
1772615907851788300,5.993788330078125,0.22538471221923828,1.0377634763717651,-0.018745040521025658
1772615907861857500,6.003857421875,0.2077482044696808,0.9981313943862915,-0.028308717533946037
1772615907871925200,6.01392529296875,0.1794983595609665,0.964707612991333,-0.038681529462337494
1772615907881993200,6.0239931640625,0.14358456432819366,0.9539689421653748,-0.03885969519615173
1772615907892061200,6.034061279296875,0.10907108336687088,0.9300549030303955,-0.03311982750892639
1772615907902129400,6.04412939453125,0.08215904235839844,0.8862354755401611,-0.023800624534487724
1772615907912197400,6.054197265625,0.06869880855083466,0.8463576436042786,-0.00848942156881094
1772615907922265300,6.064265380859375,0.06392882019281387,0.813302218914032,0.008953751064836979
1772615907932333300,6.074333251953125,0.06155408173799515,0.7618164420127869,0.023815255612134933
1772615907942401500,6.084401611328125,0.06037935987114906,0.7031453847885132,0.045960236340761185
1772615907952469200,6.09446923828125,0.05484839156270027,0.6594117283821106,0.06797228008508682
1772615907962537200,6.104537109375,0.04497738555073738,0.6101027727127075,0.08548469096422195
1772615907972605200,6.114605224609375,0.034181393682956696,0.5544514060020447,0.09621978551149368
1772615907982673400,6.12467333984375,0.01993507891893387,0.5009605288505554,0.10500901937484741
1772615907992741400,6.134741455078125,0.008959907107055187,0.4452560544013977,0.08827643096446991
1772615908002809300,6.144809326171875,0.00029850832652300596,0.3905792236328125,0.056704118847846985
1772615908012877300,6.154877197265625,0.008873114362359047,0.3369615972042084,0.016326017677783966
1772615908022945300,6.1649453125,0.03007001243531704,0.29015839099884033,-0.03318241238594055
1772615908033013200,6.17501318359375,0.047302041202783585,0.23866327106952667,-0.07793240994215012
1772615908043081200,6.185081298828125,0.05228135362267494,0.20092149078845978,-0.11368827521800995
1772615908053149200,6.195149169921875,0.029167011380195618,0.17747759819030762,-0.14331012964248657
1772615908063217400,6.205217529296875,-0.01679382286965847,0.19429919123649597,-0.16511796414852142
1772615908073285400,6.215285400390625,-0.06845831125974655,0.23020784556865692,-0.1850898712873459
1772615908083353300,6.225353271484375,-0.1119900792837143,0.27634763717651367,-0.19841046631336212
1772615908093421300,6.23542138671875,-0.1312049776315689,0.3115425705909729,-0.21570491790771484
1772615908103489300,6.2454892578125,-0.10886212438344955,0.3699350357055664,-0.24605776369571686
1772615908113557200,6.25555712890625,-0.061966944485902786,0.4424995183944702,-0.2950252592563629
1772615908123626200,6.265626220703125,-0.0007430022233165801,0.5045754313468933,-0.3403639793395996
1772615908133694500,6.275694580078125,0.06394880264997482,0.5706780552864075,-0.3767721354961395
1772615908143762400,6.285762451171875,0.11419785767793655,0.6365699768066406,-0.40123164653778076
1772615908153830400,6.295830322265625,0.14797906577587128,0.6746461391448975,-0.4032757878303528
1772615908163898000,6.305898193359375,0.15235410630702972,0.6754400134086609,-0.3895285427570343
1772615908173966300,6.31596630859375,0.14945919811725616,0.7011027932167053,-0.3856969475746155
1772615908184034300,6.326034423828125,0.15040993690490723,0.771960437297821,-0.4078459143638611
1772615908194102300,6.336102294921875,0.15758195519447327,0.8703585863113403,-0.4863801598548889
1772615908204170200,6.346170166015625,0.20357954502105713,0.9842801094055176,-0.5885233283042908
1772615908214238500,6.356238525390625,0.2560889720916748,1.0031713247299194,-0.6767966747283936
1772615908224306400,6.366306396484375,0.26674559712409973,0.8461711406707764,-0.7095087766647339
1772615908234374400,6.37637451171875,0.24737292528152466,0.6226545572280884,-0.6525708436965942
1772615908244442000,6.386442138671875,0.20332051813602448,0.4307149648666382,-0.5279802083969116
1772615908254510300,6.39651025390625,0.15740565955638885,0.285366028547287,-0.38781169056892395
1772615908264578300,6.406578369140625,0.11903563141822815,0.18963710963726044,-0.28361260890960693
1772615908274646300,6.416646240234375,0.10219790786504745,0.17306621372699738,-0.2271522581577301
1772615908284714200,6.42671435546875,0.1079103872179985,0.19679045677185059,-0.21086755394935608
1772615908294782500,6.436782470703125,0.13631141185760498,0.2308071404695511,-0.22966468334197998
1772615908304850400,6.446850341796875,0.15944230556488037,0.27556902170181274,-0.26049530506134033
1772615908314918400,6.45691845703125,0.17769671976566315,0.30546608567237854,-0.29892802238464355
1772615908324986000,6.466986083984375,0.19174648821353912,0.3164665400981903,-0.3338969349861145
1772615908335054300,6.477054443359375,0.19451801478862762,0.3368115723133087,-0.36082643270492554
1772615908345122300,6.487122314453125,0.22802776098251343,0.38210368156433105,-0.4034460484981537
1772615908355190300,6.497190185546875,0.2810076177120209,0.45346227288246155,-0.46300846338272095
1772615908365258200,6.50725830078125,0.3492865562438965,0.5711289644241333,-0.5445185303688049
1772615908375326500,6.517326416015625,0.44542670249938965,0.6811394095420837,-0.6414414644241333
1772615908385395200,6.527395263671875,0.528861403465271,0.7909128069877625,-0.7207692861557007
1772615908395463200,6.537463134765625,0.5782216787338257,0.8589873313903809,-0.7627413868904114
1772615908405531400,6.547531494140625,0.5929543375968933,0.8689728379249573,-0.7879114747047424
1772615908415599400,6.557599365234375,0.5594139099121094,0.9200469255447388,-0.7552008628845215
1772615908425667300,6.567667236328125,0.4800450801849365,0.979056179523468,-0.6815748810768127
1772615908435735300,6.5777353515625,0.344449520111084,0.9927407503128052,-0.5987568497657776
1772615908445803500,6.587803466796875,0.18400923907756805,0.9782505035400391,-0.4817698001861572
1772615908455871200,6.597871337890625,0.06128263100981712,0.8806222677230835,-0.3526330292224884
1772615908465939200,6.607939208984375,0.027302823960781097,0.8060036897659302,-0.24396036565303802
1772615908476007200,6.618007080078125,0.06867549568414688,0.770791232585907,-0.16559886932373047
1772615908486075400,6.628075439453125,0.16997016966342926,0.7062982320785522,-0.11501239985227585
1772615908496143400,6.638143310546875,0.300845742225647,0.6078886389732361,-0.07382288575172424
1772615908506211300,6.64821142578125,0.41446447372436523,0.4984705448150635,-0.04144364222884178
1772615908516279300,6.658279296875,0.48053377866744995,0.43244847655296326,-0.03043094277381897
1772615908526347500,6.668347412109375,0.5230263471603394,0.42895787954330444,-0.06515003740787506
1772615908536415200,6.678415283203125,0.5458996295928955,0.49733176827430725,-0.11554960906505585
1772615908546483200,6.688483154296875,0.5564020872116089,0.5801488757133484,-0.19030454754829407
1772615908556551200,6.69855126953125,0.564277708530426,0.6660140156745911,-0.24802643060684204
1772615908566619400,6.708619384765625,0.5462707281112671,0.7133644819259644,-0.2941470742225647
1772615908576687400,6.718687255859375,0.4998336136341095,0.7245424389839172,-0.3109161853790283
1772615908586755300,6.72875537109375,0.44665026664733887,0.6815624833106995,-0.33483749628067017
1772615908596823300,6.7388232421875,0.41013815999031067,0.6446493268013,-0.3693765103816986
1772615908606891500,6.7488916015625,0.3867020606994629,0.6039703488349915,-0.39020296931266785
1772615908616959200,6.758959228515625,0.3674154281616211,0.5466270446777344,-0.4183546006679535
1772615908627027200,6.769027099609375,0.3563031256198883,0.5244114398956299,-0.443576842546463
1772615908637096400,6.779096435546875,0.35833439230918884,0.5390298366546631,-0.45852720737457275
1772615908647164400,6.789164306640625,0.36773213744163513,0.5864229202270508,-0.43905362486839294
1772615908657232400,6.799232421875,0.3703263998031616,0.6170295476913452,-0.3891299366950989
1772615908667301000,6.809301025390625,0.363044798374176,0.6465136408805847,-0.3092651963233948
1772615908677369000,6.819369140625,0.33730125427246094,0.6606853604316711,-0.2318842113018036
1772615908687437000,6.82943701171875,0.3139706552028656,0.6564735174179077,-0.15779614448547363
1772615908697505300,6.83950537109375,0.2938660979270935,0.6479744911193848,-0.10787316411733627
1772615908707573200,6.8495732421875,0.30391502380371094,0.7042620182037354,-0.09598801285028458
1772615908717641200,6.85964111328125,0.32053306698799133,0.7674376368522644,-0.09815997630357742
1772615908727709000,6.869708984375,0.32679444551467896,0.7892372608184814,-0.09378813207149506
1772615908737777200,6.879777099609375,0.32943299412727356,0.721248209476471,-0.08673293888568878
1772615908747845000,6.88984521484375,0.34689000248908997,0.5910114049911499,-0.06880772858858109
1772615908757913000,6.8999130859375,0.37244880199432373,0.4440805912017822,-0.03532896935939789
1772615908767981000,6.90998095703125,0.41826581954956055,0.26960864663124084,0.008394276723265648
1772615908778049300,6.92004931640625,0.43904295563697815,0.04126821085810661,0.01984761841595173
1772615908788117200,6.9301171875,0.4731071889400482,-0.04900122806429863,-0.0032324003987014294
1772615908798185200,6.940185302734375,0.5138627290725708,0.0056772418320178986,-0.055005062371492386
1772615908808253000,6.9502529296875,0.5192961096763611,0.11261088401079178,-0.09158357232809067
1772615908818321200,6.960321044921875,0.4708758592605591,0.22852520644664764,-0.1065327376127243
1772615908828389000,6.97038916015625,0.39256641268730164,0.3421148955821991,-0.10317422449588776
1772615908838457000,6.98045703125,0.3201388716697693,0.4852403402328491,-0.1132139191031456
1772615908848525000,6.990525146484375,0.2974199950695038,0.6516732573509216,-0.15151762962341309
1772615908858593300,7.00059326171875,0.3257339298725128,0.7517824769020081,-0.22009675204753876
1772615908868661200,7.0106611328125,0.3878074288368225,0.7716776132583618,-0.2904838025569916
1772615908878729200,7.020729248046875,0.4650450646877289,0.7316091656684875,-0.34448814392089844
1772615908888798200,7.030798095703125,0.5351642370223999,0.620903730392456,-0.4040646553039551
1772615908898866200,7.0408662109375,0.6113935708999634,0.501341700553894,-0.47121545672416687
1772615908908934100,7.05093408203125,0.7137095928192139,0.38290825486183167,-0.5270712971687317
1772615908919002000,7.061002197265625,0.8291764855384827,0.3217596709728241,-0.5864715576171875
1772615908929070300,7.0710703125,0.9207774996757507,0.23686076700687408,-0.6206479072570801
1772615908939138000,7.081137939453125,0.982147216796875,0.22300252318382263,-0.6577854156494141
1772615908949206000,7.0912060546875,1.0261837244033813,0.35957714915275574,-0.6479194760322571
1772615908959274000,7.10127392578125,1.0235791206359863,0.6385297775268555,-0.6025629639625549
1772615908969342200,7.11134228515625,1.012866735458374,0.9694536328315735,-0.5264346599578857
1772615908979410200,7.12141015625,1.04695725440979,1.2752807140350342,-0.47200775146484375
1772615908989478100,7.13147802734375,1.1360032558441162,1.5126680135726929,-0.4678281843662262
1772615908999546000,7.141546142578125,1.2873356342315674,1.6568222045898438,-0.5337741374969482
1772615909009614300,7.1516142578125,1.5130090713500977,1.694834589958191,-0.6380440592765808
1772615909019682000,7.16168212890625,1.7546952962875366,1.5767818689346313,-0.7838343977928162
1772615909029750000,7.17175,1.9362081289291382,1.3593003749847412,-0.9697294235229492
1772615909039818000,7.18181787109375,2.0211856365203857,1.1880066394805908,-1.1138572692871094
1772615909049886200,7.19188623046875,1.9910858869552612,1.1052428483963013,-1.208765983581543
1772615909059954200,7.2019541015625,1.9007731676101685,1.0083872079849243,-1.2509140968322754
1772615909070022100,7.212022216796875,1.7813903093338013,0.9544979333877563,-1.2300420999526978
1772615909080090000,7.222090087890625,1.643511414527893,0.9855923652648926,-1.1570429801940918
1772615909090158300,7.232158447265625,1.477091908454895,1.0659167766571045,-1.0707861185073853
1772615909100226000,7.24222607421875,1.3133890628814697,1.1566224098205566,-0.9763937592506409
1772615909110294000,7.2522939453125,1.1585880517959595,1.2452561855316162,-0.9174204468727112
1772615909120362000,7.262362060546875,1.0395034551620483,1.297878384590149,-0.892461359500885
1772615909130431200,7.27243115234375,0.9588609337806702,1.3236567974090576,-0.8953317403793335
1772615909140499200,7.282499267578125,0.9153594374656677,1.3046249151229858,-0.9050094485282898
1772615909150567200,7.292567138671875,0.892845869064331,1.245355486869812,-0.9178237318992615
1772615909160635100,7.30263525390625,0.9059394598007202,1.1675176620483398,-0.9421984553337097
1772615909170703000,7.312703125,0.9436434507369995,1.0931462049484253,-0.9521815776824951
1772615909180771000,7.32277099609375,0.9766842722892761,1.0306719541549683,-0.9416080713272095
1772615909190839000,7.332839111328125,0.9760128855705261,0.96315997838974,-0.897260844707489
1772615909200907300,7.3429072265625,0.9327628016471863,0.8878632187843323,-0.8293431997299194
1772615909210975200,7.352975341796875,0.8508825898170471,0.84237140417099,-0.7613857388496399
1772615909221043200,7.363043212890625,0.7621950507164001,0.8391019105911255,-0.6735025644302368
1772615909231111200,7.373111083984375,0.6949520707130432,0.8104358911514282,-0.6093260049819946
1772615909241179100,7.38317919921875,0.6480040550231934,0.7598236203193665,-0.5822345614433289
1772615909251247000,7.3932470703125,0.6395237445831299,0.6934877038002014,-0.5805338621139526
1772615909261315000,7.403315185546875,0.6511061787605286,0.6711334586143494,-0.5730242133140564
1772615909271383000,7.413383056640625,0.642863929271698,0.742453396320343,-0.5483359098434448
1772615909281451300,7.423451171875,0.6116062998771667,0.8250224590301514,-0.5240246057510376
1772615909291519200,7.433519287109375,0.5625596642494202,0.8606515526771545,-0.5005283355712891
1772615909301587200,7.443587158203125,0.5097895860671997,0.8530324697494507,-0.49005210399627686
1772615909311655200,7.4536552734375,0.47758686542510986,0.8050463199615479,-0.48119309544563293
1772615909321723100,7.46372314453125,0.46062082052230835,0.7533885836601257,-0.4713122844696045
1772615909331791000,7.473791015625,0.4643559157848358,0.7088016867637634,-0.46254223585128784
1772615909341859000,7.483859130859375,0.48833930492401123,0.6187363862991333,-0.46619537472724915
1772615909351927000,7.493927001953125,0.5351283550262451,0.49830588698387146,-0.4559541940689087
1772615909361996300,7.503996337890625,0.5985414385795593,0.36292505264282227,-0.4185100793838501
1772615909372064000,7.51406396484375,0.6452530026435852,0.2550063133239746,-0.3319035470485687
1772615909382132000,7.524132080078125,0.6418529152870178,0.19122648239135742,-0.2110593616962433
1772615909392200200,7.5342001953125,0.5845709443092346,0.16739198565483093,-0.07950267940759659
1772615909402268200,7.54426806640625,0.4963222146034241,0.157120481133461,0.050163403153419495
1772615909412336000,7.554336181640625,0.39752721786499023,0.12891414761543274,0.15603843331336975
1772615909422404000,7.564404052734375,0.31352633237838745,0.09920033812522888,0.2213117480278015
1772615909432472300,7.574472412109375,0.27230939269065857,0.07827961444854736,0.25605109333992004
1772615909442540300,7.584540283203125,0.26744750142097473,0.05637673661112785,0.2538220286369324
1772615909452608000,7.59460791015625,0.28739988803863525,0.04571849852800369,0.20909450948238373
1772615909462676000,7.604676025390625,0.32275691628456116,0.03681933879852295,0.13316601514816284
1772615909472744200,7.614744140625,0.36537495255470276,0.04852207005023956,0.049274858087301254
1772615909482812200,7.624812255859375,0.388022243976593,0.05492331087589264,-0.05761542543768883
1772615909492880100,7.634880126953125,0.3788045048713684,0.06557781994342804,-0.15034109354019165
1772615909502948000,7.644947998046875,0.33236682415008545,0.09054555743932724,-0.1800910085439682
1772615909513016300,7.655016357421875,0.25877249240875244,0.1174357607960701,-0.17049351334571838
1772615909523084300,7.665084228515625,0.18981684744358063,0.1265469640493393,-0.1090402603149414
1772615909533152000,7.675152099609375,0.13333426415920258,0.12423009425401688,-0.004796948283910751
1772615909543220000,7.685219970703125,0.0869089737534523,0.0840802788734436,0.11007530987262726
1772615909553288200,7.6952880859375,0.049449216574430466,0.01984802447259426,0.1902279406785965
1772615909563356200,7.705356201171875,0.04387357085943222,-0.030840855091810226,0.22691227495670319
1772615909573424000,7.715424072265625,0.05247557908296585,-0.09788273274898529,0.25329703092575073
1772615909583492000,7.7254921875,0.07641173154115677,-0.18028274178504944,0.25706127285957336
1772615909593561000,7.73556103515625,0.12021727114915848,-0.27023178339004517,0.22975961863994598
1772615909603629000,7.745629150390625,0.16617515683174133,-0.3509676456451416,0.18698714673519135
1772615909613697000,7.755697021484375,0.21330565214157104,-0.3838939070701599,0.12317460030317307
1772615909623765200,7.76576513671875,0.23252305388450623,-0.33705252408981323,0.05059732496738434
1772615909633833200,7.775833251953125,0.23123647272586823,-0.2525935769081116,-0.01821715570986271
1772615909643901200,7.785901123046875,0.22239400446414948,-0.18430446088314056,-0.06472638994455338
1772615909653969200,7.79596923828125,0.19475890696048737,-0.15156835317611694,-0.08604659140110016
1772615909664036600,7.80603662109375,0.14423580467700958,-0.14536058902740479,-0.088576540350914
1772615909674104600,7.8161044921875,0.0679900199174881,-0.1723538488149643,-0.082271508872509
1772615909684172300,7.82617236328125,-0.018929392099380493,-0.19787366688251495,-0.08378397673368454
1772615909694240300,7.836240234375,-0.08709859102964401,-0.17635560035705566,-0.11438476294279099
1772615909704308500,7.84630859375,-0.12589441239833832,-0.10364516079425812,-0.16437026858329773
1772615909714376400,7.85637646484375,-0.12822706997394562,-0.04964451491832733,-0.22416728734970093
1772615909724444400,7.8664443359375,-0.1148051768541336,-0.05306507274508476,-0.28528809547424316
1772615909734512400,7.876512451171875,-0.08220222592353821,-0.03383811563253403,-0.3314580023288727
1772615909744580600,7.88658056640625,0.004819079302251339,0.014503031969070435,-0.33428651094436646
1772615909754648300,7.8966484375,0.04427620768547058,0.009217189624905586,-0.2698337435722351
1772615909764716300,7.90671630859375,0.00001277716364711523,0.008632181212306023,-0.1509532481431961
1772615909774784300,7.9167841796875,-0.03612259030342102,0.006092058029025793,-0.020580867305397987
1772615909784852500,7.9268525390625,-0.08776996284723282,0.0515892393887043,0.07473212480545044
1772615909794920400,7.93692041015625,-0.11704130470752716,0.06947369873523712,0.11201770603656769
1772615909804988400,7.946988525390625,-0.07985617220401764,0.04541577398777008,0.11628580093383789
1772615909815057400,7.957057373046875,-0.0053870039992034435,0.045214176177978516,0.1076321229338646
1772615909825125400,7.96712548828125,0.06244312599301338,0.05422084778547287,0.10208327323198318
1772615909835193300,7.977193359375,0.08662542700767517,0.050529174506664276,0.10294826328754425
1772615909845261300,7.98726123046875,0.058863431215286255,0.058357905596494675,0.13768337666988373
1772615909855329500,7.99732958984375,0.007626076694577932,0.055117636919021606,0.19942717254161835
1772615909865397500,8.0073974609375,-0.037884630262851715,0.0530620813369751,0.27242591977119446
1772615909875465500,8.017465576171874,-0.05790600925683975,0.06357117742300034,0.32576078176498413
1772615909885533400,8.027533447265625,-0.05567920207977295,0.07448870688676834,0.35554686188697815
1772615909895601400,8.037601318359375,-0.039282385259866714,0.05810546875,0.35740867257118225
1772615909905669400,8.04766943359375,-0.006910926196724176,0.056124117225408554,0.34620675444602966
1772615909915737300,8.0577373046875,0.025531435385346413,0.04959031939506531,0.3211165964603424
1772615909925805300,8.067805419921875,0.034041877835989,0.022733153775334358,0.30189990997314453
1772615909935873500,8.07787353515625,0.01755344681441784,0.023329967632889748,0.29064807295799255
1772615909945941500,8.08794140625,-0.018180178478360176,0.027606932446360588,0.2755463421344757
1772615909956009500,8.098009521484375,-0.06152419000864029,0.01284503098577261,0.2573486864566803
1772615909966077400,8.108077392578124,-0.0906849130988121,-0.004163069650530815,0.2394595444202423
1772615909976145400,8.1181455078125,-0.08776768296957016,-0.02434290573000908,0.21747063100337982
1772615909986213400,8.12821337890625,-0.07717413455247879,-0.052142273634672165,0.19892533123493195
1772615909996281300,8.13828125,-0.06440960615873337,-0.06995110213756561,0.18824179470539093
1772615910006349300,8.148349365234376,-0.0589071623980999,-0.08710206300020218,0.17724359035491943
1772615910016417500,8.15841748046875,-0.057868264615535736,-0.058984674513339996,0.17438708245754242
1772615910026485500,8.168485595703125,-0.06014566868543625,-0.03143739700317383,0.1789914220571518
1772615910036553500,8.178553466796876,-0.07281139492988586,-0.05346360430121422,0.25394368171691895
1772615910046622500,8.18862255859375,-0.0999487042427063,-0.13523098826408386,0.3284700810909271
1772615910056690400,8.1986904296875,-0.09163271635770798,-0.18364138901233673,0.34442082047462463
1772615910066758400,8.20875830078125,-0.07354959100484848,-0.060800954699516296,0.2911463975906372
1772615910076826400,8.218826416015625,-0.03859134018421173,0.015244011767208576,0.18985094130039215
1772615910086894600,8.22889453125,-0.02365071512758732,0.10121490806341171,0.07273358106613159
1772615910096962600,8.238962646484374,-0.0070602865889668465,0.20786254107952118,-0.05570881441235542
1772615910107030300,8.2490302734375,0.007909556850790977,0.29349449276924133,-0.17393043637275696
1772615910117098200,8.25909814453125,-0.0044416519813239574,0.3207780420780182,-0.21767045557498932
1772615910127166500,8.26916650390625,-0.005745896138250828,0.284677654504776,-0.17249663174152374
