time,seconds_elapsed,z,y,x
1772698526779943200,0.074943115234375,0.14605330639905295,0.16894669986367225,-0.09065748192686587
1772698526789900000,0.084900146484375,0.15153964712196027,0.00909399155974388,-0.048883163775689895
1772698526799858200,0.094858154296875,0.1376706962453667,-0.12752455615103245,-0.05332995971725322
1772698526809815300,0.104815185546875,0.14559389046006835,-0.19854981096684932,0.009327672451455146
1772698526819772000,0.11477197265625,0.11762159542911685,-0.27758476923704145,0.03738499715104699
1772698526829729000,0.12472900390625,0.0976484641922172,-0.3261626299232244,0.052565432485006745
1772698526839686100,0.13468603515625,0.09405365457064471,-0.3067056497812271,0.031073612914001566
1772698526849643300,0.144643310546875,0.06619768852889538,-0.23926059153974055,0.003263157381257042
1772698526859600100,0.15460009765625,0.03540390633642673,-0.19128946457505225,0.021179164292104542
1772698526869557200,0.16455712890625,0.000860407088464126,-0.1337561440169811,0.057559139985917135
1772698526879514000,0.17451416015625,-0.022341002012556416,-0.04585515772402286,0.05707256204537116
1772698526889471000,0.184470947265625,-0.04427402601242065,0.03425999699831009,0.04403206134955399
1772698526899428000,0.194427978515625,-0.047132922574877736,0.1092921493679285,0.04594378585554659
1772698526909386200,0.20438623046875,-0.052748424369096755,0.15455986259281634,0.05155468453988433
1772698526919343000,0.214343017578125,-0.05905248381621204,0.1811269670009613,0.06734209105735645
1772698526929300000,0.224300048828125,-0.05111117855608463,0.17642507292032242,0.03547046876661479
1772698526939257000,0.234257080078125,-0.028460370808839796,0.15360709191262722,0.027118372482201083
1772698526949214200,0.244214111328125,-0.020254870787728578,0.14918635286092757,0.07530761744328775
1772698526959171000,0.254171142578125,-0.05242111037718132,0.17214871077537536,0.0921971034511458
1772698526969128200,0.264128173828125,-0.03433481580018997,0.22998072201907632,0.16136123143704606
1772698526979085300,0.274085205078125,-0.04318566452013328,0.23753800553083418,0.14447196462489664
1772698526989042000,0.2840419921875,-0.013241758888959884,0.2530184832572937,0.06613732751063071
1772698526998999000,0.2939990234375,-0.009234861335158348,0.19635785388052462,0.009527304943092167
1772698527008956200,0.3039560546875,0.030163685861695558,0.14192951360046863,-0.03479150092597119
1772698527018914300,0.313914306640625,0.015053173958789556,0.08599953658580779,-0.002116498963627964
1772698527028871200,0.32387109375,0.011580547678470611,0.08168225790858269,0.0013683566106017678
1772698527038828000,0.333828125,0.007681202152371406,0.12389525973796844,-0.023720601536380125
1772698527048785200,0.34378515625,0.011005378139019011,0.13784896628856658,-0.017170284843770787
1772698527058742000,0.353741943359375,-0.0013625205248594284,0.10440203923881053,0.05347579792873002
1772698527068699100,0.36369921875,-0.012354472926724702,0.07592354825139046,0.036361636319523674
1772698527078656300,0.37365625,-0.033805841756332666,0.0031762919485569,0.0022950430014636366
1772698527088613000,0.383613037109375,-0.017571915314067155,-0.016426234143972394,-0.017620138369966298
1772698527098570000,0.393570068359375,-0.014144278952945023,0.023102058646082876,0.05833036182043142
1772698527108527000,0.403527099609375,-0.05769932477474212,0.0031119945406913757,0.14297166133085265
1772698527118484000,0.41348388671875,-0.0656932644044049,-0.028823358902335165,0.061967120020743456
1772698527128442000,0.423442138671875,-0.04695347435474395,-0.019442951616644857,0.0035617384690325707
1772698527138399200,0.433399169921875,-0.016083138061035424,-0.0006575871258974075,-0.06585427278554998
1772698527148356000,0.443356201171875,0.006215221253037452,0.06118132167160511,-0.13588947538440116
1772698527158313000,0.45331298828125,0.017117741805780677,0.12972469654381275,-0.17229442112268878
1772698527168270000,0.46327001953125,-0.012243980023264885,0.1695195313155651,-0.12276251111468299
1772698527178227200,0.473227294921875,-0.028787703067064283,0.20181728833019733,-0.05230738890359644
1772698527188184000,0.48318408203125,-0.035824195841420436,0.23110943378806112,-0.032593324161414056
1772698527198141200,0.49314111328125,-0.0016939444363117217,0.24993513028919695,-0.02791371497781947
1772698527208098000,0.50309814453125,-0.033795320362318304,0.2505547234922647,0.026532841378939336
1772698527218055000,0.513054931640625,-0.1297030875002034,0.2578448805004358,0.1003470738927368
1772698527228013000,0.523012939453125,-0.13844693218171597,0.3214829476743936,0.11446676639369688
1772698527237970200,0.53297021484375,-0.136992038931977,0.383238269841671,0.17404294529045
1772698527247927300,0.54292724609375,-0.15857320815371348,0.3253068898767233,0.20479971994077786
1772698527257884000,0.5528837890625,-0.06670971143795176,0.30432021594941616,0.1853419360811822
1772698527267841000,0.562841064453125,0.0006423895567655563,0.23422435093820093,0.15128521570316514
1772698527277798100,0.572798095703125,0.05372983662188053,0.12818097423315047,0.07718630732935852
1772698527287755000,0.582755126953125,0.13926117117404938,0.011952888122200965,-0.006896990118009853
1772698527297712000,0.592712158203125,0.21912850688146426,-0.18430033634006976,-0.10627699366468005
1772698527307669200,0.602669189453125,0.28074469457268714,-0.2207189726769924,-0.07438521450189874
1772698527317626000,0.612626220703125,0.34419571474194527,-0.2267757884979248,0.027312269352795553
1772698527327583000,0.6225830078125,0.4585393022805452,-0.3500707442551851,0.16779743849700315
1772698527337541000,0.632541015625,0.49989364145398135,-0.5186275680184363,0.3325299729980528
1772698527347498200,0.642498291015625,0.3131833213627338,-0.5586842685967683,0.845536778525263
1772698527357455000,0.652455078125,0.24861237551914528,0.009271101692318916,0.20890947508085517
1772698527367412000,0.662411865234375,0.44388943015933036,0.22100538840293882,-0.145931671047071
1772698527377369000,0.672369140625,0.3280523891925812,-0.9456406821787356,0.09586809271462261
1772698527387326000,0.682325927734375,0.27427635707510634,-1.532148777246475,0.049559008077485485
1772698527397283000,0.692282958984375,0.2765314242592081,-0.8882260195642709,0.06336150155516806
1772698527407240200,0.702240234375,0.16453821750534697,0.30508593962490554,-0.025500096231140194
1772698527417197300,0.712197265625,0.18577510333405806,1.1096177769362925,-0.05881376598977949
1772698527427154200,0.722154296875,0.4020259724199772,1.6236650314271448,0.06880505344911944
1772698527437111000,0.732111083984375,0.6602712504148482,1.8429221148580313,0.16424418472852556
1772698527447069200,0.742069091796875,0.8948106586515903,1.7361235358715057,0.029380488178308586
1772698527457026000,0.752026123046875,1.2470879730403424,1.3699264172017573,-0.2670536575462669
1772698527466983200,0.761983154296875,1.418482650578022,0.9184919784903526,-0.6538121374033391
1772698527476940000,0.77193994140625,1.5814286487221716,0.6371446418493986,-0.7165449263006448
1772698527486897200,0.781897216796875,1.7323738279491663,0.5847644662708044,-0.375130585905537
1772698527496854000,0.79185400390625,2.233991808977723,0.6305623408496379,0.3984637133611366
1772698527506811100,0.80181103515625,-2.541280811604857,0.5755886416465044,-0.012857490545418113
1772698527516768300,0.811768310546875,-6.384813265067338,0.5265010778725147,-0.5481861093275249
1772698527526725000,0.82172509765625,-3.775203013601899,0.20001696090996265,-0.11508657879247329
1772698527536682200,0.83168212890625,-1.3226660688549279,0.21826456526219842,-0.02497825518096797
1772698527546639000,0.84163916015625,0.34251229169964786,0.2077659676015377,-0.1955952172112651
1772698527556596000,0.851595947265625,1.3834429013788698,0.029682606080174444,-0.2684315948359668
1772698527566554000,0.86155419921875,1.7351152356117963,0.0767839644730091,-0.4191511486135423
1772698527576511200,0.87151123046875,1.510198226723075,0.1958370448768139,-0.46823710495233534
1772698527586468000,0.881468017578125,0.9563520458072423,0.0033551556468009946,-0.5158087112054228
1772698527596425000,0.891425048828125,0.49175534318387504,-0.06553776331543922,-0.6830285142112523
1772698527606382000,0.901382080078125,0.3985346231728792,-0.032583588218688966,-0.7324977707792073
1772698527616339200,0.911339111328125,0.6273527311533689,-0.014514263042807578,-0.6282409852299838
1772698527626296000,0.921296142578125,0.8806248969107866,-0.021458967614173888,-0.41010654915347694
1772698527636253200,0.931253173828125,0.8771797248929738,-0.20020400791466236,-0.11412873921152204
1772698527646210300,0.941210205078125,0.4987421333312988,-0.45427638413906096,0.24211786240069194
1772698527656167000,0.9511669921875,0.021171364578139035,-0.6258727217286825,0.46170715519431976
1772698527666125000,0.961125,-0.39694647719860077,-0.4960433957666158,0.40341501562558113
1772698527676082200,0.971082275390625,-0.6871341228991746,-0.25958967834115027,0.16802034226637333
1772698527686039300,0.981039306640625,-0.6260866567403077,0.0859773247539997,-0.08344957810835912
1772698527695996200,0.99099609375,-0.3277297331094742,0.36642508220672604,-0.2895632484582253
1772698527705953000,1.000953125,0.19606968458890914,0.6383300522416829,-0.42409795736595984
1772698527715910100,1.01091015625,0.7616039652109146,0.9692273094713687,-0.5770737656377256
1772698527725867000,1.020866943359375,1.2187632113099098,1.0785334873646497,-0.6604754677500575
1772698527735824100,1.03082421875,1.3656015397399663,0.9501800791740417,-0.6280298997625708
1772698527745781200,1.04078125,1.154067744037509,0.8772422687351703,-0.5061787130728364
1772698527755738000,1.050738037109375,0.7653811456620693,0.999687914186716,-0.42700778039805587
1772698527765695000,1.060695068359375,0.2673269945949316,1.0190379268229006,-0.31460034855380653
1772698527775652000,1.070652099609375,-0.07486730806357227,1.1076672273904085,-0.21543747034380212
1772698527785610200,1.0806103515625,-0.2139917102485895,1.2558254062473773,-0.11189831327833234
1772698527795567000,1.090567138671875,-0.17995266252458095,1.3770470628619194,0.06270332534080371
1772698527805524200,1.100524169921875,0.01591829375498928,1.3366840728133915,0.2069471620319411
1772698527815481000,1.110481201171875,0.2423129648476839,1.291615681552887,0.31517617568038403
1772698527825438000,1.12043798828125,0.09278817381262779,0.9943032985389232,0.453022511620447
1772698527835395000,1.13039501953125,-0.35089258203208445,0.9049947835355997,0.45743561535496263
1772698527845352200,1.140352294921875,-0.7089093168556689,1.2477052281558514,0.2579566520455293
1772698527855309000,1.15030908203125,-0.797603499352932,1.7637088774114846,0.06175886583123356
1772698527865266200,1.16026611328125,-0.6652946315348148,2.1497312250137326,-0.09874162059063091
1772698527875223000,1.17022314453125,-0.6696189244747162,2.500145668140054,-0.22908448556540534
1772698527885180000,1.180179931640625,-0.6094108317494392,3.0599948888629673,-0.3381155911106616
1772698527895138000,1.190137939453125,-0.5577812188098207,3.5732770042002198,-0.46828065183311696
1772698527905095200,1.20009521484375,-0.3265770924756303,4.039725472170114,-0.33635132138449697
1772698527915052300,1.21005224609375,0.09737433255910873,4.1536727538675065,-0.20085414238646626
1772698527925009000,1.2200087890625,0.2478384502708912,3.6121488789081573,-0.22289761362401767
1772698527934966000,1.229966064453125,0.26527707632780073,2.910483541831374,-0.4428644710257649
1772698527944923100,1.239923095703125,0.06398870724253355,2.061678263029456,-0.5737608416974544
1772698527954880000,1.2498798828125,-0.23757651091031728,0.8956465249538421,-0.43687527708094565
1772698527964837000,1.259837158203125,-0.38326048167347904,-0.2973690816372633,-0.03570705400146544
1772698527974794200,1.269794189453125,-0.3155740524241701,-1.7849106553941965,0.5451000529456883
1772698527984751000,1.279751220703125,-0.07319383102655411,-3.5900399229526516,1.258761167438328
1772698527994708000,1.2897080078125,0.2732346842687577,-5.448730100306868,1.9029075047433375
1772698528004666000,1.299666015625,0.47729953233003614,-7.534993938538432,2.1639384679339826
1772698528014623200,1.309623291015625,0.5056676217455417,-9.536004090115428,1.8023253160536288
1772698528024580000,1.319580078125,0.30114333947896954,-11.445424922275542,0.712561848013848
1772698528034537000,1.329536865234375,0.14730170815810562,-13.149497953891753,-1.1349823006216435
1772698528044494000,1.339494140625,0.2277472638785839,-14.18506732879877,-3.142033120602369
1772698528054451200,1.349451171875,0.5580898829001933,-14.524422033250332,-4.572407284504175
1772698528064408000,1.359407958984375,1.1026479379236698,-14.473189858663082,-5.2425364965885874
1772698528074365200,1.369365234375,2.0510978323042393,-14.357475567293166,-5.082444718831777
1772698528084322300,1.379322265625,3.1597020482838154,-14.241498241072891,-4.111560289803147
1772698528094279400,1.389279541015625,3.905608093625307,-13.94649588856697,-2.496560210868716
1772698528104236500,1.399236572265625,4.413143774265051,-13.263989425468443,-0.7706219689249992
1772698528114194700,1.409194580078125,4.617129054284096,-12.679919955724477,0.5547137940632179
1772698528124151600,1.419151611328125,3.6959810083270073,-12.75317106989622,1.8448612662270665
1772698528134108400,1.4291083984375,1.3785107056736945,-12.940682184976339,2.9066373877972365
1772698528144065500,1.4390654296875,-1.299867961591482,-12.022051090276241,3.4219925100162625
1772698528154022400,1.4490224609375,-3.5029274566888806,-9.952247388458252,3.4426340237677096
1772698528163979500,1.4589794921875,-4.326259271538257,-7.340377375367283,3.154477299372852
1772698528173936600,1.4689365234375,-3.784337337172031,-4.552808265542984,2.6152473805695773
1772698528183893500,1.4788935546875,-3.04589096018672,-1.7348627221554516,1.9248890349268912
1772698528193850600,1.4888505859375,-2.5982465614080428,1.1813970649898051,1.210872531125322
1772698528203807500,1.498807373046875,-2.3153613476753234,3.9826054085880513,0.7160433334540576
1772698528213764400,1.508764404296875,-1.8403145627081392,6.580083908233046,0.2587648996884934
1772698528223722500,1.518722412109375,-1.1269945167381317,8.784163978549838,-0.18857286256011574
1772698528233679600,1.5286796875,-0.48031456930227573,10.555703111195564,-0.6146712364956736
1772698528243636700,1.53863671875,-0.12699804805889725,11.959832242250442,-1.0186340221971273
1772698528253593300,1.54859326171875,-0.2812707642734051,12.876619754910468,-1.3838495824836194
1772698528263550500,1.558550537109375,-0.5656955355983228,13.52274791368246,-1.6473516119629144
1772698528273507600,1.568507568359375,-0.56180261981301,14.008209709680079,-1.8668717302441595
1772698528283464400,1.57846435546875,-0.2998900514822453,14.233959077739716,-2.1367007707878947
1772698528293421600,1.588421630859375,0.21118308256864546,14.15289758207798,-2.47898422216773
1772698528303378700,1.598378662109375,0.6638461862921714,13.871656043899058,-2.770220500138402
1772698528313335300,1.608335205078125,0.8875567420005798,13.424674492943286,-2.8026135342210527
1772698528323292400,1.61829248046875,0.9470669886548072,12.908980055767296,-2.557729257580638
1772698528333249500,1.62824951171875,0.8844143523216247,12.420458872199058,-2.113361834646016
1772698528343207700,1.638207763671875,0.5839818645257503,11.561506293392181,-1.4062661430835723
1772698528353164500,1.64816455078125,0.24573643649034202,10.384749163162708,-0.5628897574625908
1772698528363121400,1.658121337890625,-0.09904255803227424,9.347175462695956,0.06264744870141148
1772698528373078500,1.66807861328125,-0.5677051583876833,8.554179749399424,0.5151391413807869
1772698528383035400,1.678035400390625,-1.0458744958221913,7.892695031541585,1.0564501773070543
1772698528392992500,1.687992431640625,-1.434012228143215,7.317877374267578,1.5571017244562506
1772698528402949600,1.69794970703125,-1.5380606316387653,7.05343441067636,1.6568934934206305
1772698528412906800,1.70790673828125,-1.2535071924328802,7.171454640901088,1.280115797895193
1772698528422863400,1.71786328125,-0.6646387979745865,7.5721046487927435,0.6270753024514765
1772698528432820500,1.727820556640625,0.14495214935727416,8.127220411252974,0.003806972801219672
1772698528442777600,1.737777587890625,0.8023042243897914,8.507065531525015,-0.4854172627361491
1772698528452735500,1.747735595703125,1.1498866589605807,8.63678496737182,-0.8670357858888804
1772698528462692600,1.757692626953125,1.2257330503225325,8.485566231900453,-1.0268888595189898
1772698528472649500,1.7676494140625,0.7983598706781864,7.920267513599991,-1.0308269296202808
1772698528482606300,1.7776064453125,-0.10741294802520424,7.0992474828243255,-0.9042270140334964
1772698528492563500,1.7875634765625,-0.9175088126718998,6.115268009901047,-0.8140539180900901
1772698528502520600,1.7975205078125,-1.6020517500340938,4.8810085387736555,-0.8469619159575551
1772698528512477700,1.807477783203125,-2.2434359291493893,3.4334698895812035,-0.9336845061209053
1772698528522434600,1.8174345703125,-2.739745282375812,1.9759002602398394,-0.7162162058029323
1772698528532391400,1.827391357421875,-2.8231951344788073,0.8428180210858583,-0.465512246565707
1772698528542348500,1.8373486328125,-2.302674884581566,-0.11619944453835487,-0.0938538850816898
1772698528552305400,1.847305419921875,-1.2721850048959253,-1.3217472004443407,0.565014275335893
1772698528562262500,1.857262451171875,-0.5359281007789075,-3.0836838074862953,1.2196558493006975
1772698528572220700,1.867220703125,-0.45355062714777883,-4.735139932158589,1.529117300596088
1772698528582177500,1.877177490234375,-0.6619115649677813,-5.682253024977445,1.5202387053526938
1772698528592134400,1.887134521484375,-0.559444877705723,-5.739156230938434,1.510520590545237
1772698528602091500,1.897091552734375,0.3551249589048326,-5.372366407072544,1.5705451433971522
1772698528612048600,1.907048583984375,1.6070283694028853,-5.399691636371612,1.4869818940475583
1772698528622005500,1.917005615234375,2.950866405624151,-5.628993143954872,0.9728889007188379
1772698528631962600,1.926962646484375,4.224472967755794,-6.610973552015423,-0.20923282528370618
1772698528641919500,1.93691943359375,5.429577071547508,-9.3873391307801,-1.5672300274997948
1772698528651876400,1.94687646484375,5.425573096603155,-14.46755974382162,-2.1309688030071556
1772698528661833500,1.95683349609375,3.3975194552779198,-19.453870485544204,-1.8077951257668434
1772698528671790600,1.96679052734375,-0.3394727778732776,-22.411361862266062,-0.9111596628408879
1772698528681748700,1.976748779296875,-4.611745607680082,-22.246491618061064,0.30423312218785287
1772698528691705300,1.986705322265625,-7.119159805518389,-19.080045356214047,1.6335376061439513
1772698528701662500,1.996662353515625,-5.993060849380493,-14.312186811280249,2.462880644106865
1772698528711619600,2.00661962890625,-1.9788183396436272,-9.767066177630424,2.907352550329268
1772698528721576400,2.016576416015625,2.576063955694437,-6.052035600918531,3.019017566308379
1772698528731533600,2.026533447265625,5.421655630898475,-3.2631033860474825,2.768124404641986
1772698528741490700,2.03649072265625,5.666150615960359,-1.4132131857424974,2.249878967808932
1772698528751447600,2.046447509765625,4.083236112594604,-0.6253665257722139,1.4982161125063895
1772698528761404400,2.056404296875,1.7861667929351328,-0.6413122829228639,0.6533527031980455
1772698528771361500,2.066361572265625,-0.07273088968992233,-0.6502022763431072,-0.25873024850022047
1772698528781318400,2.076318359375,-0.8283071921091526,-0.19404197815358637,-1.1852283137157558
1772698528791275500,2.086275634765625,-0.6284159034054726,0.6075047058671712,-1.9884075673744082
1772698528801233400,2.0962333984375,-0.1421392838936299,1.371995624691248,-2.528612176428735
1772698528811190500,2.1061904296875,0.2853566453475505,1.9518635510921478,-2.5694267096370456
1772698528821147400,2.1161474609375,0.626750089085102,2.322956625109911,-2.323796875326335
1772698528831104500,2.1261044921875,0.6974527608830481,2.6551187877088784,-1.8431991782337427
1772698528841061600,2.1360615234375,0.491423992337659,2.963524227145314,-1.204956292818859
1772698528851018500,2.1460185546875,0.009888941329717635,3.2514901051431893,-0.5416863720446825
1772698528860975600,2.1559755859375,-0.4463607887089252,3.495554297572374,-0.0239555336702615
1772698528870932500,2.165932373046875,-0.696193627667427,3.910661869883537,0.43352761062085626
1772698528880889300,2.175889404296875,-0.5661959959337487,4.493678615704178,0.6367614146854728
1772698528890846500,2.185846435546875,-0.06774257988333701,5.194262587285041,0.5454664751052856
1772698528900803600,2.195803466796875,0.35906127544045446,5.927583876341581,0.24848580826371908
1772698528910761500,2.205761474609375,0.6117290090313181,6.599221154901385,-0.12537176203131675
1772698528920718300,2.21571826171875,0.7524246334552764,7.109407057788967,-0.5222392557095736
1772698528930675500,2.225675537109375,0.7593816129863262,7.391638191527128,-0.7858158847950398
1772698528940632600,2.235632568359375,0.674781421804428,7.506006913506984,-0.879120922088623
1772698528950589400,2.24558935546875,0.36885541462618854,7.5077178090780965,-0.9933805576708167
1772698528960546600,2.255546630859375,0.016948796713352202,7.516388606789707,-1.1714745136514306
1772698528970503700,2.265503662109375,-0.36778935629725457,7.259103698259592,-1.3842612320244312
1772698528980460500,2.27546044921875,-0.9823275409977883,6.778198250392079,-1.5915388315871357
1772698528990417400,2.28541748046875,-1.6249474724531172,6.3683256561249495,-1.8772056388624012
1772698529000374500,2.29537451171875,-2.017971807771921,5.917911792632937,-2.1638981359235943
1772698529010331600,2.30533154296875,-1.977142953777313,5.459451985329389,-2.295580980797857
1772698529020288500,2.31528857421875,-1.3536463135302066,4.8277930814147,-2.3568308376610276
1772698529030246400,2.325246337890625,-0.4132826949715614,3.9056834969490763,-2.3101482892021536
1772698529040203500,2.33520361328125,0.2527051795244217,2.1088561937898396,-1.8155650291159748
1772698529050160600,2.34516064453125,0.21960129375867543,-0.322373759034276,-0.7353639008000492
1772698529060117500,2.355117431640625,0.13264431031756102,-3.0503426788985726,0.5580102783253416
1772698529070074600,2.36507470703125,0.1362483992241323,-5.4409360854297875,1.235569238551706
1772698529080031700,2.37503173828125,-0.22780228200145064,-7.160290857329964,1.4449699677482246
1772698529089988400,2.38498828125,-0.5517208593249321,-8.46498346259892,1.2113025200404226
1772698529099945500,2.394945556640625,-0.13931041714325545,-9.27814518108964,0.7711104100290685
1772698529109902600,2.404902587890625,0.7438074656270444,-9.82916110701561,1.023763932431489
1772698529119859500,2.414859375,1.587527403988689,-10.225974313223361,1.696559733376652
1772698529129816600,2.424816650390625,2.4673323628187176,-10.338746121400595,2.425864188007265
1772698529139773700,2.434773681640625,3.3278730875998734,-10.357075558817385,2.9239979801818725
1772698529149731600,2.444731689453125,4.001779480135441,-10.224318947231769,2.7420392385318872
1772698529159688400,2.4546884765625,4.192295037728548,-10.393874718904495,1.892690062111616
1772698529169645600,2.4646455078125,3.9704713186800475,-11.074725816011428,0.7030152903810143
1772698529179602700,2.474602783203125,3.95742215975374,-11.935251927745341,-0.5643905904795974
1772698529189559600,2.4845595703125,4.191968874514103,-13.147744388222694,-1.4886509963035583
1772698529199516400,2.494516357421875,3.617016777205467,-14.373825813591479,-1.7306109099298714
1772698529209473500,2.5044736328125,1.7875100242376327,-14.596545020174979,-1.1377665975779294
1772698529219430400,2.514430419921875,-0.22510646704621612,-13.15394499642849,-0.23071389513183385
1772698529229387500,2.524387451171875,-1.3374690857112408,-10.747716213870047,0.5844147760502993
1772698529239344600,2.5343447265625,-1.4125637819230557,-8.01004949133396,1.3324160401053726
1772698529249301500,2.544301513671875,-1.074028577160835,-5.209547250178456,2.090656520232558
1772698529259259400,2.55425927734375,-1.5277473274171351,-2.985180178636312,3.014472324094176
1772698529269216500,2.564216552734375,-2.240549560058117,-1.0832920800685881,3.91378964651525
1772698529279173600,2.574173583984375,-2.3121371249318123,1.0269295568555592,4.073511421915889
1772698529289130500,2.584130615234375,-2.1484557982504366,2.7168764479637146,3.597320143088698
1772698529299087600,2.594087646484375,-1.6955635619461535,4.029683970627189,2.50874983035624
1772698529309044500,2.60404443359375,-0.983742157036066,5.280611083438992,1.064374759761244
1772698529319001300,2.61400146484375,-0.3953016326010227,6.484361434534192,-0.3181755401594564
1772698529328958500,2.62395849609375,0.0007826748102903366,7.665166378849745,-1.4062253726817666
1772698529338915600,2.63391552734375,0.32044892845153805,8.879719278988242,-2.1081128280766306
1772698529348872400,2.64387255859375,0.6721031425058841,10.002177248275279,-2.425865503181517
1772698529358829600,2.65382958984375,0.9345295055776834,10.704075809586048,-2.31753533071354
1772698529368786700,2.66378662109375,1.0199854368060826,11.031070214158296,-1.8561646043993532
1772698529378744600,2.67374462890625,1.0125894813358782,11.215247216379641,-1.451587486191839
1772698529388701400,2.683701416015625,0.8942086011052132,11.222513992512225,-1.270650927196443
1772698529398658600,2.693658447265625,0.9480056577444076,11.20916935777068,-1.2176514506757259
1772698529408615700,2.70361572265625,1.1280389842897653,11.201517966234684,-1.2305518487811087
1772698529418572500,2.713572509765625,1.2865391089409588,11.049446413326264,-1.2392390131056308
1772698529428529400,2.723529296875,1.501260887029767,10.821645373433828,-1.3180398703590035
1772698529438486500,2.733486572265625,1.533956118929386,10.51264956688881,-1.446239257031679
1772698529448443400,2.743443359375,1.3683879555881022,10.041052630114555,-1.5267752675145863
1772698529458400500,2.753400390625,1.0558686510920523,9.325334802287816,-1.5178559018693862
1772698529468357600,2.763357666015625,0.6874415814131498,8.755093951410055,-1.4409285834029315
1772698529478314800,2.773314697265625,0.371757054351829,8.151520155251026,-1.3095844689637421
1772698529488271400,2.783271240234375,0.17036065831482408,7.599998617890477,-1.1588393423534928
1772698529498228500,2.793228515625,0.08676995470272376,7.154203646370768,-1.0338635939024388
1772698529508186600,2.8031865234375,0.25208677363144233,6.850414176297187,-0.7947329854179174
1772698529518143500,2.8131435546875,0.6049789867818355,6.715120739710331,-0.5517171329978853
1772698529528100600,2.8231005859375,0.9179664933115244,6.718024059936404,-0.3810131411381066
1772698529538057500,2.833057373046875,1.0113222378790379,6.716089877003431,-0.18128749132491648
1772698529548014600,2.8430146484375,0.9943687649905681,6.756091632524132,-0.037250703246891496
1772698529557971500,2.852971435546875,0.780282946717739,6.7223582897484295,0.0364135948356241
1772698529567928600,2.862928466796875,0.39182080474793907,6.535748507422208,0.16067527673318982
1772698529577885700,2.8728857421875,-0.013078092759847641,6.259307063001394,0.2220686337202787
1772698529587842600,2.882842529296875,-0.5597580353081226,5.441974780827761,0.2136757761672139
1772698529597799400,2.89279931640625,-0.9930185194253921,4.295664226788282,0.3074132865939289
1772698529607756500,2.902756591796875,-1.2053741529047488,2.884298714739084,0.35362723116036504
1772698529617714700,2.912714599609375,-1.0950047296941279,1.2187526899158954,0.03749865012597292
1772698529627671600,2.922671630859375,-1.1289186897337435,-1.1817419329047203,-0.5282733847746626
1772698529637628700,2.932628662109375,-1.5420809731960297,-3.983408541664481,-0.9133408793374895
1772698529647585500,2.94258544921875,-2.2669290329396725,-6.053441960585117,-0.884942613979429
1772698529657542400,2.95254248046875,-2.257930902969837,-6.5558350176393985,-0.7552546692494303
1772698529667499500,2.96249951171875,-0.4301578419268131,-6.0128223654270165,-0.4995563357910141
1772698529677456600,2.97245654296875,2.2556723103880882,-5.974226969572902,0.14776508788615464
1772698529687413500,2.98241357421875,4.302447018796205,-7.242637132105231,1.2209284995850176
1772698529697370600,2.99237060546875,4.4236324350535865,-9.760521286031603,2.5963001035153863
1772698529707327500,3.002327392578125,3.1144460254967212,-11.834924590599536,3.181225897827744
1772698529717284400,3.012284423828125,1.5722247670471667,-13.424158944636583,3.054042117938399
1772698529727241500,3.022241455078125,0.5535293700516224,-15.16947350270152,2.727738910500705
1772698529737199600,3.03219970703125,-0.057610550512745974,-16.432774943917988,2.3963360418364403
1772698529747156700,3.04215673828125,-0.6022947161339223,-16.34269427549839,1.927940531452
1772698529757113300,3.05211328125,-0.7584089685618877,-14.763470443344115,1.4789371192798018
1772698529767070500,3.062070556640625,-0.11891864036917686,-12.353976521509885,1.0945761290185152
1772698529777027600,3.072027587890625,1.0079412171386182,-9.969004461991787,0.7048875870589166
1772698529786984400,3.081984375,2.153482686501741,-8.025857301318645,0.25815485976506025
1772698529796941600,3.091941650390625,2.914707881528139,-6.765626938110589,0.03898172829058021
1772698529806898700,3.101898681640625,2.755730787014961,-6.125594758126139,-0.007271963764354586
1772698529816855600,3.11185546875,1.619248384028673,-5.9558811655431985,0.07975728119537234
1772698529826812400,3.1218125,0.23784889811091123,-5.693028686013817,0.1728139697510749
1772698529836769500,3.13176953125,-0.6218775146126747,-4.782108019560575,0.04732227113451808
1772698529846726400,3.141726318359375,-0.6306782223142683,-3.225805628788471,-0.36048619367703794
1772698529856684500,3.1516845703125,-0.15232523540854453,-1.6174182459920643,-0.861928891203925
1772698529866641400,3.161641357421875,0.4288590342879295,-0.05937982520759105,-1.2401295322045682
1772698529876598500,3.1715986328125,0.7618636390604079,1.336700439426303,-1.4081955037109553
1772698529886555400,3.181555419921875,0.8427122226238251,2.5154987200945613,-1.4210733977235852
1772698529896512500,3.191512451171875,0.8018342687904835,3.5403976479053494,-1.1987620412886142
1772698529906469600,3.2014697265625,0.5370364273469895,4.312356418392062,-0.8284405361652374
1772698529916426500,3.211426513671875,-0.06159099845103919,4.570276117694378,-0.3342862420808524
1772698529926383600,3.221383544921875,-0.8516144910037518,4.574197675052285,0.2720282676210627
1772698529936340500,3.231340576171875,-1.715082939799875,4.601294940814376,0.833117734196037
1772698529946297600,3.241297607421875,-2.3250457063436505,4.825838440215588,1.1465666476923972
1772698529956254500,3.25125439453125,-2.51061503970623,5.307513118889927,1.0721257392141967
1772698529966211600,3.261211669921875,-2.150709714657068,6.014582945358753,0.6827957283686846
1772698529976169500,3.27116943359375,-1.4141080887556075,6.7580421820700165,0.2375975171657279
1772698529986126300,3.281126220703125,-0.7544038245737552,7.4178025603532785,-0.21615498922970144
1772698529996083500,3.29108349609375,-0.4273474606812,7.996122672790288,-0.5841083404496312
1772698530006040600,3.30104052734375,-0.40839945297464725,8.486973176088929,-0.7684498855829238
1772698530015997400,3.31099755859375,-0.49773310241922736,8.922799711301922,-0.8628599615089595
1772698530025954600,3.32095458984375,-0.5426549248158932,9.176749337929486,-0.9773960028797387
1772698530035911700,3.33091162109375,-0.626986089798063,9.171602038168906,-0.9975901381898671
1772698530045868500,3.34086865234375,-0.72263389082551,9.024666679105161,-1.0098784688115119
1772698530055825400,3.350825439453125,-0.8977871171791106,8.835844481426477,-0.9446602928392589
1772698530065782500,3.360782470703125,-1.1606241068784147,8.489837333348392,-0.8290154134437442
1772698530075739600,3.37073974609375,-1.2569042875252663,8.027201701664923,-0.8174733711447566
1772698530085696500,3.380696533203125,-1.1827977255679667,7.543777548974752,-0.863357462702319
1772698530095655000,3.390655029296875,-1.036146882534027,6.8304860715121025,-1.06383897238411
1772698530105612800,3.40061279296875,-1.0034511391777545,5.457911770150065,-1.396917299979925
1772698530115570000,3.41056982421875,-0.7420612064816057,3.502357547846436,-1.7330235240295528
1772698530125526800,3.42052685546875,-0.3336464098073542,1.0186018734931945,-2.085270443280041
1772698530135484000,3.43048388671875,-0.017949644318968058,-1.7612077082455158,-2.194578082478046
1772698530145440800,3.440440673828125,-0.06200615512318909,-4.674286527267098,-1.6985159820109605
1772698530155398000,3.45039794921875,-0.7582054088138044,-7.4256199561059475,-0.593561009253934
1772698530165355000,3.46035498046875,-1.5062624947093426,-9.332407517153024,0.3239346516754478
1772698530175312000,3.470311767578125,-1.5938121833465992,-10.357371326893567,0.4754570462685078
1772698530185269000,3.48026904296875,-0.463580803579092,-10.797289515334366,0.23059445173693818
1772698530195225900,3.490225830078125,1.8842190247558057,-11.105443610358238,0.19864727999195456
1772698530205182700,3.5001826171875,4.044230966895818,-11.752189024245737,0.610426913456805
1772698530215140900,3.510140869140625,5.245657258957624,-12.496692217051983,0.9803029763676225
1772698530225098000,3.520097900390625,5.573401020592451,-12.984423127025366,1.0759215513005853
1772698530235054800,3.530054931640625,5.102303265511989,-13.826956485950946,0.839167462689057
1772698530245011700,3.54001171875,4.363559951406717,-15.197504834443329,0.5594321643546223
1772698530254968800,3.54996875,4.4079871221542355,-16.96060405552387,0.21541984335556624
1772698530264926000,3.559926025390625,4.484306976246834,-18.966070601987838,0.22903883805908262
1772698530274882800,3.5698828125,2.971809824931621,-20.020777223563194,1.1353548602610826
1772698530284840000,3.57983984375,0.2828711852073669,-19.18678840562105,2.447290568526089
1772698530294797000,3.589797119140625,-2.1036381668806077,-16.60535970802307,3.5738889986187217
1772698530304753700,3.599753662109375,-3.172451639741659,-13.088415416419505,3.875214124405384
1772698530314710800,3.609710693359375,-2.8483880279242992,-9.506422606322168,3.5125849273502823
1772698530324668000,3.61966796875,-1.6887001059174536,-6.167834063440561,2.8641055292770266
1772698530334624800,3.629624755859375,-0.8297288224101066,-3.0898885073453184,2.1973874408103526
1772698530344583000,3.6395830078125,-0.7343804427206516,-0.09339841466546057,1.5258324337065219
1772698530354539800,3.649539794921875,-0.87590020647645,2.746511707770824,0.710758597984165
1772698530364497000,3.659496826171875,-0.8968810351848602,5.150809814527631,-0.09401471993289888
1772698530374453800,3.669453857421875,-0.7508090149521828,7.097173014637828,-0.7256386986646801
1772698530384411000,3.679410888671875,-0.403967754137516,8.686962079948186,-1.3272719552151857
1772698530394368000,3.689367919921875,-0.052307621799036856,9.937713836193085,-1.7936983574837446
1772698530404324900,3.699324951171875,0.08574000886678695,10.85653782311678,-1.9547088575206695
1772698530414281700,3.70928173828125,-0.0062075494032353155,11.473683048510551,-1.7484987410590052
1772698530424238800,3.71923876953125,-0.10621347257494926,11.885437803262471,-1.4426637366324662
1772698530434195700,3.72919580078125,-0.12953253497257827,12.25560967078209,-1.2219826848130673
1772698530444152800,3.73915283203125,-0.22125914396829902,12.558850274801253,-1.06001137691997
1772698530454110000,3.74910986328125,-0.10487601342611014,12.764004598599671,-1.030110671109706
1772698530464067800,3.75906787109375,0.31486904595997184,12.92096859972477,-1.1722675637252629
1772698530474024700,3.769024658203125,0.8028057441711425,12.969447676211594,-1.4279023669607938
1772698530483981800,3.77898193359375,1.2597323505580424,12.790277688497303,-1.5368100470557808
1772698530493939000,3.78893896484375,1.5626011986553667,12.375355994147062,-1.4294729772783814
1772698530503895800,3.798895751953125,1.6864882750868797,11.829958492624758,-1.2232410873763262
1772698530513853000,3.80885302734375,1.545243236619234,11.17131104401946,-0.8578529470019042
1772698530523809800,3.818809814453125,1.0986029733818024,10.239952569693326,-0.3097007399439812
1772698530533766700,3.8287666015625,0.5303939936578274,9.394404246860741,0.3038764542372897
1772698530543723800,3.838723876953125,0.1042377885878086,8.68054110698998,0.8627215759515762
1772698530553681000,3.848680908203125,-0.25997427547825497,7.9747005300551645,1.3159760696969927
1772698530563638000,3.858637939453125,-0.5324398202717304,7.495806422010063,1.5012639557696879
1772698530573595000,3.868594970703125,-0.6036404316544532,7.342629538208246,1.4279966211155055
1772698530583552000,3.878552001953125,-0.47580081820487974,7.339297178915142,1.2029594929784535
1772698530593510000,3.888510009765625,-0.2726864758014679,7.264597619500756,0.9500991228923201
1772698530603466800,3.898466796875,-0.30000702892541886,7.1252242201238865,0.6257371126502752
1772698530613423900,3.908423828125,-0.42632454737424846,7.260576108899712,0.1996115584468469
1772698530623381000,3.918381103515625,-0.44003743090629577,7.443303496834635,-0.3157492263279855
1772698530633337900,3.928337890625,-0.36764088773727416,7.445183903753757,-0.7347290369626134
1772698530643294700,3.938294677734375,-0.2753893232856877,7.070682482597231,-1.0014636916875839
1772698530653251800,3.948251953125,-0.31382746448516846,6.17826134943068,-1.1640399797365069
1772698530663209000,3.958208984375,-0.5168681571304797,4.868582187920809,-1.18169334452264
1772698530673165800,3.968165771484375,-0.9844880069673061,3.071470807123184,-0.9403213868521153
1772698530683123000,3.978123046875,-1.640319229108095,0.7396271112024784,-0.4916619658119976
1772698530693080000,3.988080078125,-2.412678543219715,-1.610811395072937,0.4166086245238781
1772698530703036700,3.99803662109375,-2.968039658743143,-3.997338282817602,1.572844214119762
1772698530712994800,4.007994873046875,-2.8586230062127114,-5.625355664235353,2.2949147719740868
1772698530722952000,4.017951904296875,-2.0200680493988097,-5.897852754944562,2.397629004256427
1772698530732909000,4.027908935546875,-0.5712626682061702,-5.168935253804921,1.8508550998143851
1772698530742866000,4.037865966796875,1.5521816575802863,-4.347536452844738,0.8275641917221248
1772698530752822800,4.04782275390625,4.198113368618488,-4.096718694502115,-0.2639449874738231
1772698530762780000,4.05777978515625,6.093652390420437,-5.219634344428777,-1.0048038689609617
1772698530772736800,4.06773681640625,6.427299823141098,-7.205330607017874,-1.4005520032204686
1772698530782694000,4.07769384765625,5.313077182757854,-8.911513762655854,-1.7566262256741523
1772698530792651000,4.087651123046875,3.6029520114958284,-10.662925468552112,-2.401179828605801
1772698530802607900,4.09760791015625,1.3007225325942038,-13.057173890459536,-2.704676599343121
1772698530812564700,4.107564697265625,-0.9970131420195102,-15.31981370177269,-2.502451606994867
1772698530822521900,4.11752197265625,-2.6696155150949954,-16.37820047316551,-1.9039573060572146
1772698530832480000,4.12747998046875,-3.4488685342431067,-15.995008965075016,-0.9255107712112367
1772698530842436900,4.137436767578125,-2.838421929705143,-14.386979894196987,0.4082857634671032
1772698530852394000,4.14739404296875,-1.0615443586409092,-12.075460024380684,1.7473918027304112
1772698530862350800,4.157350830078125,1.2350059055805205,-9.668661917501687,2.9939366088047623
1772698530872307700,4.1673076171875,3.045857057917118,-7.60545805234015,3.7242251060366627
1772698530882264800,4.177264892578125,3.7371500540614124,-6.065524028044939,3.7808562170580027
1772698530892222000,4.187221923828125,3.2303309972584247,-4.9801662476181985,3.228675631266832
1772698530902178800,4.1971787109375,1.7455027741134166,-4.2274943614035845,2.3312284866318107
1772698530912136000,4.207135986328125,0.06570959448469803,-3.618672143197059,1.383245040719211
1772698530922092800,4.2170927734375,-1.048355206722021,-2.7134932352662084,0.2560288440544158
1772698530932049700,4.227049560546875,-1.3796844256281853,-1.4812451039612293,-0.8125731049478053
1772698530942006800,4.2370068359375,-1.0485691417336462,-0.2153910556524992,-1.7418138564676044
1772698530951964000,4.2469638671875,-0.5808242042124271,0.9308353272348642,-2.50918851403445
1772698530961922000,4.256922119140625,-0.2791308296352625,1.8363842375218866,-2.9838074289783836
1772698530971878700,4.266878662109375,-0.16861934933913872,2.6159143200457096,-3.1479338690787553
1772698530981835800,4.276835693359375,-0.14656068053245544,3.3225521848380564,-2.9548996066629885
1772698530991793000,4.28679296875,-0.38310733693838117,3.9168677387863395,-2.361900980532169
1772698531001749800,4.296749755859375,-0.701680534645915,4.349873371359705,-1.5273364085286856
1772698531011707000,4.306706787109375,-0.8464952482938766,4.903073071065545,-0.8367668312881141
1772698531021664000,4.3166640625,-0.9089432289004326,5.454170830056071,-0.10454378579705953
1772698531031620900,4.326620849609375,-0.8072387581825256,5.834920790213346,0.573917712759599
1772698531041577700,4.33657763671875,-0.4266542177200317,6.2662009141683574,0.9793450911208986
1772698531051534800,4.346534912109375,-0.06001054259287193,6.715541595470905,1.1148579426120966
1772698531061492000,4.356491943359375,0.2117389628857374,7.122151973071694,1.0191069004058837
1772698531071448800,4.36644873046875,0.46832244514822957,7.547085942870378,0.6742058138735592
1772698531081406000,4.376406005859375,0.6508060874551534,7.948124657818674,0.19014643201977013
1772698531091363000,4.386363037109375,0.8239403021365403,8.187707905441522,-0.34268406806997953
1772698531101319700,4.396319580078125,0.7696347114533185,8.316295122388004,-0.762943250990659
1772698531111276800,4.40627685546875,0.4806465046703815,8.307266597279906,-1.1319441750347614
1772698531121234000,4.41623388671875,0.2235603335827589,8.116433644300699,-1.4003250625967978
1772698531131190800,4.426190673828125,0.004577975440025329,7.8415435209751125,-1.4749278836384414
1772698531141148000,4.43614794921875,-0.14810381832122801,7.580009138306975,-1.5361749640226363
1772698531151105000,4.44610498046875,-0.3034814270377159,7.227429626101255,-1.6897583827987313
1772698531161062000,4.456061767578125,-0.356180751568079,6.833881559169292,-1.7954545535013078
1772698531171018800,4.466018798828125,-0.30777883197069167,6.285080386683345,-1.7742418157331645
1772698531180975900,4.475975830078125,-0.2554828275442123,5.5673897974789135,-1.5985666843973099
1772698531190932700,4.4859326171875,-0.13594110510693863,4.63261888436079,-1.302616529647261
1772698531200889900,4.495889892578125,-0.028242928665876386,3.470544359478354,-0.9023337476328015
1772698531210847700,4.50584765625,-0.07281391006456688,2.006285461631417,-0.3391767906013876
1772698531220804900,4.515804931640625,-0.1671662461876869,0.015870353826880453,0.10427479612994939
1772698531230761700,4.52576171875,-0.4016612307608127,-2.226917340546846,0.40551333961170166
1772698531240718800,4.53571875,-0.4023779276628047,-4.325827894383669,0.23991940250834448
1772698531250676000,4.545676025390625,-0.07909169342610985,-6.508344952189922,-0.3106825905881822
1772698531260632800,4.5556328125,0.4239934375455603,-8.88280029386878,-0.8805622800033539
1772698531270590000,4.56558984375,1.0375018042743205,-11.084653335785864,-1.3664333143889904
1772698531280546800,4.575546875,1.531499957948923,-13.060835335576533,-1.606403077111393
1772698531290504000,4.58550390625,1.8322949223816394,-14.67421979600787,-1.550166226104647
1772698531300460800,4.595460693359375,1.9834861853241919,-15.598805999720096,-1.3326628544732928
1772698531310418000,4.60541796875,2.3044214359879494,-15.945826124233006,-1.071880824542418
1772698531320375000,4.615375,2.609312729823589,-16.321918029451368,-0.7423326438341289
1772698531330332000,4.625331787109375,2.6186031207382676,-16.999355518722535,0.013239110274147241
1772698531340289800,4.635289794921875,2.4955799676597117,-17.749881625080107,1.2155305129989982
1772698531350247000,4.645246826171875,2.599312729334831,-18.151293849515913,2.5521996805042027
1772698531360203800,4.655203857421875,2.5612159306526183,-18.085173902398346,4.009790060372651
1772698531370161000,4.665160888671875,1.9301473938465117,-17.17717409182787,5.321507741972804
1772698531380118000,4.675117919921875,0.8507505676507949,-15.524382334637641,6.092588560581207
1772698531390075000,4.685074951171875,-0.4068225590467453,-13.273912269067763,6.371622944104671
1772698531400031700,4.69503173828125,-1.4789128616213798,-10.572729064798354,5.965567862299085
1772698531409988900,4.70498876953125,-1.9801567486405371,-7.612566423040628,5.0490445535331965
1772698531419946000,4.714946044921875,-1.9235159930080175,-4.479366012713313,3.8338118544369935
1772698531429902800,4.72490283203125,-1.5390397058039902,-1.4448305592775343,2.471772098831832
1772698531439860000,4.73485986328125,-1.0260095194011927,1.4382488427996634,0.9834468273513018
1772698531449816800,4.74481689453125,-0.4868664020985365,4.086016683223844,-0.6847098183616995
1772698531459775000,4.75477490234375,0.12102233465015888,6.394715065878629,-2.349253534274548
1772698531469731800,4.76473193359375,0.8808820865422486,8.034860107463597,-3.888163914610445
1772698531479689000,4.77468896484375,1.3980688081026076,8.406329613578318,-4.914163204878569
1772698531489646000,4.78464599609375,1.3867986415475606,7.654933738648891,-4.939194770282507
1772698531499602700,4.794602783203125,0.8248229301899671,6.883635477897524,-4.349120214904844
1772698531509559800,4.804559814453125,-0.3581178205778822,6.576545212712883,-3.3864208458974954
1772698531519517000,4.814516845703125,-1.4750672921091317,6.5342006934583186,-2.195901878427714
1772698531529473800,4.824473876953125,-2.212490171265602,6.683053284320235,-1.0799598669059574
1772698531539431000,4.834430908203125,-2.0123159739673135,7.398021755084395,-0.23237817508224395
1772698531549388000,4.844387939453125,-0.7291933954715728,8.536724756729603,0.17930311257466672
1772698531559345000,4.854344970703125,0.939172362947464,9.455908809137345,0.38722178651988504
1772698531569301800,4.8643017578125,2.380739536514878,10.192018267607688,0.491318632267043
1772698531579259000,4.8742587890625,3.294367123839259,10.767902092808484,0.49601840745583176
1772698531589217000,4.884217041015625,3.4664416003346443,11.028286720919608,0.404164957210049
1772698531599174000,4.894173828125,2.930797431063652,11.113783568680287,0.2369642972961068
1772698531609130800,4.904130859375,2.153052478390932,11.113732130753993,0.05462810063585639
1772698531619088000,4.914087890625,1.4978314971029758,10.907613345837593,-0.11304141889885068
1772698531629044700,4.924044677734375,0.9314917453169822,10.55994440202713,-0.2348533695567399
1772698531639001900,4.934001953125,0.5049766438066959,10.309599521893261,-0.32132015832811595
1772698531648959000,4.943958984375,0.18387421988248823,10.123497104567289,-0.4821471184916794
1772698531658915800,4.953915771484375,-0.09185526774353348,9.955939228713511,-0.6147388949044048
1772698531668873000,4.963873046875,-0.33689737442731854,9.846473476344347,-0.6713990128245204
1772698531678829800,4.973829833984375,-0.6908604499459267,9.637952306461333,-0.7852590546298772
1772698531688786700,4.98378662109375,-0.9491665182173251,9.54388870588541,-0.9794681329786777
1772698531698743800,4.993743896484375,-0.9058207129657267,9.646977908959984,-1.2022123278729617
1772698531708701000,5.003700927734375,-0.5701122560620308,9.652774612540005,-1.5003218526139854
1772698531718658800,5.013658935546875,-0.29837623111950234,9.328188438153266,-1.7234473019108176
1772698531728615700,5.02361572265625,-0.18965751599166542,8.800689581415057,-1.756359683692455
1772698531738572800,5.03357275390625,-0.2654956875145435,8.284180320724845,-1.7515414697557687
1772698531748530000,5.043530029296875,-0.5485983433902263,7.650282697972655,-1.6792491176135838
1772698531758486800,5.05348681640625,-0.9171241972684859,6.904535642585158,-1.333908909011632
1772698531768444000,5.06344384765625,-1.241623862415552,6.01630494684577,-0.7023391446851194
1772698531778401000,5.073401123046875,-1.4986837300181388,4.89940753429532,-0.0548884138061665
1772698531788358000,5.08335791015625,-1.516857684612274,3.4735727673888204,0.3360780939336866
1772698531798314800,5.093314697265625,-1.3861995066106318,1.7624533243924378,0.7146635695334523
1772698531808272000,5.10327197265625,-1.0674971295654774,-0.059613049441576,1.1595470522314308
1772698531818229000,5.11322900390625,-0.7645534626662731,-1.8984464336812494,1.5005730508960782
1772698531828185900,5.123185791015625,-0.44606268254518505,-3.5458664347052573,1.543369990093261
1772698531838143000,5.13314306640625,-0.04224113194532692,-4.845774728307128,1.2156849729083479
1772698531848100900,5.143100830078125,0.46188342507667834,-5.760747885021567,0.6473957675550133
1772698531858058000,5.15305810546875,1.1150549995541572,-6.231293851438164,-0.11984010259564966
1772698531868014800,5.163014892578125,2.1275369288623334,-6.471126105386018,-1.2499454082980752
1772698531877972000,5.172971923828125,3.8207659103810787,-6.494791643133759,-2.77796424613297
1772698531887929000,5.18292919921875,5.642402660626173,-7.099720945554972,-4.175904167158901
1772698531897885700,5.1928857421875,6.384081443661451,-9.791686824145913,-4.719329491825402
1772698531907842800,5.2028427734375,4.882244802570343,-14.14972713534832,-3.8343484455317256
1772698531917800000,5.212800048828125,1.2200877379119395,-18.164233995109797,-1.8455949873290955
1772698531927756800,5.2227568359375,-3.242628168773651,-20.43229232434034,0.6482056956984102
1772698531937714000,5.2327138671875,-6.56377633203268,-19.922657041072846,2.6269460016697646
1772698531947671000,5.242671142578125,-7.000073991888761,-16.83337468292713,3.8904032179698347
1772698531957627600,5.252627685546875,-4.253104018956423,-12.617692924392223,4.145990674932301
1772698531967584800,5.262584716796875,0.1830207448583096,-8.765850323224067,4.02315369207561
1772698531977543000,5.27254296875,4.331211340987682,-6.0087932560414075,3.269907513104379
1772698531987500000,5.2825,6.610272710269689,-4.49949519302845,2.1857862887352706
1772698531997457000,5.292456787109375,6.115055243933201,-3.704183604004979,1.1635085762735455
1772698532007413800,5.302413818359375,3.2882512713074683,-3.1764550301641226,0.5050615090785547
1772698532017371000,5.312370849609375,-0.03504910154938698,-2.802106169220805,0.29835474994005634
1772698532027327700,5.32232763671875,-2.464782678335905,-2.396027706539631,0.10613803271856158
1772698532037284900,5.332284912109375,-3.503123271521926,-1.4996505292236804,-0.38585890066884454
1772698532047242000,5.342241943359375,-3.314147344586253,-0.4226560879945755,-1.0635277875430882
1772698532057198800,5.35219873046875,-2.2482009515941144,0.6537146683782339,-1.7026187411546707
1772698532067155700,5.36215576171875,-1.0348948366463184,1.5753531282007693,-2.1930670933932066
1772698532077112800,5.37211279296875,-0.31796471042037006,2.346011337482929,-2.39305395142585
1772698532087069700,5.382069580078125,-0.4493493760656565,2.8631711710363623,-2.1989310169905423
1772698532097027600,5.392027587890625,-1.0312462510108946,3.125194214004278,-1.5019827715635299
1772698532106984700,5.401984619140625,-1.5793594412326812,3.3510955577552317,-0.716952922579646
1772698532116941600,5.411941650390625,-1.8819407045602798,3.6541912003457546,-0.06205372059196233
1772698532126898400,5.4218984375,-1.8247931684494016,3.9860038188546896,0.5488578711092472
1772698532136855600,5.43185546875,-1.2837977012783288,4.495219415405392,0.8878671231240034
1772698532146812700,5.441812744140625,-0.5704244272837415,4.994587571680546,1.0600293509680778
1772698532156769500,5.45176953125,-0.009878493000939488,5.304346179291605,1.1868355297166853
1772698532166726700,5.4617265625,0.23858601674642413,5.634021201249957,1.1416305795297026
1772698532176683800,5.471683837890625,0.2637012053132057,6.022560500109195,0.9025416182298213
1772698532186640400,5.481640380859375,0.34714462767541404,6.373735406213998,0.48771841581799086
1772698532196597500,5.491597412109375,0.4970388730773702,6.57189008038342,0.006977949253842234
1772698532206554600,5.5015546875,0.4880974051982164,6.625270372915268,-0.3625464872077107
1772698532216511700,5.51151171875,0.3768406777590513,6.686141897985339,-0.6565857668351381
1772698532226468600,5.521468505859375,0.17974223464429379,6.814392430323362,-0.9028039224278182
1772698532236426500,5.531426513671875,0.0342594124764204,7.028162022253871,-1.098236478156969
1772698532246383600,5.541383544921875,0.02998772650659084,7.232464113137126,-1.326699854415655
1772698532256340500,5.551340576171875,0.22532208255827427,7.335323014587163,-1.5165974262408912
1772698532266297600,5.561297607421875,0.40005730269551276,7.188663549855351,-1.5324465911492704
1772698532276254700,5.571254638671875,0.4425163882404566,6.826261731815338,-1.434339706531912
1772698532286211800,5.5812119140625,0.36198096227943893,6.262150761994719,-1.3887630734883247
1772698532296168400,5.59116845703125,0.23403087419271468,5.347332503581047,-1.3469209507979452
1772698532306125600,5.60112548828125,0.40801323013603685,4.0561435230076315,-1.3292507079422473
1772698532316082700,5.611082763671875,0.46453766591250895,2.272703524687886,-1.1021126620031894
1772698532326039600,5.62103955078125,0.19042729478776454,0.295924143525958,-0.5452051938205957
1772698532335996700,5.63099658203125,-0.6235960089683532,-1.6164561229616403,0.20229031266942618
1772698532345953800,5.640953857421875,-1.6124685146301985,-3.2900714724719524,0.7779790536895393
1772698532355910700,5.65091064453125,-2.0094196680039165,-4.798654665213823,0.8074725669384002
1772698532365868500,5.66086865234375,-1.4127087433516978,-6.172626558414101,0.18821389305461197
1772698532375825700,5.67082568359375,-0.2103355258285999,-7.584671869421005,-0.754717712828517
1772698532385782800,5.68078271484375,0.9071744656622409,-9.150515410998462,-1.3081509290292859
1772698532395739600,5.69073974609375,1.5112439363837242,-10.78646650802493,-1.3490076939441262
1772698532405696500,5.700696533203125,1.7371359277844427,-12.479381016767023,-1.0215911184370516
1772698532415653600,5.710653564453125,1.734793164050579,-14.302739768499135,-0.4720875698354095
1772698532425610500,5.720610595703125,1.388041919606924,-15.946998675143718,-0.1641669365075417
1772698532435567600,5.730567626953125,0.8619558522760867,-17.236781296050548,-0.27226777546536174
1772698532445524700,5.740524658203125,0.3952759136378765,-18.230716345798967,-0.2565306560967117
1772698532455481600,5.750481689453125,0.3390659506380558,-18.722147279334067,0.24790976194143294
1772698532465438700,5.760438720703125,1.05900636459589,-18.48599342163801,1.3759765110209583
1772698532475395600,5.7703955078125,2.6205858189880846,-18.018635437607763,2.8262846249267457
1772698532485352400,5.7803525390625,3.7662241728544235,-17.428477587860822,4.501688903680444
1772698532495310600,5.790310546875,3.483860352647304,-16.156259849739072,5.937875553253293
1772698532505267700,5.800267822265625,1.9335294375002383,-14.04425834366083,6.642502662745118
1772698532515224600,5.810224609375,0.1118716444671154,-11.29969893900156,6.6272536556869746
1772698532525181400,5.820181396484375,-1.0442378345310688,-8.195259343734383,6.132940444713831
1772698532535138600,5.830138671875,-1.5921324135661123,-4.9137037706732745,5.301444028109311
1772698532545095700,5.840095703125,-1.7251485528707504,-1.5785294201493263,4.310945967072248
1772698532555052500,5.850052490234375,-1.7206173391819,1.5979320397555827,3.1348166133522986
1772698532565009700,5.860009765625,-1.6340934864610432,4.303322632586956,1.6646350474581122
1772698532574966800,5.869966796875,-1.297928517961502,6.398378264561295,0.03128263885506894
1772698532584923400,5.87992333984375,-0.9164905755400657,8.026205676364897,-1.5292695685483515
1772698532594880500,5.889880615234375,-0.5101642755776643,9.193101337793468,-2.7925214715346693
1772698532604837600,5.899837646484375,-0.15689152041077614,9.940588514846564,-3.6620728935062883
1772698532614794500,5.90979443359375,0.03930266734063625,10.374019679355621,-4.036527845172584
1772698532624752600,5.919752685546875,-0.0840723587823566,10.497945334231852,-3.9076358000606297
1772698532634709500,5.92970947265625,-0.5041641583800316,10.534809960770607,-3.2734421169713137
1772698532644666600,5.93966650390625,-0.9758581257879734,10.770288111162184,-2.4306428005859253
1772698532654623500,5.94962353515625,-1.2701286568880081,11.054171688282489,-1.6071528725653885
1772698532664580600,5.95958056640625,-1.0539362217247485,11.352467237114906,-1.016147319947928
1772698532674537700,5.969537841796875,-0.5295768320560456,11.612641437345742,-0.6916020620934665
1772698532684494600,5.97949462890625,0.19773559024082496,11.782277873039245,-0.44831407820116725
1772698532694451500,5.989451416015625,0.9086977297067642,11.82682311720848,-0.28302129773516205
1772698532704408600,5.99940869140625,1.479130303764343,11.718328840219973,-0.2514160164967179
1772698532714365700,6.00936572265625,1.693848574721813,11.488992845845221,-0.19844313572198152
1772698532724322600,6.019322509765625,1.4404057285726068,11.067931333565712,-0.23654526816643773
1772698532734279700,6.02927978515625,0.9674410105764866,10.555649335181712,-0.3162736885935068
1772698532744236800,6.03923681640625,0.4502957900702953,10.071111083769798,-0.4742819380745291
1772698532754194400,6.0491943359375,-0.0012917933762073516,9.54528512867987,-0.84368435559161
1772698532764151600,6.059151611328125,-0.2993687310218811,9.104276222392917,-1.2465693559937179
1772698532774108700,6.069108642578125,-0.511336241966486,8.795218456527591,-1.5771081551745534
1772698532784065800,6.079065673828125,-0.6261211435317993,8.591438343691825,-1.801519260367751
1772698532794022700,6.089022705078125,-0.6215817465364932,8.479355102300643,-1.96816849694401
1772698532803979500,6.0989794921875,-0.5695604673981666,8.587366564208269,-2.041093009509891
1772698532813936600,6.1089365234375,-0.36827684755325313,8.760133114621043,-1.9326709209747612
1772698532823893500,6.1188935546875,-0.15786182674765586,8.778907373195887,-1.6270733785659073
1772698532833850600,6.1288505859375,0.14971476064920425,8.79589299478829,-1.3528040174871683
1772698532843807700,6.138807861328125,0.42424715657830236,8.849450397452712,-1.1813400010403245
1772698532853764600,6.1487646484375,0.41398295219540593,8.764628087952733,-0.9678347591344266
1772698532863721700,6.1587216796875,0.11187283177720382,8.303096033596992,-0.7155877717062831
1772698532873678600,6.1686787109375,-0.047670098191499706,7.789373773276806,-0.6793555978521705
1772698532883635500,6.178635498046875,-0.3247475024282932,6.904108357083797,-0.7250381754882633
1772698532893593600,6.188593505859375,-0.8312719601988792,5.635346312373876,-0.6028690088905394
1772698532903550700,6.19855078125,-1.379298641180992,4.231003246307373,-0.533854363244772
1772698532913507600,6.208507568359375,-1.6482453459322453,2.6344056700259446,-0.5853768260154872
1772698532923464400,6.21846435546875,-1.3645757038235664,0.6338105289906263,-0.5723408188316971
1772698532933421600,6.228421630859375,-0.5826771386027336,-1.518702435696125,-0.47838593932725487
1772698532943378700,6.238378662109375,0.11682835355903953,-3.8147494265705344,-0.2608949887860566
1772698532953335600,6.24833544921875,0.6744505093496292,-6.138261347475647,0.4041682816782966
1772698532963292700,6.258292724609375,1.3272691787362099,-8.100608883181215,1.225592472808063
1772698532973249800,6.268249755859375,1.9835364542067049,-9.201503839957713,1.6670314410753546
1772698532983206400,6.278206298828125,2.6661726811647415,-9.6275881488353,1.5375805930368602
1772698532993163500,6.28816357421875,3.6253064666450023,-9.965664503914118,1.058789068583399
1772698533003120600,6.29812060546875,5.116905791360139,-10.387923117023705,0.4741173951625824
1772698533013077500,6.308077392578125,6.649930182397365,-11.359909369814396,-0.15635553210424258
1772698533023034600,6.31803466796875,6.836223153859376,-13.807756110918522,-0.41571120076011864
1772698533032992500,6.327992431640625,4.6877369604706765,-16.954633748942612,-0.17072408479973672
1772698533042949600,6.33794970703125,0.6225882932305336,-19.423115281796456,0.37648729774411765
1772698533052906500,6.347906494140625,-3.7529765687465666,-20.227609125185012,0.9522347466815263
1772698533062863600,6.357863525390625,-6.596062983131408,-18.70324617950916,0.955565571604669
1772698533072820700,6.36782080078125,-6.749701054704189,-15.353788452088832,0.4852801923530176
1772698533082777600,6.377777587890625,-4.497559256529808,-11.4773187746644,-0.18646661099586634
1772698533092734200,6.387734130859375,-1.0720785390716046,-8.087329130369424,-0.367168813246116
1772698533102691000,6.397691162109375,2.03779879027009,-5.234005399608612,-0.22967624091347677
1772698533112648000,6.40764794921875,4.1502866185605525,-3.188183461880684,0.10900058254282921
1772698533122605000,6.41760498046875,4.611382035064697,-1.718502538985014,0.5225626789776608
1772698533132562200,6.427562255859375,3.647918111425638,-0.6575304272741079,0.8725685047704725
1772698533142519000,6.43751904296875,2.1283049906253813,0.07907879741191863,1.1142007938776164
1772698533152476200,6.44747607421875,0.7353273681819439,0.37314416132867334,1.1567357942029832
1772698533162434000,6.45743408203125,-0.22024671552274375,0.39570027652978895,0.9348036463439464
1772698533172391200,6.46739111328125,-0.995853450590372,0.5667722979843616,0.4700497438648715
1772698533182348000,6.47734814453125,-1.4481471364796161,0.8684452142953872,-0.16392342834156007
1772698533192305200,6.48730517578125,-1.5239888516664504,1.3309732939511536,-0.800570532464981
1772698533202262300,6.49726220703125,-1.3831634999155997,1.9053192420601843,-1.2121037534207104
1772698533212219000,6.507218994140625,-1.1453460929214954,2.4936761798650027,-1.375293643323332
1772698533222176000,6.517176025390625,-0.9542506896138191,3.0812627178192136,-1.3124623624876142
1772698533232133000,6.527133056640625,-0.8045978882849216,3.5409658031821247,-1.0506445597682148
1772698533242090200,6.53709033203125,-0.7736766803205013,3.9020968706339594,-0.6601882483065128
1772698533252047000,6.547047119140625,-0.8167617888092994,4.219196488657594,-0.09803557294681668
1772698533262004200,6.557004150390625,-0.9764894094288349,4.560894541364908,0.4655114063154906
1772698533271961000,6.566961181640625,-0.9479986434817314,5.055289585402607,0.8984530337419361
1772698533281918000,6.57691796875,-0.7071066513478755,5.657578017926216,1.0085807571511716
1772698533291876000,6.5868759765625,-0.26049104762766506,6.246242998766899,0.8188437827151268
1772698533301833200,6.596833251953125,0.20944584697987884,6.753519151687621,0.564506545009464
1772698533311790300,6.606790283203125,0.4748293062916025,7.091157699871063,0.22457681714892386
1772698533321747000,6.616746826171875,0.5969978883674368,7.339437464168667,-0.20596505565941334
1772698533331704000,6.6267041015625,0.592176824886538,7.476260594540834,-0.6841901053365319
1772698533341661200,6.6366611328125,0.47317163874506946,7.4801505877166985,-0.9986071332126856
1772698533351618000,6.6466181640625,0.1067126542687416,7.180531681326031,-1.241155952642858
1772698533361575200,6.6565751953125,-0.42403789774179457,6.894556684884429,-1.4058901493780314
1772698533371532300,6.6665322265625,-0.9197498695969581,6.6821244790375225,-1.5506908345006405
1772698533381489200,6.6764892578125,-1.0199415976643562,6.569143412023783,-1.753064441539347
1772698533391446000,6.686446044921875,-0.7842810764431953,6.502098751276731,-2.0308418107390405
1772698533401403100,6.696403076171875,-0.3633855683803558,6.3576563780725,-2.165190075430274
1772698533411360000,6.706360107421875,0.010086546261049807,6.130880589574575,-2.0320495790936053
1772698533421317000,6.716317138671875,0.1780945039698854,5.724620340585708,-1.5713851013526319
1772698533431274200,6.726274169921875,0.05344630697276443,4.955921448677778,-0.8509399527430533
1772698533441232100,6.736232177734375,-0.18750406428482383,3.9379923598796127,0.054174292453750966
1772698533451189000,6.74618896484375,-0.3551169217288494,2.5930121678858993,0.7144121520556509
1772698533461146000,6.75614599609375,-0.3524398480067029,0.8447270695775747,0.8649804607942699
1772698533471103200,6.766103271484375,-0.23956976708676664,-1.056652494946122,0.6718935914084315
1772698533481060000,6.77606005859375,-0.19083350096847862,-2.800825481760502,0.6152929485905915
1772698533491017200,6.786017333984375,-0.2870106961648911,-4.3801486826360225,0.7225984541859477
1772698533500974000,6.79597412109375,-0.5280523989677429,-5.856015600690245,1.0393659176457672
1772698533510931000,6.805930908203125,-0.4628268434066325,-7.127379352331161,1.387892574264109
1772698533520888000,6.81588818359375,0.2821065940430388,-8.148350877565145,1.6084889434747396
1772698533530845200,6.82584521484375,1.4344365910351276,-9.47012730410397,1.622715475617349
1772698533540802000,6.835802001953125,2.6163234853684902,-10.972308228588103,1.2587078298158942
1772698533550759200,6.84575927734375,3.011240502566099,-12.711609225451946,0.45342385896295306
1772698533560716000,6.855716064453125,2.3573054694354534,-14.918132597267627,-0.5023578030778095
1772698533570674200,6.865674072265625,1.5297756183743476,-17.409762365996837,-1.1624236305810511
1772698533580631000,6.875631103515625,0.7485924348812549,-19.658256747579575,-1.1502958242833614
1772698533590588200,6.885588134765625,-0.07948215404842049,-20.661198110604285,-0.28064554504714906
1772698533600545300,6.895545166015625,-0.6514192509174347,-19.952556504774094,1.6371337309397755
1772698533610502000,6.905501953125,-0.6814496475219726,-18.072576286631822,4.3231577983915805
1772698533620459000,6.915458984375,-0.05354220509529113,-15.643161858797072,6.629967590820789
1772698533630416100,6.925416015625,0.7345780111193656,-12.942266239297389,7.803840690046548
1772698533640373200,6.935373291015625,1.0748001460552215,-10.182247399699687,7.649774748450517
1772698533650330000,6.945330078125,0.9187070825457573,-7.4331930217087265,6.241539351120591
1772698533660287200,6.955287353515625,0.4719897354841232,-5.061667888262868,3.811986391597986
1772698533670244000,6.965244140625,-0.2712994053572416,-3.1936551712900396,0.968341904938966
1772698533680201000,6.975200927734375,-1.0628180318385363,-1.7652192819744348,-1.732271536618471
1772698533690158000,6.985157958984375,-1.5243465790629387,-0.5964665945023297,-3.918858912603557
1772698533700116200,6.9951162109375,-1.8888871626973152,0.3393868531554937,-5.408325024682283
1772698533710073000,7.005072998046875,-2.1719231830775736,1.2509195140272378,-6.07799772517085
1772698533720030000,7.015030029296875,-2.2566642440348863,2.3893758474349975,-5.909134027415513
1772698533729987000,7.024987060546875,-2.1423094044499096,3.7350650644809007,-4.883612876053154
1772698533739944200,7.034944091796875,-1.8949363797336816,4.958245507711172,-3.4505373442381617
1772698533749901000,7.044901123046875,-1.4951859510302543,6.118551269355416,-1.972571261947602
1772698533759858200,7.054858154296875,-0.9777063109379261,7.205668460670113,-0.7126464575573802
1772698533769815300,7.064815185546875,-0.3710679030438885,8.182164299839734,0.2304498008355498
1772698533779772200,7.074772216796875,0.27898473569545895,9.050074092084168,0.7998113846607506
1772698533789729000,7.08472900390625,0.8323832093764096,9.723691146284342,0.8879661995843052
1772698533799686100,7.09468603515625,1.3154583294332027,10.254384415149689,0.5729958486743271
1772698533809643000,7.10464306640625,1.6429238586485384,10.633652612316608,-0.017000819161534307
1772698533819600100,7.11460009765625,1.7306886513411999,10.725097554826736,-0.7368992936737835
1772698533829557200,7.12455712890625,1.7568331464231013,10.699437043869494,-1.5041865652181208
1772698533839514000,7.13451416015625,1.7343471738487481,10.631038630425929,-2.2318018977180123
1772698533849472000,7.144471923828125,1.5734242059648036,10.356222156858443,-2.8044369502559303
1772698533859429000,7.15442919921875,1.354039112240076,9.995714774262904,-3.1774761899054047
1772698533869386200,7.16438623046875,1.0782616846859454,9.736796711573005,-3.28866774315387
1772698533879343000,7.174343017578125,0.8944768966525792,9.435491459530592,-3.296968246248364
1772698533889300200,7.18430029296875,0.7270429394394159,9.076808954274654,-3.221094966879487
1772698533899257000,7.194257080078125,0.5912374616771936,8.835769662624598,-3.0242554669618604
1772698533909214000,7.2042138671875,0.5867641156554222,8.796323787420988,-2.632265150865912
1772698533919171000,7.214171142578125,0.7402963887661695,8.696744053772091,-2.182085534521192
1772698533929128200,7.224128173828125,0.9242828368514776,8.608448515203595,-1.7848593635983765
1772698533939085000,7.2340849609375,1.1600661076694727,8.510957862788437,-1.3064108073636889
1772698533949042200,7.244042236328125,1.357303082472086,8.362989653545618,-0.8524861592717469
1772698533958999000,7.2539990234375,1.3709358865052461,8.195444637173413,-0.533555672559142
1772698533968956000,7.263955810546875,1.1456956370115279,7.867318598222732,-0.3958296019978821
1772698533978913000,7.2739130859375,0.6474574346143752,7.374464353886246,-0.3224488700971007
1772698533988871200,7.28387109375,-0.11028170839454977,6.865055280590057,-0.2966143908124417
1772698533998828300,7.293828369140625,-0.7833160308033228,6.570605301269889,-0.4849176061183214
1772698534008785000,7.303784912109375,-1.1040157191455364,6.300204890578985,-0.8871376398056745
1772698534018742000,7.313741943359375,-0.8880705367416143,6.151936821606755,-1.307492172859609
1772698534028699100,7.32369921875,-0.3107131318569183,5.905939615288377,-1.6894016783155499
1772698534038656000,7.333656005859375,0.3455786935329437,5.3477977830052374,-1.8686606594875455
1772698534048613000,7.343613037109375,0.8564864809542894,4.2671360514402386,-1.603088107344508
1772698534058570200,7.3535703125,1.0827893912434576,2.6228835745364427,-1.0300791069276631
1772698534068527000,7.363527099609375,0.9273398863345385,0.3318406755596399,-0.28564401092156766
1772698534078484000,7.37348388671875,0.35291561229228974,-2.236781731957197,0.5754544938728213
1772698534088441000,7.383441162109375,-0.30751345903277394,-4.315649030196666,1.1652195449098943
1772698534098398000,7.39339794921875,-0.44828503476977344,-5.631023188477754,1.2439927835039795
1772698534108354800,7.403354736328125,0.14667758491039276,-6.129837218001485,0.8932838144104928
1772698534118312000,7.41331201171875,1.3324562259852886,-6.176361653289199,0.45396468784138555
1772698534128269800,7.423269775390625,2.948302692615986,-6.165036541676521,-0.09117773380815052
1772698534138226700,7.433226806640625,4.792866729462147,-6.064933076414466,-0.9049686992462724
1772698534148183800,7.443183837890625,6.343747095185518,-6.834079127568006,-1.8587343087568877
1772698534158141000,7.453140869140625,6.549476004001498,-9.943720383131504,-2.127495281677693
1772698534168098000,7.46309814453125,4.126461506336927,-15.192593681526184,-0.8555648360647261
1772698534178055000,7.473054931640625,-0.975951576225087,-20.02576670241356,1.3307754332914947
1772698534188011800,7.48301171875,-6.558786268660426,-21.81958254879713,2.6745444959297773
1772698534197969000,7.492968994140625,-9.926895505058765,-20.440066465473173,2.676681215697527
1772698534207925800,7.50292578125,-9.78057681658864,-16.9609255425632,1.7327049595996737
1772698534217883000,7.5128828125,-6.630345191961527,-12.859192819291353,0.5726794031362981
1772698534227840000,7.522840087890625,-2.1582102995455266,-9.45983036649525,0.24658501614369452
1772698534237796900,7.532796875,2.016748403456807,-6.559637917053699,0.2403266316023655
1772698534247754000,7.54275390625,4.889383568409085,-4.22845239278078,0.371542206024751
1772698534257710800,7.5527109375,6.2222179800570006,-2.540344992059469,0.510122226534225
1772698534267669000,7.5626689453125,5.527452923887968,-1.4823212087601423,0.7046424531914294
1772698534277625900,7.5726259765625,3.0861843921303747,-1.055638349467516,0.9881107275091111
1772698534287583000,7.5825830078125,0.49901510505378244,-1.034445923835039,1.2257912833157927
1772698534297539800,7.592539794921875,-1.8378765219062565,-1.0104495466977357,1.2676941232174634
1772698534307496700,7.60249658203125,-3.2355063540697095,-0.748479110699892,0.7849958005838096
1772698534317453800,7.612453857421875,-3.4154631082475184,-0.07418108849823475,0.026880316809471696
1772698534327411000,7.622410888671875,-2.5948189250469205,0.882996302217245,-0.711743225107342
1772698534337367800,7.632367919921875,-1.1439496701270342,1.9700328295111655,-1.2493195314846932
1772698534347325000,7.642324951171875,0.12783387782853095,2.950564792329073,-1.405069626775384
1772698534357282000,7.652281982421875,0.9123077368974685,3.77467928198874,-1.3630522936485707
1772698534367238700,7.66223876953125,1.139009218050167,4.469177211654186,-1.214146292098984
1772698534377195800,7.67219580078125,0.9625625908851623,4.982780814030766,-0.8196621133606881
1772698534387153000,7.68215283203125,0.4368015177249908,4.94480208877027,-0.05880576991299167
1772698534397109800,7.69210986328125,-0.05161149276103824,4.595979298749566,0.8746396119561046
1772698534407067600,7.702067626953125,-0.6327864466398954,4.273292235982418,1.607025154532492
1772698534417024800,7.712024658203125,-0.9795593183934688,4.108522529542446,1.954961955498904
1772698534426982000,7.72198193359375,-0.9774375039339065,4.0367391498357055,1.7284274284109473
1772698534436938800,7.731938720703125,-0.7951847477734089,3.738011054804921,1.2887427564650773
1772698534446895900,7.741895751953125,-0.3496837907642126,3.574285888981819,0.8401967326715588
1772698534456853000,7.75185302734375,-0.04920507094012573,3.484442536449432,0.5442494274657219
1772698534466809900,7.761809814453125,0.17847849831879137,3.301276757097244,0.3603369213994592
1772698534476766700,7.7717666015625,0.43537469979226584,3.033255350497365,0.4184436579313129
1772698534486723800,7.781723876953125,0.7943956432223319,2.6452748545646667,0.5218944608598948
1772698534496681000,7.791680908203125,0.942117184227705,2.159119815605879,0.5045671131577343
1772698534506637800,7.801637939453125,0.7783294745624065,1.5004004708081482,0.3402602019239217
1772698534516595000,7.811594970703125,0.35472295397520065,0.6699141080290079,0.2626528653040528
1772698534526552000,7.821552001953125,0.1037736599410884,0.2948796029090881,0.08418269642218947
1772698534536508700,7.8315087890625,0.09607081221248955,0.3098416097193956,-0.4013234501738101
1772698534546465800,7.8414658203125,0.48366965188384053,0.4327735773831606,-0.9575179477814585
1772698534556424000,7.851423828125,1.2565537205219268,0.5329594602316617,-1.4321525717511772
1772698534566381000,7.861381103515625,2.012201407676935,0.5375894581198692,-1.7871657408446073
1772698534576338000,7.871337890625,2.5893174050211907,0.3020323972731829,-1.9470939986027775
1772698534586294800,7.881294677734375,2.6941958296000954,-0.4550678267776966,-1.7336378565356134
1772698534596252000,7.891251953125,1.9735750321626662,-1.6874942372590302,-1.1189550026673822
1772698534606208800,7.901208740234375,0.4035013056695461,-2.981879383525252,-0.4750803219106048
1772698534616166000,7.911165771484375,-1.6972446469008922,-3.863663387343287,0.35477705878261473
1772698534626123000,7.921123046875,-3.5814614796996116,-4.287913466531038,1.0674278637215495
1772698534636079900,7.931079833984375,-4.674350240153074,-3.7497961851447816,1.3199341596730052
1772698534646036700,7.94103662109375,-4.502671484977006,-2.5598072328984736,1.1276374908167868
1772698534655993900,7.950993896484375,-3.1526071215867995,-1.1855220359653234,0.6935764309063553
1772698534665950700,7.96095068359375,-1.3337445122301577,0.0461193616181612,0.34993736366648226
1772698534675907800,7.970907958984375,0.15734510939717292,1.1312135226726532,0.2261581315236166
1772698534685865000,7.980864990234375,1.11404260764122,2.003555744406581,0.36892844332978125
1772698534695822800,7.99082275390625,1.4508499656975269,2.565910225948691,0.45855775125268844
1772698534705779700,8.00077978515625,1.2054711835384369,2.572654439511895,0.506449931229651
1772698534715736800,8.01073681640625,0.6507903053641318,2.177510627821088,0.5094180237876251
1772698534725694000,8.02069384765625,0.029327764760516583,1.6770944237977266,0.326344781557098
1772698534735650800,8.03065087890625,-0.3525146302759647,1.2363923915028572,-0.1173179089079611
1772698534745608000,8.04060791015625,-0.3467980061948299,0.9728121822208166,-0.6370292718414217
1772698534755565000,8.05056494140625,-0.183688378454186,0.6884902136832475,-1.1912684706628323
1772698534765521700,8.060521728515624,-0.0985399788049981,0.40986733357012267,-1.5805882523752748
1772698534775478800,8.070478759765624,-0.36254860609956086,-0.043020811080932614,-1.531754371101409
1772698534785436000,8.080435791015624,-0.7228384734869003,-0.39396483103930946,-1.202616159433499
1772698534795392800,8.090392822265626,-0.8896879818756133,-0.4354419198095798,-0.7796924334786832
1772698534805350000,8.100349853515626,-0.6860392403345554,-0.3307341756224632,-0.5766674498591572
1772698534815307000,8.11030712890625,-0.3519582019696012,-0.2279997773349285,-0.5410714550167322
1772698534825263900,8.120263916015626,0.04593289913535118,-0.17609306448698042,-0.4538870194952935
1772698534835220700,8.130220703125,0.3261643104236573,-0.16258943979144094,-0.28938524327650667
1772698534845179000,8.140178955078126,-1.8805846137762068,0.017422843965888023,0.38406909464262423
1772698534855136000,8.150135986328126,-2.608328394961357,-0.41436464498937126,0.4710425908271223
1772698534865092900,8.1600927734375,1.6218495064377785,-1.2872902195692062,0.35474662711173294
1772698534875049700,8.1700498046875,1.0209634149927644,-0.5275251602232456,0.38955147157646713
1772698534885006800,8.1800068359375,-0.30528643063306804,0.046426235610246655,0.4566363182034343
1772698534894964000,8.1899638671875,-0.5609058901689946,0.32000761442482467,0.8077838248446584
1772698534904920800,8.1999208984375,0.2625497702557593,0.447950103726983,0.2596530441672541
1772698534914878000,8.2098779296875,-0.8785469215929508,0.09273556684255599,-1.2908813759289681
1772698534924835000,8.2198349609375,-0.41605566681623457,-0.14244798451662063,-0.8329699962884187
1772698534934791700,8.229791748046875,-0.13252747900485992,0.4251864832550287,-0.32364633625335987
1772698534944748800,8.239748779296875,-0.028046456245705485,0.7593301750600338,0.24436005183691156
1772698534954706000,8.249705810546875,-0.19579956241063773,0.7229319969892501,0.3720051108287647
1772698534964662800,8.259662841796874,-0.43615605942830443,0.3901245222240686,0.6423942329406738
1772698534974620000,8.269619873046874,-0.4032522993445396,0.18740648566186427,0.7721366112716496
1772698534984577000,8.279576904296874,-0.36932664886713024,0.03285246828794479,0.8531956957805902
1772698534994535000,8.289534912109374,-0.2054828981656581,0.0801999103963375,0.6299297420345247
1772698535004491800,8.29949169921875,-0.032526378138735886,0.29097908833920955,0.3286608399471268
1772698535014449000,8.309448974609374,-0.34064890898056327,0.17572481569647788,0.47172483747024085
1772698535024406000,8.319406005859374,-0.5415736323852092,0.1399433082193136,0.8002927384369075
1772698535034363000,8.32936279296875,0.4107246810518205,0.2493973701506853,-0.5320276592742651
1772698535044319700,8.33931982421875,0.1832043577969074,0.46560909453630445,-0.7983508836541324
1772698535054276900,8.34927685546875,0.31841355016641315,0.5803174237340688,-0.6856726720444858
1772698535064233700,8.359233642578126,0.28454635187797245,0.5944406416326761,-0.34302590377759185
1772698535074190800,8.36919091796875,0.5146422977745533,0.787823279094696,-0.6405687710791826
1772698535084148000,8.37914794921875,0.08639701147079468,1.1973738018006086,-0.5665500700684264
1772698535094104800,8.389104736328125,-0.07504683848209678,1.3321470139056444,-0.39713743319343775
1772698535104062500,8.3990625,0.22712175239138305,0.7603980965524911,-0.32867421088535337
1772698535114019600,8.40901953125,-0.04101239386796951,0.2384825929045677,0.047341121965460475
1772698535123976400,8.4189765625,-0.17768764020204544,-1.1987936054706574,1.1353450695194303
1772698535133934600,8.4289345703125,0.31661446485519407,-3.357068202424049,0.728707219389826
1772698535143891500,8.438891357421875,0.9368693467020988,-2.756120663115382,-0.8991111323244869
1772698535153848300,8.448848388671875,0.8253379670400172,-2.3869974278658628,-0.5602207209164276
1772698535163805400,8.458805419921875,0.7001111664373427,-2.133711233583093,-0.25780319678317754
1772698535173762600,8.468762451171875,0.5260357984483242,-1.8350497740477323,-0.19625015572234988
1772698535183719700,8.4787197265625,0.40868133865594863,-1.3234516662746667,0.12607125207018108
1772698535193676500,8.488676513671875,0.16333886991925536,-0.8168722634464501,0.5127557168429717
1772698535203633700,8.498633544921875,0.01647299589514732,-0.41076106753945346,0.6078876773027703
1772698535213590500,8.508590576171875,-0.07737319907043129,-0.14719547130465507,0.5620359536448494
1772698535223547400,8.51854736328125,-0.12308511239886283,-0.09251870922148227,0.38840186314992603
1772698535233504500,8.52850439453125,-0.0608896452486515,-0.06448036321699618,0.029600188493728637
1772698535243461600,8.538461669921874,-0.04183191182361915,0.0007113631397485733,-0.1885286946248263
1772698535253418500,8.54841845703125,-0.07996843972802162,0.1369154848307371,-0.22820622315984218
1772698535263375600,8.558375732421876,-0.10200723479045555,0.3234843506246805,-0.31929310947991907
1772698535273332500,8.56833251953125,-0.11978139467835426,0.4997574478536844,-0.3289099924026057
1772698535283290600,8.57829052734375,-0.15515315231084822,0.6212544142782688,-0.32048937005978073
1772698535293247500,8.58824755859375,-0.17025602889657018,0.7090951948165893,-0.3645410585584119
1772698535303204600,8.59820458984375,-0.07631986322575249,0.7932908968508243,-0.4056526750171557
1772698535313161700,8.60816162109375,-0.03261982857584953,0.8646703719317913,-0.46387562180720265
1772698535323118300,8.618118408203125,0.021442601001262662,0.9856652340531349,-0.3708824269417673
1772698535333075500,8.628075439453125,-0.002237549793720245,1.0439718770712614,-0.31103257306963206
1772698535343032600,8.638032470703125,0.03675239833593368,1.0207283641278744,-0.26045035029109564
1772698535352989400,8.647989501953125,-0.025363573837280273,0.8999977059006691,-0.028043131777457892
1772698535362946600,8.657946533203125,-0.07668459575176238,0.713331224951148,0.013879070411808789
1772698535372903700,8.667903564453125,0.0006792132941714953,0.5910065755307674,-0.1280602704629302
1772698535382860500,8.677860595703125,0.01631985344333807,0.23315116874873637,-0.11238105529397725
1772698535392817400,8.6878173828125,0.15639467680454253,0.025664018088579175,0.18715744280423968
1772698535402774500,8.6977744140625,-0.1447241127550602,0.35913726328611373,0.01539155733399093
1772698535412731600,8.707731689453125,-0.053608840590715405,0.046325697845220566,0.06085629096832126
1772698535422688500,8.7176884765625,0.15949264281988143,-0.2048591402441263,-0.008093801541253923
1772698535432646400,8.727646484375,0.049457566130161286,-0.09467325690686702,0.052413602924160654
1772698535442603500,8.737603515625,-0.014886608053115195,0.11848609417080878,0.13377729640286415
1772698535452560400,8.747560302734374,-0.11240122129917145,0.13301497026085854,0.18882888314779847
1772698535462517500,8.757517578125,-0.12557283756136894,0.22678747893571852,0.17164488943908363
1772698535472474600,8.767474609375,-0.12354337756037712,0.21282617360055445,0.11053597541656345
1772698535482431500,8.777431396484374,-0.127756611341238,0.12995149103701115,0.12330193348731845
1772698535492388600,8.787388671875,-0.045237318086624144,0.041862873217463493,0.10659063532426953
1772698535502345500,8.797345458984376,-0.03499065392699558,0.035382863548398015,0.06915452904049307
1772698535512302600,8.807302490234376,0.02962124041491188,0.13544132062494754,0.030345746164023874
1772698535522259500,8.817259521484376,0.04582067093253135,0.2308750405102968,-0.007470116684958338
1772698535532216600,8.827216552734376,0.019929858350753782,0.23725217432677745,0.09284509163163601
1772698535542173700,8.837173583984375,0.009444695560401305,0.19973054518401623,0.19407230022661387
1772698535552130600,8.847130615234375,0.03306523425579071,0.10990063665509223,0.1627982602365315
1772698535562087400,8.85708740234375,0.03495791613459587,0.037786417558789254,0.15831936125680804
1772698535572044500,8.86704443359375,0.002360299390554428,-0.018203180688619612,0.13791899931747464
1772698535582002700,8.877002685546875,0.06210545077919959,-0.07567395740449429,0.16021328524462877
1772698535591959600,8.88695947265625,0.08645900732371956,-0.10041852256059645,0.15111564042307435
1772698535601916700,8.896916748046875,0.07278700379133224,-0.12422025390863418,0.0631660657480359
1772698535611873500,8.90687353515625,0.09237199422717093,-0.017464929541945458,-0.05182477018553763
1772698535621830400,8.916830322265625,0.07831309200273827,0.08678922565877437,-0.08678630304932594
1772698535631787500,8.92678759765625,0.022649045048421246,0.05856266360580921,-0.0541360793352127
1772698535641744600,8.93674462890625,0.04027823437452316,-0.097000823071599,-0.019892193221487105
1772698535651701500,8.946701416015625,0.048967755052912974,-0.266380653655529,-0.00919431012906134
1772698535661658600,8.95665869140625,0.050243181816209105,-0.2942529954433441,-0.043669520780630404
1772698535671615500,8.966615478515624,0.08261868024216965,-0.21503099016845226,-0.022629363100416956
1772698535681572400,8.976572265625,0.06208440799117088,-0.05889467203915119,-0.033305527551379055
1772698535691529500,8.986529541015624,0.05705401260852813,0.15368015714883804,-0.06972904099281876
1772698535701486600,8.996486572265624,0.03245616244673729,0.3599830664604902,-0.00004758373508229851
1772698535711443500,9.006443359375,-0.005251344656944275,0.38313013329207896,0.044689840271696445
1772698535721400600,9.016400634765626,0.011833042868506163,0.2847434088200331,0.015488405304588377
1772698535731358500,9.0263583984375,0.011783961296081542,0.054012745216488835,0.012859390241559594
1772698535741315600,9.036315673828126,0.2138262905538082,-0.15054653529822826,0.036315157696139064
1772698535751272400,9.0462724609375,0.4796060557067394,-0.40541327677071093,-0.16849959541698917
1772698535761229600,9.0562294921875,0.4664776940643787,-0.4658557627737522,-0.38906021746080366
1772698535771186700,9.066186767578126,0.4565735551655292,-0.27892449340820313,-0.3820334240965545
1772698535781143600,9.0761435546875,0.4376724553406238,0.020693243938684464,-0.1278497695174068
1772698535791100400,9.086100341796875,0.34033085600733753,0.3711597095131874,0.23209048071466384
1772698535801057500,9.0960576171875,0.20233575924634933,0.5795563762336969,0.46445415234751997
1772698535811014400,9.106014404296875,0.08658288943171501,0.5435977586239576,0.6032112099243327
1772698535820971500,9.115971435546875,0.060113400179147715,0.2892243536263704,0.4454479847129434
1772698535830928600,9.1259287109375,0.11649638165831565,-0.009969605350494385,0.1624817416332662
1772698535840885800,9.1358857421875,0.20957973902523516,-0.31421383345425125,-0.1024332233838737
1772698535850842400,9.14584228515625,0.3388198669224977,-0.3441425232499838,-0.331635873702541
1772698535860799500,9.155799560546875,0.459570983415842,-0.16647709487974643,-0.31795992464739825
