time,seconds_elapsed,z,y,x
1772698526779943200,0.074943115234375,0.2167455554008484,-0.03592080995440483,0.09260468930006027
1772698526789900000,0.084900146484375,0.18633972108364105,-0.0356622189283371,0.07839325815439224
1772698526799858200,0.094858154296875,0.14369024336338043,-0.029275227338075638,0.06062966212630272
1772698526809815300,0.104815185546875,0.09782660752534866,-0.032818831503391266,0.04855728521943092
1772698526819772000,0.11477197265625,0.046842291951179504,-0.03209485486149788,0.036763615906238556
1772698526829729000,0.12472900390625,0.011711737141013145,-0.019130853936076164,0.01820458099246025
1772698526839686100,0.13468603515625,-0.01778331771492958,-0.006586878560483456,-0.0039631640538573265
1772698526849643300,0.144643310546875,-0.03089592419564724,0.0037073041312396526,-0.02639949694275856
1772698526859600100,0.15460009765625,-0.02360021322965622,0.007915562018752098,-0.047141846269369125
1772698526869557200,0.16455712890625,-0.010145658627152443,0.000416366383433342,-0.06920560449361801
1772698526879514000,0.17451416015625,-0.0016009024111554027,0.0007532676681876183,-0.08668262511491776
1772698526889471000,0.184470947265625,0.01696239411830902,-0.0024885982275009155,-0.09764845669269562
1772698526899428000,0.194427978515625,0.03951429948210716,-0.0034084885846823454,-0.09733250737190247
1772698526909386200,0.20438623046875,0.05465703085064888,-0.004601052030920982,-0.09837193787097931
1772698526919343000,0.214343017578125,0.06297226995229721,-0.0036008739843964577,-0.09029799699783325
1772698526929300000,0.224300048828125,0.056664302945137024,-0.0062744212336838245,-0.07891884446144104
1772698526939257000,0.234257080078125,0.03883226960897446,-0.009436797350645065,-0.07043305039405823
1772698526949214200,0.244214111328125,0.020724639296531677,-0.024252228438854218,-0.06282360106706619
1772698526959171000,0.254171142578125,0.01546437107026577,-0.0348941944539547,-0.05572022497653961
1772698526969128200,0.264128173828125,0.011058436706662178,-0.04044928401708603,-0.04976246505975723
1772698526979085300,0.274085205078125,0.009119156748056412,-0.03837296739220619,-0.04599551856517792
1772698526989042000,0.2840419921875,-0.001983561785891652,-0.038157518953084946,-0.04686930030584335
1772698526998999000,0.2939990234375,-0.01578916609287262,-0.041235215961933136,-0.05053174868226051
1772698527008956200,0.3039560546875,-0.019896559417247772,-0.047677669674158096,-0.04660358652472496
1772698527018914300,0.313914306640625,-0.021949077025055885,-0.05486481264233589,-0.05027852952480316
1772698527028871200,0.32387109375,-0.022780250757932663,-0.04924953728914261,-0.05526343733072281
1772698527038828000,0.333828125,-0.011558987200260162,-0.0546303391456604,-0.05434473603963852
1772698527048785200,0.34378515625,0.008061318658292294,-0.05691826343536377,-0.05043414980173111
1772698527058742000,0.353741943359375,0.022276220843195915,-0.06366613507270813,-0.03573098033666611
1772698527068699100,0.36369921875,0.025457367300987244,-0.06592955440282822,-0.023197880014777184
1772698527078656300,0.37365625,0.007072473410516977,-0.061874981969594955,-0.007413570769131184
1772698527088613000,0.383613037109375,-0.007381566800177097,-0.06255196034908295,0.007250859402120113
1772698527098570000,0.393570068359375,-0.011947562918066978,-0.05959746986627579,0.023058922961354256
1772698527108527000,0.403527099609375,-0.012152360752224922,-0.06091173738241196,0.040388114750385284
1772698527118484000,0.41348388671875,-0.0068473294377326965,-0.07301442325115204,0.04849756136536598
1772698527128442000,0.423442138671875,0.006890852935612202,-0.07645124197006226,0.0441369004547596
1772698527138399200,0.433399169921875,0.0130701819434762,-0.06477808207273483,0.02009817771613598
1772698527148356000,0.443356201171875,0.028415050357580185,-0.04899805411696434,-0.0034212619066238403
1772698527158313000,0.45331298828125,0.04976237937808037,-0.046456728130578995,-0.020472820848226547
1772698527168270000,0.46327001953125,0.06743592023849487,-0.05284804478287697,-0.03149617463350296
1772698527178227200,0.473227294921875,0.07085039466619492,-0.04594713822007179,-0.038598690181970596
1772698527188184000,0.48318408203125,0.06484576314687729,-0.03450832888484001,-0.03458743542432785
1772698527198141200,0.49314111328125,0.06376402825117111,-0.03525708243250847,-0.01973431557416916
1772698527208098000,0.50309814453125,0.0747319906949997,-0.03580276295542717,0.009996149688959122
1772698527218055000,0.513054931640625,0.09126808494329453,-0.04652916640043259,0.05304344743490219
1772698527228013000,0.523012939453125,0.10585954785346985,-0.07197700440883636,0.08936284482479095
1772698527237970200,0.53297021484375,0.11640219390392303,-0.09386368840932846,0.12906110286712646
1772698527247927300,0.54292724609375,0.10322274267673492,-0.11137477308511734,0.1396234631538391
1772698527257884000,0.5528837890625,0.06572248041629791,-0.10124900937080383,0.14185604453086853
1772698527267841000,0.562841064453125,0.02314332127571106,-0.08530519902706146,0.13628284633159637
1772698527277798100,0.572798095703125,-0.014970763586461544,-0.08995343744754791,0.12587110698223114
1772698527287755000,0.582755126953125,-0.02730199694633484,-0.10230731219053268,0.15015779435634613
1772698527297712000,0.592712158203125,0.00212996662594378,-0.09692279994487762,0.2039463073015213
1772698527307669200,0.602669189453125,0.050334248691797256,-0.08639878779649734,0.26039308309555054
1772698527317626000,0.612626220703125,0.10898901522159576,-0.053165555000305176,0.3299979865550995
1772698527327583000,0.6225830078125,0.18211515247821808,-0.045159026980400085,0.47123101353645325
1772698527337541000,0.632541015625,0.12984074652194977,-0.1326572746038437,0.647906482219696
1772698527347498200,0.642498291015625,0.1017846092581749,-0.22930417954921722,0.5378015637397766
1772698527357455000,0.652455078125,0.2111441195011139,-0.11416585743427277,0.23661872744560242
1772698527367412000,0.662411865234375,0.1301019936800003,0.026348374783992767,0.03594901040196419
1772698527377369000,0.672369140625,0.022048773244023323,0.04854477941989899,-0.023342346772551537
1772698527387326000,0.682325927734375,-0.10517122596502304,0.0728415995836258,-0.024832651019096375
1772698527397283000,0.692282958984375,-0.22179901599884033,0.14813269674777985,-0.0531897097826004
1772698527407240200,0.702240234375,-0.3056773841381073,0.21908171474933624,-0.09046037495136261
1772698527417197300,0.712197265625,-0.2993345856666565,0.23147201538085938,-0.1343022733926773
1772698527427154200,0.722154296875,-0.1932680606842041,0.1964980661869049,-0.20152178406715393
1772698527437111000,0.732111083984375,-0.046135060489177704,0.13078723847866058,-0.2682955265045166
1772698527447069200,0.742069091796875,0.06272910535335541,0.08685626834630966,-0.361738383769989
1772698527457026000,0.752026123046875,0.06742668151855469,0.02484065666794777,-0.490470290184021
1772698527466983200,0.761983154296875,-0.014299074187874794,0.013286799192428589,-0.6474876403808594
1772698527476940000,0.77193994140625,-0.11518841236829758,0.04120813310146332,-0.8121480345726013
1772698527486897200,0.781897216796875,-0.1581856906414032,0.28211742639541626,-1.1348546743392944
1772698527496854000,0.79185400390625,-0.23742245137691498,-0.03590239956974983,-0.9448044896125793
1772698527506811100,0.80181103515625,-0.28293269872665405,0.04811394214630127,-0.10957541316747665
1772698527516768300,0.811768310546875,-0.24972039461135864,-0.10867483913898468,0.5215819478034973
1772698527526725000,0.82172509765625,-0.1835688054561615,-0.2712711989879608,0.8059215545654297
1772698527536682200,0.83168212890625,-0.12994210422039032,-0.31352102756500244,0.7578597068786621
1772698527546639000,0.84163916015625,-0.08920104801654816,-0.30347079038619995,0.5484716296195984
1772698527556596000,0.851595947265625,-0.05084860324859619,-0.29533082246780396,0.292664110660553
1772698527566554000,0.86155419921875,-0.025909431278705597,-0.2204430103302002,0.06330972164869308
1772698527576511200,0.87151123046875,-0.0512416809797287,-0.15027295053005219,-0.054223332554101944
1772698527586468000,0.881468017578125,-0.12120026350021362,-0.1127713993191719,-0.0687524750828743
1772698527596425000,0.891425048828125,-0.22361554205417633,-0.07841703295707703,-0.053788263350725174
1772698527606382000,0.901382080078125,-0.29404789209365845,-0.050544656813144684,-0.05801976099610329
1772698527616339200,0.911339111328125,-0.3220055401325226,-0.060104962438344955,-0.10979451984167099
1772698527626296000,0.921296142578125,-0.29180607199668884,-0.11656318604946136,-0.17755520343780518
1772698527636253200,0.931253173828125,-0.18934069573879242,-0.18314328789710999,-0.23559658229351044
1772698527646210300,0.941210205078125,-0.040265996009111404,-0.2264193892478943,-0.23388150334358215
1772698527656167000,0.9511669921875,0.10396282374858856,-0.27119964361190796,-0.15543919801712036
1772698527666125000,0.961125,0.19340509176254272,-0.2986315190792084,-0.03805851191282272
1772698527676082200,0.971082275390625,0.2139950394630432,-0.2896181046962738,0.09532342106103897
1772698527686039300,0.981039306640625,0.18112416565418243,-0.23618340492248535,0.20005916059017181
1772698527695996200,0.99099609375,0.12481803447008133,-0.20354443788528442,0.2614171802997589
1772698527705953000,1.000953125,0.05134487897157669,-0.19477704167366028,0.26558101177215576
1772698527715910100,1.01091015625,-0.016763310879468918,-0.1911044716835022,0.19930694997310638
1772698527725867000,1.020866943359375,-0.0660909116268158,-0.18347105383872986,0.09835876524448395
1772698527735824100,1.03082421875,-0.08279457688331604,-0.20435039699077606,0.01147283986210823
1772698527745781200,1.04078125,-0.08506198972463608,-0.23768332600593567,-0.043309181928634644
1772698527755738000,1.050738037109375,-0.09049320220947266,-0.25466883182525635,-0.03524845466017723
1772698527765695000,1.060695068359375,-0.10604126751422882,-0.26807811856269836,0.016889050602912903
1772698527775652000,1.070652099609375,-0.1372324526309967,-0.27345654368400574,0.08635362982749939
1772698527785610200,1.0806103515625,-0.15518268942832947,-0.26958030462265015,0.15580567717552185
1772698527795567000,1.090567138671875,-0.14275643229484558,-0.24938707053661346,0.18703147768974304
1772698527805524200,1.100524169921875,-0.11186988651752472,-0.2011534869670868,0.17415402829647064
1772698527815481000,1.110481201171875,-0.05108959600329399,-0.11873601377010345,0.16170208156108856
1772698527825438000,1.12043798828125,0.022923912853002548,-0.028699325397610664,0.18637201189994812
1772698527835395000,1.13039501953125,0.059929024428129196,0.04380110278725624,0.2578599452972412
1772698527845352200,1.140352294921875,0.07471676170825958,0.09792932122945786,0.35374757647514343
1772698527855309000,1.15030908203125,0.07032577693462372,0.1196213960647583,0.43893805146217346
1772698527865266200,1.16026611328125,0.07251781970262527,0.14785809814929962,0.49960857629776
1772698527875223000,1.17022314453125,0.07755840569734573,0.15971429646015167,0.5486792325973511
1772698527885180000,1.180179931640625,0.07546383142471313,0.16070152819156647,0.5726732611656189
1772698527895138000,1.190137939453125,0.09732703119516373,0.16642168164253235,0.5699487924575806
1772698527905095200,1.20009521484375,0.1440223753452301,0.14392249286174774,0.5211775302886963
1772698527915052300,1.21005224609375,0.19715803861618042,0.10981573164463043,0.4529811441898346
1772698527925009000,1.2200087890625,0.2066197246313095,0.06416355818510056,0.39109301567077637
1772698527934966000,1.229966064453125,0.1468445062637329,0.04233536496758461,0.3478649854660034
1772698527944923100,1.239923095703125,0.0539553128182888,0.07806406915187836,0.34106990694999695
1772698527954880000,1.2498798828125,-0.03368881344795227,0.15334594249725342,0.34465110301971436
1772698527964837000,1.259837158203125,-0.044057030230760574,0.2554986774921417,0.3337753117084503
1772698527974794200,1.269794189453125,0.08818814903497696,0.366702139377594,0.29850342869758606
1772698527984751000,1.279751220703125,0.37575867772102356,0.4641610383987427,0.19558477401733398
1772698527994708000,1.2897080078125,0.7835956811904907,0.5163312554359436,0.06749672442674637
1772698528004666000,1.299666015625,1.2329192161560059,0.5172460675239563,-0.020978812128305435
1772698528014623200,1.309623291015625,1.57438325881958,0.4519740343093872,-0.014581949450075626
1772698528024580000,1.319580078125,1.6846442222595215,0.339507132768631,0.07913707941770554
1772698528034537000,1.329536865234375,1.5120656490325928,0.17949901521205902,0.21054403483867645
1772698528044494000,1.339494140625,1.1193835735321045,-0.04101470857858658,0.346023291349411
1772698528054451200,1.349451171875,0.5949186682701111,-0.28303465247154236,0.4604213237762451
1772698528064408000,1.359407958984375,0.04833819717168808,-0.4964662492275238,0.4751749634742737
1772698528074365200,1.369365234375,-0.39237180352211,-0.666717529296875,0.3603132963180542
1772698528084322300,1.379322265625,-0.6542039513587952,-0.7798648476600647,0.14857016503810883
1772698528094279400,1.389279541015625,-0.7438150644302368,-0.8581002950668335,-0.12337160110473633
1772698528104236500,1.399236572265625,-0.7457700967788696,-0.8933783769607544,-0.46157336235046387
1772698528114194700,1.409194580078125,-0.6957279443740845,-0.9613754749298096,-0.8295803666114807
1772698528124151600,1.419151611328125,-0.5719798803329468,-0.9696669578552246,-1.0792956352233887
1772698528134108400,1.4291083984375,-0.43380850553512573,-0.8931039571762085,-1.0619832277297974
1772698528144065500,1.4390654296875,-0.35447078943252563,-0.754166305065155,-0.7654317617416382
1772698528154022400,1.4490224609375,-0.3386409282684326,-0.5592806339263916,-0.3481276035308838
1772698528163979500,1.4589794921875,-0.367338627576828,-0.3427848219871521,-0.015875892713665962
1772698528173936600,1.4689365234375,-0.4028550386428833,-0.09875527769327164,0.1927552968263626
1772698528183893500,1.4788935546875,-0.4013711214065552,0.1370023936033249,0.3483496904373169
1772698528193850600,1.4888505859375,-0.3591339588165283,0.2899596691131592,0.47490352392196655
1772698528203807500,1.498807373046875,-0.2737048268318176,0.38295379281044006,0.565856397151947
1772698528213764400,1.508764404296875,-0.1770869642496109,0.42778903245925903,0.5818825364112854
1772698528223722500,1.518722412109375,-0.07573584467172623,0.4472029507160187,0.5152273178100586
1772698528233679600,1.5286796875,0.014318971894681454,0.4112679362297058,0.39444825053215027
1772698528243636700,1.53863671875,0.09029603004455566,0.33487677574157715,0.2749684751033783
1772698528253593300,1.54859326171875,0.16518622636795044,0.24584965407848358,0.2030232697725296
1772698528263550500,1.558550537109375,0.220768004655838,0.1328730285167694,0.1606859266757965
1772698528273507600,1.568507568359375,0.2352183312177658,0.0030572842806577682,0.11932849884033203
1772698528283464400,1.57846435546875,0.1801673322916031,-0.144179567694664,0.05541715770959854
1772698528293421600,1.588421630859375,0.03600030392408371,-0.2709004878997803,-0.0548957996070385
1772698528303378700,1.598378662109375,-0.17692527174949646,-0.36433589458465576,-0.18803387880325317
1772698528313335300,1.608335205078125,-0.4132235646247864,-0.42675960063934326,-0.32719168066978455
1772698528323292400,1.61829248046875,-0.6245669722557068,-0.46201667189598083,-0.44396063685417175
1772698528333249500,1.62824951171875,-0.7711057662963867,-0.4961252808570862,-0.5276122093200684
1772698528343207700,1.638207763671875,-0.8129690885543823,-0.4803130328655243,-0.5603275299072266
1772698528353164500,1.64816455078125,-0.7729538083076477,-0.4240371286869049,-0.5520209074020386
1772698528363121400,1.658121337890625,-0.6815482378005981,-0.34100669622421265,-0.497000515460968
1772698528373078500,1.66807861328125,-0.5140231847763062,-0.24721166491508484,-0.38635843992233276
1772698528383035400,1.678035400390625,-0.2580329179763794,-0.15173441171646118,-0.22932378947734833
1772698528392992500,1.687992431640625,0.03493451699614525,-0.05902229994535446,-0.04607788100838661
1772698528402949600,1.69794970703125,0.29755574464797974,0.03382774814963341,0.12025464326143265
1772698528412906800,1.70790673828125,0.47019168734550476,0.1503363996744156,0.20283912122249603
1772698528422863400,1.71786328125,0.5529595017433167,0.2582854926586151,0.18867802619934082
1772698528432820500,1.727820556640625,0.5722999572753906,0.32007429003715515,0.1160525307059288
1772698528442777600,1.737777587890625,0.5414472222328186,0.38106176257133484,-0.0006716912612318993
1772698528452735500,1.747735595703125,0.4856385886669159,0.4118008613586426,-0.14348562061786652
1772698528462692600,1.757692626953125,0.43675172328948975,0.3844512701034546,-0.24395416676998138
1772698528472649500,1.7676494140625,0.41220349073410034,0.34518852829933167,-0.2528144419193268
1772698528482606300,1.7776064453125,0.39757317304611206,0.3061330020427704,-0.15525086224079132
1772698528492563500,1.7875634765625,0.34607481956481934,0.2515789568424225,0.03023008443415165
1772698528502520600,1.7975205078125,0.22735081613063812,0.19751569628715515,0.28169161081314087
1772698528512477700,1.807477783203125,0.08334973454475403,0.14669069647789001,0.5778769254684448
1772698528522434600,1.8174345703125,-0.050197944045066833,0.0836973488330841,0.8786535263061523
1772698528532391400,1.827391357421875,-0.15099595487117767,0.006033077370375395,1.1358028650283813
1772698528542348500,1.8373486328125,-0.178354874253273,-0.03512367978692055,1.288360357284546
1772698528552305400,1.847305419921875,-0.1393699049949646,-0.005225668661296368,1.3047794103622437
1772698528562262500,1.857262451171875,-0.0778234675526619,0.15461939573287964,1.272228717803955
1772698528572220700,1.867220703125,-0.04879661276936531,0.367986261844635,1.2560408115386963
1772698528582177500,1.877177490234375,-0.0007579784141853452,0.5894448757171631,1.2554434537887573
1772698528592134400,1.887134521484375,0.09329663217067719,0.7192372679710388,1.16557776927948
1772698528602091500,1.897091552734375,0.28870368003845215,0.775027871131897,0.9012576341629028
1772698528612048600,1.907048583984375,0.5668734908103943,0.7191924452781677,0.49841392040252686
1772698528622005500,1.917005615234375,0.7806366086006165,0.46926912665367126,0.013017116114497185
1772698528631962600,1.926962646484375,0.7937865257263184,0.08542807400226593,-0.5578859448432922
1772698528641919500,1.93691943359375,0.560619056224823,-0.29739654064178467,-1.092251181602478
1772698528651876400,1.94687646484375,0.10614372044801712,-0.4878860116004944,-1.4890824556350708
1772698528661833500,1.95683349609375,-0.47636470198631287,-0.5173176527023315,-1.5908149480819702
1772698528671790600,1.96679052734375,-1.020189881324768,-0.4174440801143646,-1.1860533952713013
1772698528681748700,1.976748779296875,-1.3882131576538086,-0.3232371509075165,-0.3448907732963562
1772698528691705300,1.986705322265625,-1.540272831916809,-0.24733169376850128,0.5352722406387329
1772698528701662500,1.996662353515625,-1.459507942199707,-0.14765597879886627,0.9632981419563293
1772698528711619600,2.00661962890625,-1.1417573690414429,-0.018234863877296448,0.8315030336380005
1772698528721576400,2.016576416015625,-0.6878127455711365,0.04326631501317024,0.2842761278152466
1772698528731533600,2.026533447265625,-0.21743512153625488,0.0418655164539814,-0.3700207769870758
1772698528741490700,2.03649072265625,0.14553962647914886,0.05117885395884514,-0.8822691440582275
1772698528751447600,2.046447509765625,0.3542208969593048,0.08039527386426926,-1.1115295886993408
1772698528761404400,2.056404296875,0.40117454528808594,0.104257732629776,-1.0678151845932007
1772698528771361500,2.066361572265625,0.31419751048088074,0.08236927539110184,-0.8908301591873169
1772698528781318400,2.076318359375,0.11941739171743393,0.024413833394646645,-0.7152321934700012
1772698528791275500,2.086275634765625,-0.12864001095294952,-0.07908649742603302,-0.5896359086036682
1772698528801233400,2.0962333984375,-0.37062573432922363,-0.18517857789993286,-0.4964739680290222
1772698528811190500,2.1061904296875,-0.5784146189689636,-0.2683238089084625,-0.4477198123931885
1772698528821147400,2.1161474609375,-0.7434091567993164,-0.3270377218723297,-0.4090280830860138
1772698528831104500,2.1261044921875,-0.8370528221130371,-0.3490777313709259,-0.3569270968437195
1772698528841061600,2.1360615234375,-0.8458484411239624,-0.3551881015300751,-0.25627851486206055
1772698528851018500,2.1460185546875,-0.7717623114585876,-0.3353080153465271,-0.1032799631357193
1772698528860975600,2.1559755859375,-0.6168390512466431,-0.2906430661678314,0.07386232167482376
1772698528870932500,2.165932373046875,-0.4039456844329834,-0.22468721866607666,0.22841781377792358
1772698528880889300,2.175889404296875,-0.17851625382900238,-0.14740176498889923,0.31476709246635437
1772698528890846500,2.185846435546875,0.016047140583395958,-0.05087105557322502,0.323243111371994
1772698528900803600,2.195803466796875,0.16699591279029846,0.05181058123707771,0.2779344916343689
1772698528910761500,2.205761474609375,0.27589860558509827,0.12633754312992096,0.21633216738700867
1772698528920718300,2.21571826171875,0.35504481196403503,0.1859137862920761,0.13514383137226105
1772698528930675500,2.225675537109375,0.439615398645401,0.2234804332256317,0.04116615653038025
1772698528940632600,2.235632568359375,0.5236240029335022,0.24385040998458862,-0.026191575452685356
1772698528950589400,2.24558935546875,0.5983954668045044,0.2343810647726059,-0.056861214339733124
1772698528960546600,2.255546630859375,0.6388944387435913,0.19825422763824463,-0.04798410087823868
1772698528970503700,2.265503662109375,0.6588431000709534,0.20176582038402557,0.04477790370583534
1772698528980460500,2.27546044921875,0.622416079044342,0.17814438045024872,0.22795811295509338
1772698528990417400,2.28541748046875,0.5158859491348267,0.09739552438259125,0.445642352104187
1772698529000374500,2.29537451171875,0.3496685028076172,0.009988449513912201,0.6486191749572754
1772698529010331600,2.30533154296875,0.14752234518527985,-0.060697298496961594,0.7737180590629578
1772698529020288500,2.31528857421875,-0.07942051440477371,-0.14619222283363342,0.7541869878768921
1772698529030246400,2.325246337890625,-0.28704139590263367,-0.2656881511211395,0.6198158860206604
1772698529040203500,2.33520361328125,-0.38154393434524536,-0.358412504196167,0.4620102643966675
1772698529050160600,2.34516064453125,-0.3226768672466278,-0.3918962776660919,0.3704092502593994
1772698529060117500,2.355117431640625,-0.17703044414520264,-0.3937080204486847,0.3581954538822174
1772698529070074600,2.36507470703125,-0.043893177062273026,-0.3633089065551758,0.47986167669296265
1772698529080031700,2.37503173828125,-0.0007193393539637327,-0.3424113392829895,0.7074521780014038
1772698529089988400,2.38498828125,-0.07263240218162537,-0.29290342330932617,0.9209452271461487
1772698529099945500,2.394945556640625,-0.1815226525068283,-0.18058380484580994,1.0186028480529785
1772698529109902600,2.404902587890625,-0.20940841734409332,0.05621526390314102,0.9775162935256958
1772698529119859500,2.414859375,-0.09796443581581116,0.30447858572006226,0.817817211151123
1772698529129816600,2.424816650390625,0.1581224650144577,0.5072226524353027,0.5291433930397034
1772698529139773700,2.434773681640625,0.5258530974388123,0.598730206489563,0.1326754093170166
1772698529149731600,2.444731689453125,0.8853648900985718,0.5231246948242188,-0.2954697906970978
1772698529159688400,2.4546884765625,1.1037583351135254,0.36733004450798035,-0.6637591123580933
1772698529169645600,2.4646455078125,1.0814820528030396,0.21704305708408356,-0.9794661402702332
1772698529179602700,2.474602783203125,0.795897901058197,0.08270841836929321,-1.2816625833511353
1772698529189559600,2.4845595703125,0.3265455961227417,-0.03160718455910683,-1.5637314319610596
1772698529199516400,2.494516357421875,-0.1589404195547104,-0.11542245745658875,-1.7494198083877563
1772698529209473500,2.5044736328125,-0.5468934774398804,-0.20239943265914917,-1.7191436290740967
1772698529219430400,2.514430419921875,-0.8283398151397705,-0.3292926847934723,-1.5359280109405518
1772698529229387500,2.524387451171875,-1.0281751155853271,-0.40869832038879395,-1.3530664443969727
1772698529239344600,2.5343447265625,-1.1485636234283447,-0.33618468046188354,-1.2484036684036255
1772698529249301500,2.544301513671875,-1.1465864181518555,-0.16610412299633026,-1.1298943758010864
1772698529259259400,2.55425927734375,-0.9350273609161377,0.03290512040257454,-0.9574613571166992
1772698529269216500,2.564216552734375,-0.5627837777137756,0.184663787484169,-0.7309284210205078
1772698529279173600,2.574173583984375,-0.14065279066562653,0.24745287001132965,-0.5052475929260254
1772698529289130500,2.584130615234375,0.20831911265850067,0.26710692048072815,-0.32071352005004883
1772698529299087600,2.594087646484375,0.4016305208206177,0.24088624119758606,-0.20152294635772705
1772698529309044500,2.60404443359375,0.4389187693595886,0.1664724349975586,-0.12885266542434692
1772698529319001300,2.61400146484375,0.3567759692668915,0.07507194578647614,-0.06937763094902039
1772698529328958500,2.62395849609375,0.20043402910232544,-0.019079294055700302,-0.032472942024469376
1772698529338915600,2.63391552734375,0.007066431455314159,-0.09074123203754425,-0.02689335308969021
1772698529348872400,2.64387255859375,-0.15960782766342163,-0.18237416446208954,-0.050434719771146774
1772698529358829600,2.65382958984375,-0.23400110006332397,-0.25578421354293823,-0.08994244784116745
1772698529368786700,2.66378662109375,-0.2218085676431656,-0.30542343854904175,-0.1227802038192749
1772698529378744600,2.67374462890625,-0.17952528595924377,-0.34814295172691345,-0.13838951289653778
1772698529388701400,2.683701416015625,-0.11805614829063416,-0.3612388074398041,-0.13716460764408112
1772698529398658600,2.693658447265625,-0.05727669224143028,-0.3567140996456146,-0.1410757154226303
1772698529408615700,2.70361572265625,-0.001015453482978046,-0.3409244120121002,-0.16772142052650452
1772698529418572500,2.713572509765625,0.051443226635456085,-0.32905974984169006,-0.21555392444133759
1772698529428529400,2.723529296875,0.08485069870948792,-0.29852667450904846,-0.28376153111457825
1772698529438486500,2.733486572265625,0.08385360985994339,-0.2802443504333496,-0.3452126383781433
1772698529448443400,2.743443359375,0.06657818704843521,-0.294377863407135,-0.3466562330722809
1772698529458400500,2.753400390625,0.032664425671100616,-0.30279290676116943,-0.29705220460891724
1772698529468357600,2.763357666015625,-0.008186869323253632,-0.309617280960083,-0.20021164417266846
1772698529478314800,2.773314697265625,-0.04621441289782524,-0.2982751429080963,-0.07228323817253113
1772698529488271400,2.783271240234375,-0.09711700677871704,-0.25884464383125305,0.07359060645103455
1772698529498228500,2.793228515625,-0.15162712335586548,-0.2046956568956375,0.21087682247161865
1772698529508186600,2.8031865234375,-0.17676042020320892,-0.11911971867084503,0.30179354548454285
1772698529518143500,2.8131435546875,-0.16897600889205933,-0.023732218891382217,0.3387475609779358
1772698529528100600,2.8231005859375,-0.12418053299188614,0.05088355764746666,0.3519098460674286
1772698529538057500,2.833057373046875,-0.048935048282146454,0.12319344282150269,0.3356904089450836
1772698529548014600,2.8430146484375,0.060288362205028534,0.18205991387367249,0.34176918864250183
1772698529557971500,2.852971435546875,0.18056897819042206,0.2293882817029953,0.3810441792011261
1772698529567928600,2.862928466796875,0.30302220582962036,0.27372413873672485,0.450310081243515
1772698529577885700,2.8728857421875,0.39578065276145935,0.2882862985134125,0.5558841824531555
1772698529587842600,2.882842529296875,0.4907984733581543,0.30007439851760864,0.7101773619651794
1772698529597799400,2.89279931640625,0.5758329629898071,0.29762643575668335,0.8642209768295288
1772698529607756500,2.902756591796875,0.6023308634757996,0.2627975642681122,0.9889329671859741
1772698529617714700,2.912714599609375,0.46972858905792236,0.18084169924259186,1.081113338470459
1772698529627671600,2.922671630859375,0.18940721452236176,0.11174636334180832,1.1894476413726807
1772698529637628700,2.932628662109375,-0.17590685188770294,0.10695000737905502,1.3353073596954346
1772698529647585500,2.94258544921875,-0.534684419631958,0.18766184151172638,1.5507621765136719
1772698529657542400,2.95254248046875,-0.8343188166618347,0.2226235568523407,1.7279508113861084
1772698529667499500,2.96249951171875,-1.006894826889038,0.2500987648963928,1.6344549655914307
1772698529677456600,2.97245654296875,-1.013838291168213,0.2790167033672333,1.1207900047302246
1772698529687413500,2.98241357421875,-0.7616496682167053,0.2777254283428192,0.44698435068130493
1772698529697370600,2.99237060546875,-0.34443408250808716,0.28443819284439087,-0.022465139627456665
1772698529707327500,3.002327392578125,0.05592260882258415,0.24538123607635498,-0.2136385440826416
1772698529717284400,3.012284423828125,0.3110361397266388,0.18319137394428253,-0.24835391342639923
1772698529727241500,3.022241455078125,0.4166080951690674,0.19179953634738922,-0.21494466066360474
1772698529737199600,3.03219970703125,0.38520997762680054,0.264349102973938,-0.1242312639951706
1772698529747156700,3.04215673828125,0.2900243401527405,0.3269083499908447,0.018840400502085686
1772698529757113300,3.05211328125,0.2287532538175583,0.3292820155620575,0.1332777589559555
1772698529767070500,3.062070556640625,0.21589286625385284,0.2834714651107788,0.12854914367198944
1772698529777027600,3.072027587890625,0.22539502382278442,0.20071132481098175,-0.00003173528239130974
1772698529786984400,3.081984375,0.2636111378669739,0.10388550907373428,-0.22468632459640503
1772698529796941600,3.091941650390625,0.29991188645362854,0.009178176522254944,-0.4638057053089142
1772698529806898700,3.101898681640625,0.3331241309642792,-0.09425461292266846,-0.5933778882026672
1772698529816855600,3.11185546875,0.3778170347213745,-0.17486795783042908,-0.55918288230896
1772698529826812400,3.1218125,0.42290836572647095,-0.2378118932247162,-0.4270690083503723
1772698529836769500,3.13176953125,0.423347532749176,-0.32756921648979187,-0.2723204493522644
1772698529846726400,3.141726318359375,0.370570570230484,-0.4192901849746704,-0.17183557152748108
1772698529856684500,3.1516845703125,0.2539571523666382,-0.4931047558784485,-0.1488431692123413
1772698529866641400,3.161641357421875,0.09898357838392258,-0.5542055368423462,-0.18703089654445648
1772698529876598500,3.1715986328125,-0.07863861322402954,-0.5588386058807373,-0.24791449308395386
1772698529886555400,3.181555419921875,-0.24848440289497375,-0.5041562914848328,-0.31351104378700256
1772698529896512500,3.191512451171875,-0.39131638407707214,-0.4228888750076294,-0.380609929561615
1772698529906469600,3.2014697265625,-0.4722125232219696,-0.34828081727027893,-0.41803333163261414
1772698529916426500,3.211426513671875,-0.46096545457839966,-0.2714286744594574,-0.3852173388004303
1772698529926383600,3.221383544921875,-0.3460327386856079,-0.2021593153476715,-0.265169233083725
1772698529936340500,3.231340576171875,-0.15475308895111084,-0.12253585457801819,-0.07188524305820465
1772698529946297600,3.241297607421875,0.05866143852472305,-0.07921510934829712,0.1477895975112915
1772698529956254500,3.25125439453125,0.2464321404695511,-0.04338253661990166,0.34256282448768616
1772698529966211600,3.261211669921875,0.3812914192676544,0.0016105026006698608,0.4504421353340149
1772698529976169500,3.27116943359375,0.43304169178009033,0.06642891466617584,0.44711291790008545
1772698529986126300,3.281126220703125,0.4256508946418762,0.13951779901981354,0.37558192014694214
1772698529996083500,3.29108349609375,0.38099047541618347,0.22373467683792114,0.2942788004875183
1772698530006040600,3.30104052734375,0.33278220891952515,0.28992459177970886,0.23921643197536469
1772698530015997400,3.31099755859375,0.29023581743240356,0.3300429880619049,0.18731647729873657
1772698530025954600,3.32095458984375,0.2722325623035431,0.3333500027656555,0.14718185365200043
1772698530035911700,3.33091162109375,0.27604061365127563,0.324493408203125,0.11528225243091583
1772698530045868500,3.34086865234375,0.30415961146354675,0.30340179800987244,0.09240997582674026
1772698530055825400,3.350825439453125,0.34993404150009155,0.2753184735774994,0.09989053010940552
1772698530065782500,3.360782470703125,0.41015926003456116,0.24737326800823212,0.12344471365213394
1772698530075739600,3.37073974609375,0.4628554880619049,0.2119726687669754,0.14256355166435242
1772698530085696500,3.380696533203125,0.48349475860595703,0.1817895919084549,0.14338497817516327
1772698530095655000,3.390655029296875,0.44954371452331543,0.15790264308452606,0.1866496205329895
1772698530105612800,3.40061279296875,0.3415983021259308,0.11683928966522217,0.20728883147239685
1772698530115570000,3.41056982421875,0.1425669640302658,0.09899105131626129,0.20226745307445526
1772698530125526800,3.42052685546875,-0.13943888247013092,0.051600631326436996,0.15368978679180145
1772698530135484000,3.43048388671875,-0.42692604660987854,-0.03366899490356445,0.10231315344572067
1772698530145440800,3.440440673828125,-0.5879703164100647,-0.09300433844327927,0.1313190460205078
1772698530155398000,3.45039794921875,-0.5798905491828918,-0.15295235812664032,0.3119777739048004
1772698530165355000,3.46035498046875,-0.5356231927871704,-0.21456710994243622,0.5774257779121399
1772698530175312000,3.470311767578125,-0.5367398858070374,-0.2315215915441513,0.7604954242706299
1772698530185269000,3.48026904296875,-0.5698906183242798,-0.20148000121116638,0.7278984189033508
1772698530195225900,3.490225830078125,-0.5470332503318787,-0.1175139918923378,0.4514676332473755
1772698530205182700,3.5001826171875,-0.4238087832927704,-0.028633348643779755,-0.029302289709448814
1772698530215140900,3.510140869140625,-0.21269626915454865,-0.07754655927419662,-0.5485052466392517
1772698530225098000,3.520097900390625,-0.021750587970018387,-0.22099651396274567,-0.9049626588821411
1772698530235054800,3.530054931640625,0.05043705552816391,-0.30017146468162537,-1.067714810371399
1772698530245011700,3.54001171875,-0.07024914026260376,-0.2923995554447174,-1.149117112159729
1772698530254968800,3.54996875,-0.33807337284088135,-0.24061916768550873,-1.2716706991195679
1772698530264926000,3.559926025390625,-0.5921487808227539,-0.1434536874294281,-1.3888276815414429
1772698530274882800,3.5698828125,-0.6757965683937073,-0.0474078394472599,-1.3123589754104614
1772698530284840000,3.57983984375,-0.5303112864494324,0.022010616958141327,-0.9769324064254761
1772698530294797000,3.589797119140625,-0.2736169099807739,0.030013948678970337,-0.46157583594322205
1772698530304753700,3.599753662109375,-0.02515542134642601,0.06637381762266159,0.006359939929097891
1772698530314710800,3.609710693359375,0.18336369097232819,0.15895569324493408,0.268299400806427
1772698530324668000,3.61966796875,0.3591075837612152,0.2638622522354126,0.31322765350341797
1772698530334624800,3.629624755859375,0.5174224376678467,0.34598907828330994,0.27093905210494995
1772698530344583000,3.6395830078125,0.6375418305397034,0.35107630491256714,0.21886712312698364
1772698530354539800,3.649539794921875,0.7011061906814575,0.27228614687919617,0.18993374705314636
1772698530364497000,3.659496826171875,0.7085182666778564,0.14755181968212128,0.15814848244190216
1772698530374453800,3.669453857421875,0.650119423866272,0.04178144782781601,0.11203985661268234
1772698530384411000,3.679410888671875,0.513240396976471,-0.0339634008705616,0.05035312473773956
1772698530394368000,3.689367919921875,0.31004175543785095,-0.08971161395311356,-0.028454072773456573
1772698530404324900,3.699324951171875,0.12674885988235474,-0.16558870673179626,-0.10260499268770218
1772698530414281700,3.70928173828125,0.022684499621391296,-0.23045799136161804,-0.14114226400852203
1772698530424238800,3.71923876953125,-0.022448869422078133,-0.32372260093688965,-0.15901948511600494
1772698530434195700,3.72919580078125,-0.02713709883391857,-0.438759446144104,-0.16089116036891937
1772698530444152800,3.73915283203125,-0.0015227791154757142,-0.5354995131492615,-0.14885352551937103
1772698530454110000,3.74910986328125,0.004949500784277916,-0.6002670526504517,-0.13997907936573029
1772698530464067800,3.75906787109375,-0.05519137158989906,-0.645042896270752,-0.17041648924350739
1772698530474024700,3.769024658203125,-0.17534653842449188,-0.6560622453689575,-0.2532389163970947
1772698530483981800,3.77898193359375,-0.327778160572052,-0.6273011565208435,-0.372881144285202
1772698530493939000,3.78893896484375,-0.48583704233169556,-0.5625176429748535,-0.492436021566391
1772698530503895800,3.798895751953125,-0.6267387270927429,-0.47465723752975464,-0.5923952460289001
1772698530513853000,3.80885302734375,-0.71317458152771,-0.35139229893684387,-0.6460987329483032
1772698530523809800,3.818809814453125,-0.7149825692176819,-0.20824016630649567,-0.6258760690689087
1772698530533766700,3.8287666015625,-0.6396976709365845,-0.08850684016942978,-0.5682895183563232
1772698530543723800,3.838723876953125,-0.4836447238922119,0.032131824642419815,-0.49076926708221436
1772698530553681000,3.848680908203125,-0.2731596529483795,0.17499816417694092,-0.3776666820049286
1772698530563638000,3.858637939453125,-0.06479660421609879,0.2879817485809326,-0.2622131407260895
1772698530573595000,3.868594970703125,0.13036729395389557,0.3897653818130493,-0.17576266825199127
1772698530583552000,3.878552001953125,0.29748255014419556,0.48295581340789795,-0.10980034619569778
1772698530593510000,3.888510009765625,0.4372905194759369,0.5784115195274353,-0.06887795031070709
1772698530603466800,3.898466796875,0.5385265946388245,0.6628683805465698,-0.0024874533992260695
1772698530613423900,3.908423828125,0.576598584651947,0.7007073760032654,0.08219041675329208
1772698530623381000,3.918381103515625,0.5712096691131592,0.7067128419876099,0.17286184430122375
1772698530633337900,3.928337890625,0.543121337890625,0.6780825257301331,0.2513987123966217
1772698530643294700,3.938294677734375,0.4786140024662018,0.629972517490387,0.3421015441417694
1772698530653251800,3.948251953125,0.38810381293296814,0.5381573438644409,0.47099775075912476
1772698530663209000,3.958208984375,0.2628726661205292,0.4556282162666321,0.6269935369491577
1772698530673165800,3.968165771484375,0.10697761923074722,0.384208619594574,0.8192172646522522
1772698530683123000,3.978123046875,-0.022671496495604515,0.3536628186702728,1.0497615337371826
1772698530693080000,3.988080078125,-0.06403784453868866,0.4054029881954193,1.2771430015563965
1772698530703036700,3.99803662109375,-0.0008796384790912271,0.5220063328742981,1.457875370979309
1772698530712994800,4.007994873046875,0.14894233644008636,0.6700008511543274,1.5606557130813599
1772698530722952000,4.017951904296875,0.30719828605651855,0.7203699946403503,1.5814368724822998
1772698530732909000,4.027908935546875,0.41783106327056885,0.7374632358551025,1.4754692316055298
1772698530742866000,4.037865966796875,0.43860214948654175,0.7574626207351685,1.146299958229065
1772698530752822800,4.04782275390625,0.3834560811519623,0.7137013077735901,0.5229282975196838
1772698530762780000,4.05777978515625,0.31471458077430725,0.6035346388816833,-0.2699269950389862
1772698530772736800,4.06773681640625,0.2504594326019287,0.4462251663208008,-0.9517444372177124
1772698530782694000,4.07769384765625,0.12291204929351807,0.18937690556049347,-1.357911229133606
1772698530792651000,4.087651123046875,-0.14979350566864014,-0.10568162798881531,-1.5134878158569336
1772698530802607900,4.09760791015625,-0.5735942721366882,-0.3261662721633911,-1.4486048221588135
1772698530812564700,4.107564697265625,-1.0757557153701782,-0.4660149812698364,-1.166656732559204
1772698530822521900,4.11752197265625,-1.5428613424301147,-0.5235118269920349,-0.7368943691253662
1772698530832480000,4.12747998046875,-1.8438526391983032,-0.5453073978424072,-0.2718936800956726
1772698530842436900,4.137436767578125,-1.8912746906280518,-0.44922372698783875,0.015689987689256668
1772698530852394000,4.14739404296875,-1.6751972436904907,-0.3685011863708496,0.03206203877925873
1772698530862350800,4.157350830078125,-1.2345227003097534,-0.2880855202674866,-0.17442373931407928
1772698530872307700,4.1673076171875,-0.6888713836669922,-0.21146878600120544,-0.5090219974517822
1772698530882264800,4.177264892578125,-0.18468411266803741,-0.1421048790216446,-0.8678840398788452
1772698530892222000,4.187221923828125,0.2022673338651657,-0.07638072967529297,-1.1155356168746948
1772698530902178800,4.1971787109375,0.48004916310310364,-0.04840732365846634,-1.163257122039795
1772698530912136000,4.207135986328125,0.628967821598053,-0.05075276643037796,-1.0405488014221191
1772698530922092800,4.2170927734375,0.6508512496948242,-0.09554237872362137,-0.8490950465202332
1772698530932049700,4.227049560546875,0.5778796076774597,-0.18438036739826202,-0.6725195050239563
1772698530942006800,4.2370068359375,0.41410717368125916,-0.2950025498867035,-0.5532826781272888
1772698530951964000,4.2469638671875,0.1814267635345459,-0.40169811248779297,-0.4753708243370056
1772698530961922000,4.256922119140625,-0.1067538633942604,-0.4855595827102661,-0.41305479407310486
1772698530971878700,4.266878662109375,-0.4055248498916626,-0.5301957726478577,-0.3450016975402832
1772698530981835800,4.276835693359375,-0.6502712368965149,-0.5570748448371887,-0.26858001947402954
1772698530991793000,4.28679296875,-0.7965139150619507,-0.5637249946594238,-0.152809739112854
1772698531001749800,4.296749755859375,-0.8362456560134888,-0.5480716824531555,-0.007331050932407379
1772698531011707000,4.306706787109375,-0.7871624827384949,-0.5297682881355286,0.13178129494190216
1772698531021664000,4.3166640625,-0.6310115456581116,-0.4937642514705658,0.2547304034233093
1772698531031620900,4.326620849609375,-0.3953489065170288,-0.4293655753135681,0.33355891704559326
1772698531041577700,4.33657763671875,-0.12797953188419342,-0.33894917368888855,0.36460167169570923
1772698531051534800,4.346534912109375,0.12790443003177643,-0.22511233389377594,0.35364675521850586
1772698531061492000,4.356491943359375,0.33926650881767273,-0.09226522594690323,0.31470242142677307
1772698531071448800,4.36644873046875,0.49111995100975037,0.03134113922715187,0.25926685333251953
1772698531081406000,4.376406005859375,0.5849987268447876,0.12703052163124084,0.1825817972421646
1772698531091363000,4.386363037109375,0.632997989654541,0.20435860753059387,0.10695628821849823
1772698531101319700,4.396319580078125,0.6488603353500366,0.24291329085826874,0.07434685528278351
1772698531111276800,4.40627685546875,0.6363953948020935,0.24719113111495972,0.08211743086576462
1772698531121234000,4.41623388671875,0.6085461378097534,0.23696452379226685,0.10741554200649261
1772698531131190800,4.426190673828125,0.584212064743042,0.21621903777122498,0.15819349884986877
1772698531141148000,4.43614794921875,0.5462023615837097,0.18912069499492645,0.22172953188419342
1772698531151105000,4.44610498046875,0.48853155970573425,0.15495233237743378,0.30045098066329956
1772698531161062000,4.456061767578125,0.4278493821620941,0.13574814796447754,0.37380996346473694
1772698531171018800,4.466018798828125,0.384373277425766,0.11537762731313705,0.4471885859966278
1772698531180975900,4.475975830078125,0.3677580654621124,0.10809949040412903,0.47263771295547485
1772698531190932700,4.4859326171875,0.35906150937080383,0.10770640522241592,0.4467802941799164
1772698531200889900,4.495889892578125,0.40966686606407166,0.11128082126379013,0.39715173840522766
1772698531210847700,4.50584765625,0.49750274419784546,0.09583847969770432,0.34500783681869507
1772698531220804900,4.515804931640625,0.625606119632721,0.09813632071018219,0.3344990611076355
1772698531230761700,4.52576171875,0.7130219340324402,0.10220137238502502,0.3954811692237854
1772698531240718800,4.53571875,0.7205810546875,0.08657904714345932,0.4936305284500122
1772698531250676000,4.545676025390625,0.617839515209198,0.05905075743794441,0.5688320398330688
1772698531260632800,4.5556328125,0.4245968163013458,0.036083027720451355,0.5790876746177673
1772698531270590000,4.56558984375,0.15682555735111237,0.024049799889326096,0.5346828699111938
1772698531280546800,4.575546875,-0.11852078139781952,0.04480861872434616,0.4490305483341217
1772698531290504000,4.58550390625,-0.3427501618862152,0.012357469648122787,0.3304887115955353
1772698531300460800,4.595460693359375,-0.5002228617668152,-0.10147292912006378,0.1711503565311432
1772698531310418000,4.60541796875,-0.6350235939025879,-0.29701709747314453,0.000849451869726181
1772698531320375000,4.615375,-0.778931736946106,-0.4565439224243164,-0.16892066597938538
1772698531330332000,4.625331787109375,-0.9164049029350281,-0.5073842406272888,-0.3297439217567444
1772698531340289800,4.635289794921875,-1.0191328525543213,-0.45748940110206604,-0.5085252523422241
1772698531350247000,4.645246826171875,-1.0074442625045776,-0.3530423641204834,-0.7115824818611145
1772698531360203800,4.655203857421875,-0.828713595867157,-0.2134571224451065,-0.8825886249542236
1772698531370161000,4.665160888671875,-0.5298411846160889,-0.057094138115644455,-0.9769622683525085
1772698531380118000,4.675117919921875,-0.15335199236869812,0.10347675532102585,-0.9814132452011108
1772698531390075000,4.685074951171875,0.22371938824653625,0.2993788719177246,-0.894278883934021
1772698531400031700,4.69503173828125,0.5445599555969238,0.5185865759849548,-0.7580909729003906
1772698531409988900,4.70498876953125,0.7992287278175354,0.7207801938056946,-0.6423792839050293
1772698531419946000,4.714946044921875,0.9837841987609863,0.8774158358573914,-0.5904883146286011
1772698531429902800,4.72490283203125,1.1026089191436768,0.9550829529762268,-0.6071820855140686
1772698531439860000,4.73485986328125,1.1255773305892944,0.9219361543655396,-0.6549656391143799
1772698531449816800,4.74481689453125,1.0318076610565186,0.7876444458961487,-0.7018244862556458
1772698531459775000,4.75477490234375,0.7948563694953918,0.5438684821128845,-0.7336350679397583
1772698531469731800,4.76473193359375,0.41793757677078247,0.23931153118610382,-0.7792401313781738
1772698531479689000,4.77468896484375,-0.021046124398708344,-0.0400688610970974,-0.8453721404075623
1772698531489646000,4.78464599609375,-0.43282756209373474,-0.25108709931373596,-0.8317503333091736
1772698531499602700,4.794602783203125,-0.761666476726532,-0.3834289312362671,-0.635472297668457
1772698531509559800,4.804559814453125,-0.9852069020271301,-0.47859805822372437,-0.2602770924568176
1772698531519517000,4.814516845703125,-1.0985219478607178,-0.5142020583152771,0.23687317967414856
1772698531529473800,4.824473876953125,-1.1039482355117798,-0.47139790654182434,0.7585113048553467
1772698531539431000,4.834430908203125,-1.0388261079788208,-0.38543111085891724,1.165493369102478
1772698531549388000,4.844387939453125,-0.9254295825958252,-0.2710954546928406,1.3101352453231812
1772698531559345000,4.854344970703125,-0.7668164372444153,-0.13165685534477234,1.2173534631729126
1772698531569301800,4.8643017578125,-0.5560621023178101,-0.0007651434279978275,0.9715064167976379
1772698531579259000,4.8742587890625,-0.32724177837371826,0.10288257896900177,0.6758948564529419
1772698531589217000,4.884217041015625,-0.11288473755121231,0.17472107708454132,0.4133761525154114
1772698531599174000,4.894173828125,0.07212426513433456,0.2299790233373642,0.2327490597963333
1772698531609130800,4.904130859375,0.20634599030017853,0.2875978350639343,0.12785381078720093
1772698531619088000,4.914087890625,0.30579879879951477,0.3630257546901703,0.061345625668764114
1772698531629044700,4.924044677734375,0.3854305148124695,0.4416595697402954,0.017770448699593544
1772698531639001900,4.934001953125,0.44431039690971375,0.49898725748062134,-0.01166972704231739
1772698531648959000,4.943958984375,0.495917946100235,0.5349801182746887,-0.033064231276512146
1772698531658915800,4.953915771484375,0.5582706928253174,0.5520243048667908,-0.04846007749438286
1772698531668873000,4.963873046875,0.6129019856452942,0.5383039712905884,-0.0388985313475132
1772698531678829800,4.973829833984375,0.6541317701339722,0.48877865076065063,0.0004078289493918419
1772698531688786700,4.98378662109375,0.6711000800132751,0.4226185381412506,0.06415298581123352
1772698531698743800,4.993743896484375,0.6405134797096252,0.3511670231819153,0.1156376451253891
1772698531708701000,5.003700927734375,0.5470018982887268,0.28199222683906555,0.11483496427536011
1772698531718658800,5.013658935546875,0.40840697288513184,0.23767459392547607,0.07619932293891907
1772698531728615700,5.02361572265625,0.2405007928609848,0.22204157710075378,0.044526342302560806
1772698531738572800,5.03357275390625,0.04630999639630318,0.211279958486557,0.05474932864308357
1772698531748530000,5.043530029296875,-0.12035807967185974,0.1902630776166916,0.10889299213886261
1772698531758486800,5.05348681640625,-0.21562787890434265,0.14245371520519257,0.19710738956928253
1772698531768444000,5.06344384765625,-0.20818115770816803,0.09602337330579758,0.31867721676826477
1772698531778401000,5.073401123046875,-0.14797638356685638,0.06670280545949936,0.4666130542755127
1772698531788358000,5.08335791015625,-0.06737768650054932,0.072511687874794,0.5904181003570557
1772698531798314800,5.093314697265625,0.04080389812588692,0.14972679316997528,0.6560630202293396
1772698531808272000,5.10327197265625,0.18831825256347656,0.2765108346939087,0.6534613966941833
1772698531818229000,5.11322900390625,0.35142970085144043,0.4064089357852936,0.6163378953933716
1772698531828185900,5.123185791015625,0.49889662861824036,0.5442262291908264,0.56967693567276
1772698531838143000,5.13314306640625,0.6064276695251465,0.6569297313690186,0.5080163478851318
1772698531848100900,5.143100830078125,0.675288736820221,0.6743835806846619,0.40502339601516724
1772698531858058000,5.15305810546875,0.7364085912704468,0.5957536101341248,0.26815178990364075
1772698531868014800,5.163014892578125,0.7568187713623047,0.3883112370967865,0.07359455525875092
1772698531877972000,5.172971923828125,0.6448258757591248,0.01016044057905674,-0.2816428244113922
1772698531887929000,5.18292919921875,0.29958832263946533,-0.3698662519454956,-0.8194831609725952
1772698531897885700,5.1928857421875,-0.23992125689983368,-0.6053126454353333,-1.2790758609771729
1772698531907842800,5.2028427734375,-0.8165158629417419,-0.596882164478302,-1.442181944847107
1772698531917800000,5.212800048828125,-1.25448739528656,-0.43588435649871826,-1.21816086769104
1772698531927756800,5.2227568359375,-1.4716774225234985,-0.2044101357460022,-0.5971588492393494
1772698531937714000,5.2327138671875,-1.4354827404022217,-0.0697970911860466,0.26999086141586304
1772698531947671000,5.242671142578125,-1.1891043186187744,0.03863377869129181,0.9920441508293152
1772698531957627600,5.252627685546875,-0.7450125813484192,0.03304236754775047,1.2576478719711304
1772698531967584800,5.262584716796875,-0.23425666987895966,-0.026722963899374008,0.9703633785247803
1772698531977543000,5.27254296875,0.20135629177093506,-0.10649404674768448,0.23821833729743958
1772698531987500000,5.2825,0.448444664478302,-0.14836080372333527,-0.6123489737510681
1772698531997457000,5.292456787109375,0.514403223991394,-0.12457375228404999,-1.2105827331542969
1772698532007413800,5.302413818359375,0.4822293221950531,-0.07325118035078049,-1.3889317512512207
1772698532017371000,5.312370849609375,0.42380163073539734,-0.03389568626880646,-1.2315280437469482
1772698532027327700,5.32232763671875,0.3348081111907959,-0.04646926745772362,-0.9051714539527893
1772698532037284900,5.332284912109375,0.2014458328485489,-0.12101607769727707,-0.5673538446426392
1772698532047242000,5.342241943359375,0.027673237025737762,-0.21842040121555328,-0.351838082075119
1772698532057198800,5.35219873046875,-0.18869850039482117,-0.31419387459754944,-0.31615328788757324
1772698532067155700,5.36215576171875,-0.43817731738090515,-0.39085936546325684,-0.40242719650268555
1772698532077112800,5.37211279296875,-0.6914870738983154,-0.4490145444869995,-0.48765766620635986
1772698532087069700,5.382069580078125,-0.8777732849121094,-0.4808901846408844,-0.49394938349723816
1772698532097027600,5.392027587890625,-0.9700957536697388,-0.48405855894088745,-0.39619627594947815
1772698532106984700,5.401984619140625,-0.9712321758270264,-0.4641021490097046,-0.22208838164806366
1772698532116941600,5.411941650390625,-0.8822506666183472,-0.4279749393463135,-0.02264341153204441
1772698532126898400,5.4218984375,-0.7339613437652588,-0.3743002712726593,0.13831084966659546
1772698532136855600,5.43185546875,-0.5557569265365601,-0.3141467571258545,0.21940740942955017
1772698532146812700,5.441812744140625,-0.34473711252212524,-0.2397734671831131,0.2260059267282486
1772698532156769500,5.45176953125,-0.12795312702655792,-0.14028625190258026,0.20078830420970917
1772698532166726700,5.4617265625,0.06381071358919144,-0.03773537650704384,0.17991524934768677
1772698532176683800,5.471683837890625,0.21605293452739716,0.061466947197914124,0.16845376789569855
1772698532186640400,5.481640380859375,0.31569644808769226,0.1344444900751114,0.15105587244033813
1772698532196597500,5.491597412109375,0.3790768086910248,0.19219936430454254,0.13407881557941437
1772698532206554600,5.5015546875,0.4124784469604492,0.22801195085048676,0.13027475774288177
1772698532216511700,5.51151171875,0.42281094193458557,0.2559909522533417,0.15519636869430542
1772698532226468600,5.521468505859375,0.41922178864479065,0.27467143535614014,0.19887620210647583
1772698532236426500,5.531426513671875,0.39082106947898865,0.28515878319740295,0.2592332363128662
1772698532246383600,5.541383544921875,0.3535442650318146,0.282688170671463,0.2909485697746277
1772698532256340500,5.551340576171875,0.3119070529937744,0.26057082414627075,0.28252890706062317
1772698532266297600,5.561297607421875,0.29546335339546204,0.23423482477664948,0.25553563237190247
1772698532276254700,5.571254638671875,0.27176418900489807,0.2121296525001526,0.22898033261299133
1772698532286211800,5.5812119140625,0.22937333583831787,0.19183050096035004,0.20790167152881622
1772698532296168400,5.59116845703125,0.15102198719978333,0.16786521673202515,0.15249525010585785
1772698532306125600,5.60112548828125,0.05180352181196213,0.15745358169078827,0.04426412656903267
1772698532316082700,5.611082763671875,-0.007149485871195793,0.1901017427444458,-0.07708687335252762
1772698532326039600,5.62103955078125,-0.006681036204099655,0.24139608442783356,-0.13871587812900543
1772698532335996700,5.63099658203125,0.08529998362064362,0.3149964213371277,-0.08633484691381454
1772698532345953800,5.640953857421875,0.2203321009874344,0.3381163775920868,0.06901958584785461
1772698532355910700,5.65091064453125,0.3496653437614441,0.2996276915073395,0.24202720820903778
1772698532365868500,5.66086865234375,0.40517735481262207,0.18666040897369385,0.33052244782447815
1772698532375825700,5.67082568359375,0.3658040761947632,0.06001981720328331,0.3035278916358948
1772698532385782800,5.68078271484375,0.2649158239364624,-0.04023008793592453,0.2015112191438675
1772698532395739600,5.69073974609375,0.1436634659767151,-0.07258100062608719,0.08253684639930725
1772698532405696500,5.700696533203125,0.046941448003053665,-0.08076542615890503,-0.029571320861577988
1772698532415653600,5.710653564453125,-0.009066962637007236,-0.1086340844631195,-0.12443628162145615
1772698532425610500,5.720610595703125,-0.10611814260482788,-0.23437124490737915,-0.1271819919347763
1772698532435567600,5.730567626953125,-0.29016655683517456,-0.4185123145580292,-0.02592831291258335
1772698532445524700,5.740524658203125,-0.5462790131568909,-0.5240821838378906,0.16074462234973907
1772698532455481600,5.750481689453125,-0.7802600860595703,-0.5187557339668274,0.31392982602119446
1772698532465438700,5.760438720703125,-0.9026006460189819,-0.4499569535255432,0.2699684798717499
1772698532475395600,5.7703955078125,-0.8242706656455994,-0.31886905431747437,0.025164293125271797
1772698532485352400,5.7803525390625,-0.5318869948387146,-0.17425327003002167,-0.27571964263916016
1772698532495310600,5.790310546875,-0.11535928398370743,-0.034533657133579254,-0.4400976300239563
1772698532505267700,5.800267822265625,0.3020414113998413,0.13713397085666656,-0.41774705052375793
1772698532515224600,5.810224609375,0.6521615386009216,0.3649403750896454,-0.315466046333313
1772698532525181400,5.820181396484375,0.9042872786521912,0.600437581539154,-0.23885488510131836
1772698532535138600,5.830138671875,1.1040360927581787,0.7894075512886047,-0.21026957035064697
1772698532545095700,5.840095703125,1.2641777992248535,0.8994640111923218,-0.20714354515075684
1772698532555052500,5.850052490234375,1.336190938949585,0.9170089364051819,-0.19455771148204803
1772698532565009700,5.860009765625,1.2819061279296875,0.8434572219848633,-0.15904073417186737
1772698532574966800,5.869966796875,1.0729117393493652,0.6909672021865845,-0.11506910622119904
1772698532584923400,5.87992333984375,0.7490639090538025,0.49468109011650085,-0.0647049993276596
1772698532594880500,5.889880615234375,0.33847901225090027,0.2808654010295868,-0.032249148935079575
1772698532604837600,5.899837646484375,-0.08459582179784775,0.07590693235397339,-0.004709399770945311
1772698532614794500,5.90979443359375,-0.4901438355445862,-0.10783673077821732,0.0380152128636837
1772698532624752600,5.919752685546875,-0.8039635419845581,-0.2728765606880188,0.11182765662670135
1772698532634709500,5.92970947265625,-0.9979798793792725,-0.38565152883529663,0.2271260768175125
1772698532644666600,5.93966650390625,-1.065453290939331,-0.46170181035995483,0.3621712327003479
1772698532654623500,5.94962353515625,-1.0397065877914429,-0.518853485584259,0.49405232071876526
1772698532664580600,5.95958056640625,-0.9768255949020386,-0.5220080018043518,0.572349488735199
1772698532674537700,5.969537841796875,-0.8896307945251465,-0.47948968410491943,0.5692269802093506
1772698532684494600,5.97949462890625,-0.7744219303131104,-0.40168118476867676,0.4571095108985901
1772698532694451500,5.989451416015625,-0.6413317322731018,-0.30286985635757446,0.2682837247848511
1772698532704408600,5.99940869140625,-0.48716479539871216,-0.20886823534965515,0.04255606606602669
1772698532714365700,6.00936572265625,-0.3127765357494354,-0.1494898945093155,-0.15559396147727966
1772698532724322600,6.019322509765625,-0.12522391974925995,-0.1347527652978897,-0.28933021426200867
1772698532734279700,6.02927978515625,0.05832034349441528,-0.15074820816516876,-0.3434542119503021
1772698532744236800,6.03923681640625,0.19168558716773987,-0.17482957243919373,-0.33433184027671814
1772698532754194400,6.0491943359375,0.2506583631038666,-0.19279815256595612,-0.28076913952827454
1772698532764151600,6.059151611328125,0.24232721328735352,-0.1911965161561966,-0.20628505945205688
1772698532774108700,6.069108642578125,0.18490703403949738,-0.1638110727071762,-0.11108577996492386
1772698532784065800,6.079065673828125,0.08139075338840485,-0.11962524056434631,-0.004260798450559378
1772698532794022700,6.089022705078125,-0.028556011617183685,-0.07781904190778732,0.1038593277335167
1772698532803979500,6.0989794921875,-0.12931698560714722,-0.05534622073173523,0.18500079214572906
1772698532813936600,6.1089365234375,-0.1751514971256256,-0.04979623481631279,0.2241906374692917
1772698532823893500,6.1188935546875,-0.15828517079353333,-0.06498423963785172,0.23283419013023376
1772698532833850600,6.1288505859375,-0.10176362842321396,-0.07240530848503113,0.19781386852264404
1772698532843807700,6.138807861328125,-0.04122065752744675,-0.07404608279466629,0.14197111129760742
1772698532853764600,6.1487646484375,0.043488942086696625,-0.06776541471481323,0.10504569858312607
1772698532863721700,6.1587216796875,0.12133900076150894,-0.05301230028271675,0.0974719375371933
1772698532873678600,6.1686787109375,0.1634472757577896,-0.06860839575529099,0.1151161938905716
1772698532883635500,6.178635498046875,0.20580218732357025,-0.07978568226099014,0.1692952811717987
1772698532893593600,6.188593505859375,0.23889172077178955,-0.0915040522813797,0.29588043689727783
1772698532903550700,6.19855078125,0.23273688554763794,-0.1251155436038971,0.4548772871494293
1772698532913507600,6.208507568359375,0.19435091316699982,-0.18141628801822662,0.6213943958282471
1772698532923464400,6.21846435546875,0.13253813982009888,-0.19783680140972137,0.7407681941986084
1772698532933421600,6.228421630859375,0.034497518092393875,-0.18737059831619263,0.8097848296165466
1772698532943378700,6.238378662109375,-0.01602930761873722,-0.11672038584947586,0.8495141267776489
1772698532953335600,6.24833544921875,0.05234663188457489,0.016378015279769897,0.8822640776634216
1772698532963292700,6.258292724609375,0.2036440074443817,0.19208912551403046,0.9013227224349976
1772698532973249800,6.268249755859375,0.3638512194156647,0.32463499903678894,0.8583713173866272
1772698532983206400,6.278206298828125,0.5151506662368774,0.4021233916282654,0.7112454771995544
1772698532993163500,6.28816357421875,0.6903102397918701,0.37767931818962097,0.4139655530452728
1772698533003120600,6.29812060546875,0.8656607866287231,0.16152358055114746,-0.03679203987121582
1772698533013077500,6.308077392578125,0.9343266487121582,-0.12169087678194046,-0.6268391013145447
1772698533023034600,6.31803466796875,0.8297762870788574,-0.3019895553588867,-1.1389362812042236
1772698533032992500,6.327992431640625,0.5578417778015137,-0.296419620513916,-1.3659454584121704
1772698533042949600,6.33794970703125,0.24357755482196808,-0.24483101069927216,-1.17149817943573
1772698533052906500,6.347906494140625,-0.07315006852149963,-0.1991565227508545,-0.6001980900764465
1772698533062863600,6.357863525390625,-0.3522903621196747,-0.2886618971824646,0.1960492879152298
1772698533072820700,6.36782080078125,-0.5847904086112976,-0.38094037771224976,0.8779962658882141
1772698533082777600,6.377777587890625,-0.7334582209587097,-0.5463378429412842,1.1894142627716064
1772698533092734200,6.387734130859375,-0.7683740854263306,-0.6473393440246582,1.0894497632980347
1772698533102691000,6.397691162109375,-0.7121856808662415,-0.7161439657211304,0.66795414686203
1772698533112648000,6.40764794921875,-0.5989693403244019,-0.7186347842216492,0.08385463058948517
1772698533122605000,6.41760498046875,-0.46219128370285034,-0.678902268409729,-0.43419837951660156
1772698533132562200,6.427562255859375,-0.2955527901649475,-0.6322693228721619,-0.7740015387535095
1772698533142519000,6.43751904296875,-0.12029015272855759,-0.6017910242080688,-0.9358953833580017
1772698533152476200,6.44747607421875,0.031677279621362686,-0.5740805864334106,-0.9758787751197815
1772698533162434000,6.45743408203125,0.12324340641498566,-0.5543854236602783,-0.9339600801467896
1772698533172391200,6.46739111328125,0.12255817651748657,-0.534600019454956,-0.8206121921539307
1772698533182348000,6.47734814453125,0.02523881569504738,-0.5099010467529297,-0.6664077043533325
1772698533192305200,6.48730517578125,-0.14544397592544556,-0.47938787937164307,-0.512906014919281
1772698533202262300,6.49726220703125,-0.334482878446579,-0.4398953318595886,-0.36444759368896484
1772698533212219000,6.507218994140625,-0.5162079334259033,-0.37588411569595337,-0.23390458524227142
1772698533222176000,6.517176025390625,-0.6677875518798828,-0.31383565068244934,-0.12028055638074875
1772698533232133000,6.527133056640625,-0.7630879878997803,-0.23168350756168365,-0.03695084899663925
1772698533242090200,6.53709033203125,-0.7774131298065186,-0.1610061377286911,0.03964725881814957
1772698533252047000,6.547047119140625,-0.6749602556228638,-0.08979688584804535,0.12026229500770569
1772698533262004200,6.557004150390625,-0.47814521193504333,-0.03392057493329048,0.21852335333824158
1772698533271961000,6.566961181640625,-0.22715403139591217,0.009482134133577347,0.2910108268260956
1772698533281918000,6.57691796875,0.009416164830327034,0.06680826842784882,0.3098337948322296
1772698533291876000,6.5868759765625,0.21576322615146637,0.11796285957098007,0.2650943696498871
1772698533301833200,6.596833251953125,0.3789241909980774,0.18696004152297974,0.17589418590068817
1772698533311790300,6.606790283203125,0.4885060489177704,0.2559313476085663,0.06245933845639229
1772698533321747000,6.616746826171875,0.5429650545120239,0.3154822885990143,-0.03989552706480026
1772698533331704000,6.6267041015625,0.5522432327270508,0.3548697531223297,-0.11567529290914536
1772698533341661200,6.6366611328125,0.5321062803268433,0.38091012835502625,-0.1513989418745041
1772698533351618000,6.6466181640625,0.4859955310821533,0.39240026473999023,-0.1163981631398201
1772698533361575200,6.6565751953125,0.430362343788147,0.37616166472435,-0.01350853405892849
1772698533371532300,6.6665322265625,0.3580242395401001,0.3499908745288849,0.12730959057807922
1772698533381489200,6.6764892578125,0.24709241092205048,0.31724435091018677,0.26586613059043884
1772698533391446000,6.686446044921875,0.09923796355724335,0.2813348174095154,0.3403221070766449
1772698533401403100,6.696403076171875,-0.0526767373085022,0.2533862590789795,0.33414411544799805
1772698533411360000,6.706360107421875,-0.16025404632091522,0.23481714725494385,0.2803025543689728
1772698533421317000,6.716317138671875,-0.20246168971061707,0.2280236929655075,0.1987009197473526
1772698533431274200,6.726274169921875,-0.14159168303012848,0.20534449815750122,0.11446665227413177
1772698533441232100,6.736232177734375,0.009615686722099781,0.19217942655086517,0.057065147906541824
1772698533451189000,6.74618896484375,0.1671866476535797,0.13917981088161469,0.05103486403822899
1772698533461146000,6.75614599609375,0.26527008414268494,0.07125560939311981,0.08874628692865372
1772698533471103200,6.766103271484375,0.29153576493263245,0.03232470154762268,0.1660936176776886
1772698533481060000,6.77606005859375,0.26008597016334534,0.026625003665685654,0.259723961353302
1772698533491017200,6.786017333984375,0.2283615916967392,0.0707988440990448,0.33251646161079407
1772698533500974000,6.79597412109375,0.23316699266433716,0.15591320395469666,0.3878726363182068
1772698533510931000,6.805930908203125,0.28412285447120667,0.19337622821331024,0.36550506949424744
1772698533520888000,6.81588818359375,0.35640770196914673,0.1576717644929886,0.21391315758228302
1772698533530845200,6.82584521484375,0.41275057196617126,0.08949227631092072,-0.059120018035173416
1772698533540802000,6.835802001953125,0.33915093541145325,-0.02167152427136898,-0.3593919575214386
1772698533550759200,6.84575927734375,0.07270008325576782,-0.17178505659103394,-0.559421181678772
1772698533560716000,6.855716064453125,-0.40719273686408997,-0.286588579416275,-0.6170322895050049
1772698533570674200,6.865674072265625,-1.0241947174072266,-0.31364795565605164,-0.567367672920227
1772698533580631000,6.875631103515625,-1.6239149570465088,-0.23238159716129303,-0.4320873022079468
1772698533590588200,6.885588134765625,-2.0228922367095947,-0.07088160514831543,-0.2527477443218231
1772698533600545300,6.895545166015625,-2.0304102897644043,0.07864023745059967,-0.107626773416996
1772698533610502000,6.905501953125,-1.5884764194488525,0.23162195086479187,-0.09642970561981201
1772698533620459000,6.915458984375,-0.8158621788024902,0.3436981439590454,-0.21015308797359467
1772698533630416100,6.925416015625,0.10089152306318283,0.4097473919391632,-0.4434042274951935
1772698533640373200,6.935373291015625,0.9520220756530762,0.42555513978004456,-0.746468186378479
1772698533650330000,6.945330078125,1.5567843914031982,0.40827643871307373,-1.0476267337799072
1772698533660287200,6.955287353515625,1.8082985877990723,0.36681634187698364,-1.2743778228759766
1772698533670244000,6.965244140625,1.6940537691116333,0.2738330662250519,-1.3772706985473633
1772698533680201000,6.975200927734375,1.2971186637878418,0.13354094326496124,-1.3482531309127808
1772698533690158000,6.985157958984375,0.6901928782463074,-0.004953326191753149,-1.2083252668380737
1772698533700116200,6.9951162109375,-0.057229384779930115,-0.1172947809100151,-0.9837824702262878
1772698533710073000,7.005072998046875,-0.8123285174369812,-0.19275444746017456,-0.6921285390853882
1772698533720030000,7.015030029296875,-1.4259828329086304,-0.25540024042129517,-0.38080957531929016
1772698533729987000,7.024987060546875,-1.7963719367980957,-0.2942752540111542,-0.07608327269554138
1772698533739944200,7.034944091796875,-1.909476399421692,-0.31092455983161926,0.1763891875743866
1772698533749901000,7.044901123046875,-1.7981526851654053,-0.31755492091178894,0.3534696698188782
1772698533759858200,7.054858154296875,-1.5112375020980835,-0.30440664291381836,0.46278896927833557
1772698533769815300,7.064815185546875,-1.1140944957733154,-0.27150020003318787,0.5001633167266846
1772698533779772200,7.074772216796875,-0.6667242050170898,-0.21460522711277008,0.48519474267959595
1772698533789729000,7.08472900390625,-0.25454726815223694,-0.1308504045009613,0.41586142778396606
1772698533799686100,7.09468603515625,0.08105602115392685,-0.05709920823574066,0.30874910950660706
1772698533809643000,7.10464306640625,0.32317206263542175,0.014471594244241714,0.19358350336551666
1772698533819600100,7.11460009765625,0.4596177637577057,0.08642168343067169,0.09050878137350082
1772698533829557200,7.12455712890625,0.5003789663314819,0.1441844403743744,0.010589897632598877
1772698533839514000,7.13451416015625,0.4512021243572235,0.1851707547903061,-0.04776075854897499
1772698533849472000,7.144471923828125,0.3400196433067322,0.191046342253685,-0.07168325036764145
1772698533859429000,7.15442919921875,0.22329570353031158,0.16099710762500763,-0.059066787362098694
1772698533869386200,7.16438623046875,0.11007806658744812,0.112837053835392,-0.01656600460410118
1772698533879343000,7.174343017578125,-0.008155361749231815,0.0580798014998436,0.03560585156083107
1772698533889300200,7.18430029296875,-0.10456306487321854,-0.0048800441436469555,0.10512115061283112
1772698533899257000,7.194257080078125,-0.16270466148853302,-0.07227452844381332,0.17123785614967346
1772698533909214000,7.2042138671875,-0.17467054724693298,-0.10126423090696335,0.21909736096858978
1772698533919171000,7.214171142578125,-0.1650906354188919,-0.08366366475820541,0.22118981182575226
1772698533929128200,7.224128173828125,-0.11164472252130508,-0.038441892713308334,0.1746053695678711
1772698533939085000,7.2340849609375,-0.001626606797799468,0.016904454678297043,0.09202820807695389
1772698533949042200,7.244042236328125,0.15373744070529938,0.06748224049806595,-0.009559418074786663
1772698533958999000,7.2539990234375,0.3095203936100006,0.12269089370965958,-0.10948628187179565
1772698533968956000,7.263955810546875,0.4609506130218506,0.16049015522003174,-0.16618457436561584
1772698533978913000,7.2739130859375,0.6027434468269348,0.18566901981830597,-0.1271812468767166
1772698533988871200,7.28387109375,0.7102323770523071,0.20578590035438538,0.00622696103528142
1772698533998828300,7.293828369140625,0.766883134841919,0.21649153530597687,0.20748257637023926
1772698534008785000,7.303784912109375,0.7637696266174316,0.1952122151851654,0.40496593713760376
1772698534018742000,7.313741943359375,0.6969810128211975,0.17592932283878326,0.5351516604423523
1772698534028699100,7.32369921875,0.5852779150009155,0.16251277923583984,0.5622940063476562
1772698534038656000,7.333656005859375,0.4705108404159546,0.15890179574489594,0.47554948925971985
1772698534048613000,7.343613037109375,0.3954235911369324,0.18203411996364594,0.32338228821754456
1772698534058570200,7.3535703125,0.40067026019096375,0.18694180250167847,0.18508699536323547
1772698534068527000,7.363527099609375,0.49691125750541687,0.21975578367710114,0.11956170946359634
1772698534078484000,7.37348388671875,0.6617755889892578,0.2910366356372833,0.1689244657754898
1772698534088441000,7.383441162109375,0.8448485136032104,0.356831431388855,0.3316900432109833
1772698534098398000,7.39339794921875,0.9867153763771057,0.4632800817489624,0.5372415781021118
1772698534108354800,7.403354736328125,1.0871561765670776,0.5710254907608032,0.6121765375137329
1772698534118312000,7.41331201171875,1.170435905456543,0.6252477169036865,0.4260522127151489
1772698534128269800,7.423269775390625,1.2520285844802856,0.5585070252418518,-0.0016711908392608166
1772698534138226700,7.433226806640625,1.2566659450531006,0.32105958461761475,-0.5960251092910767
1772698534148183800,7.443183837890625,1.115571141242981,-0.05097435042262077,-1.2694040536880493
1772698534158141000,7.453140869140625,0.890910804271698,-0.30507028102874756,-1.8538819551467896
1772698534168098000,7.46309814453125,0.752098023891449,-0.39351576566696167,-2.1137256622314453
1772698534178055000,7.473054931640625,0.654887855052948,-0.3132680654525757,-1.8648960590362549
1772698534188011800,7.48301171875,0.47111430764198303,-0.18497401475906372,-1.0981884002685547
1772698534197969000,7.492968994140625,0.1312347948551178,-0.09059451520442963,-0.01240995991975069
1772698534207925800,7.50292578125,-0.2674984931945801,0.03593754395842552,0.9926407933235168
1772698534217883000,7.5128828125,-0.5857507586479187,0.09506451338529587,1.5028225183486938
1772698534227840000,7.522840087890625,-0.7179855108261108,0.1146254912018776,1.460352897644043
1772698534237796900,7.532796875,-0.6894992589950562,0.06788887828588486,0.9654244780540466
1772698534247754000,7.54275390625,-0.5612763166427612,0.014217161573469639,0.2075212001800537
1772698534257710800,7.5527109375,-0.3985065519809723,-0.05288597568869591,-0.5437629818916321
1772698534267669000,7.5626689453125,-0.21617193520069122,-0.13846437633037567,-1.0634685754776
1772698534277625900,7.5726259765625,-0.0224959384649992,-0.2174699902534485,-1.2326160669326782
1772698534287583000,7.5825830078125,0.1510191410779953,-0.25093650817871094,-1.078737735748291
1772698534297539800,7.592539794921875,0.21346653997898102,-0.24611645936965942,-0.7010786533355713
1772698534307496700,7.60249658203125,0.14768490195274353,-0.20474813878536224,-0.23766504228115082
1772698534317453800,7.612453857421875,-0.035936858505010605,-0.14763477444648743,0.17242048680782318
1772698534327411000,7.622410888671875,-0.2687408924102783,-0.08903909474611282,0.413903146982193
1772698534337367800,7.632367919921875,-0.48896166682243347,-0.03627734258770943,0.4594855308532715
1772698534347325000,7.642324951171875,-0.669114351272583,0.02132353000342846,0.38248690962791443
1772698534357282000,7.652281982421875,-0.8062559962272644,0.0731036365032196,0.2671789824962616
1772698534367238700,7.66223876953125,-0.8961229920387268,0.08217833936214447,0.1646587997674942
1772698534377195800,7.67219580078125,-0.8878299593925476,0.042661018669605255,0.10809484869241714
1772698534387153000,7.68215283203125,-0.74869704246521,-0.013504968956112862,0.11034657061100006
1772698534397109800,7.69210986328125,-0.499618262052536,-0.06012760102748871,0.1815299391746521
1772698534407067600,7.702067626953125,-0.19300611317157745,-0.08697253465652466,0.31609979271888733
1772698534417024800,7.712024658203125,0.060659442096948624,-0.08729451149702072,0.46837958693504333
1772698534426982000,7.72198193359375,0.20666831731796265,-0.02750232443213463,0.5901466012001038
1772698534436938800,7.731938720703125,0.24308863282203674,0.1148817166686058,0.6370352506637573
1772698534446895900,7.741895751953125,0.20132596790790558,0.29975080490112305,0.6214808821678162
1772698534456853000,7.75185302734375,0.13139721751213074,0.4682095944881439,0.5852400660514832
1772698534466809900,7.761809814453125,0.10551639646291733,0.5546175837516785,0.5476559996604919
1772698534476766700,7.7717666015625,0.15591751039028168,0.5829927921295166,0.48260509967803955
1772698534486723800,7.781723876953125,0.24680937826633453,0.5691114068031311,0.4063696265220642
1772698534496681000,7.791680908203125,0.33329713344573975,0.5216094255447388,0.3254462778568268
1772698534506637800,7.801637939453125,0.4136374592781067,0.4587531089782715,0.29384714365005493
1772698534516595000,7.811594970703125,0.5039975047111511,0.4118143618106842,0.33426088094711304
1772698534526552000,7.821552001953125,0.5512027740478516,0.3643818199634552,0.4098290503025055
1772698534536508700,7.8315087890625,0.5322125554084778,0.3094266951084137,0.47501659393310547
1772698534546465800,7.8414658203125,0.45207250118255615,0.254465788602829,0.4458450973033905
1772698534556424000,7.851423828125,0.3354593515396118,0.2037658542394638,0.32460176944732666
1772698534566381000,7.861381103515625,0.19503401219844818,0.12384028732776642,0.10973219573497772
1772698534576338000,7.871337890625,0.0653148889541626,0.030049875378608704,-0.19729724526405334
1772698534586294800,7.881294677734375,-0.04315510392189026,-0.07758649438619614,-0.49148836731910706
1772698534596252000,7.891251953125,-0.130854070186615,-0.1893678903579712,-0.6585689783096313
1772698534606208800,7.901208740234375,-0.16190306842327118,-0.21320664882659912,-0.6472457647323608
1772698534616166000,7.911165771484375,-0.1503361612558365,-0.21163351833820343,-0.4118662178516388
1772698534626123000,7.921123046875,-0.12338631600141525,-0.15841272473335266,0.006301710847765207
1772698534636079900,7.931079833984375,-0.1313515603542328,-0.0966297835111618,0.4963590204715729
1772698534646036700,7.94103662109375,-0.17383402585983276,0.000987641979008913,0.8735292553901672
1772698534655993900,7.950993896484375,-0.21964864432811737,0.10561897605657578,0.9959678053855896
1772698534665950700,7.96095068359375,-0.23208776116371155,0.19084858894348145,0.8969887495040894
1772698534675907800,7.970907958984375,-0.1642298847436905,0.24411527812480927,0.6696138978004456
1772698534685865000,7.980864990234375,-0.019587716087698936,0.25075653195381165,0.3996874988079071
1772698534695822800,7.99082275390625,0.17168770730495453,0.20530010759830475,0.15575793385505676
1772698534705779700,8.00077978515625,0.3836404085159302,0.14332084357738495,-0.024313468486070633
1772698534715736800,8.01073681640625,0.566017746925354,0.07587417215108871,-0.10339577496051788
1772698534725694000,8.02069384765625,0.6729049682617188,0.017200343310832977,-0.10012716054916382
1772698534735650800,8.03065087890625,0.6870202422142029,-0.02737484686076641,-0.07018070667982101
1772698534745608000,8.04060791015625,0.6016635298728943,-0.034089408814907074,-0.05168420076370239
1772698534755565000,8.05056494140625,0.43969571590423584,-0.025174476206302643,-0.04414745420217514
1772698534765521700,8.060521728515624,0.24929751455783844,-0.008554508909583092,-0.03282681852579117
1772698534775478800,8.070478759765624,0.10002066940069199,0.0032819099724292755,0.022742699831724167
1772698534785436000,8.080435791015624,0.022694993764162064,-0.010090353898704052,0.10958784818649292
1772698534795392800,8.090392822265626,-0.004952612332999706,-0.04928676038980484,0.20172657072544098
1772698534805350000,8.100349853515626,-0.028923720121383667,-0.10394572466611862,0.24560925364494324
1772698534815307000,8.11030712890625,-0.0668167769908905,-0.13903392851352692,0.23073124885559082
1772698534825263900,8.120263916015626,-0.10996796190738678,-0.15772899985313416,0.1534075140953064
1772698534835220700,8.130220703125,-0.10080908238887787,-0.4251766800880432,0.2809511125087738
1772698534845179000,8.140178955078126,-0.012594783678650856,-0.3256109058856964,0.6692904233932495
1772698534855136000,8.150135986328126,0.014651751145720482,-0.23898759484291077,0.4000946581363678
1772698534865092900,8.1600927734375,-0.027804149314761162,-0.18448352813720703,0.03753300756216049
1772698534875049700,8.1700498046875,-0.06130671501159668,-0.14225271344184875,-0.0605621337890625
1772698534885006800,8.1800068359375,-0.012364446185529232,-0.09011004865169525,-0.010369817726314068
1772698534894964000,8.1899638671875,0.011669516563415527,-0.09739059954881668,-0.04070295765995979
1772698534904920800,8.1999208984375,-0.1757403314113617,0.044098325073719025,-0.027352193370461464
1772698534914878000,8.2098779296875,-0.3138481378555298,-0.02308843471109867,-0.005521196406334639
1772698534924835000,8.2198349609375,-0.33557894825935364,-0.05231490731239319,-0.02352987602353096
1772698534934791700,8.229791748046875,-0.24070678651332855,-0.06655056774616241,-0.06596574932336807
1772698534944748800,8.239748779296875,-0.131006121635437,-0.11146241426467896,-0.08575079590082169
1772698534954706000,8.249705810546875,0.010375238955020905,-0.14831550419330597,-0.09221615642309189
1772698534964662800,8.259662841796874,0.17715254426002502,-0.2188020795583725,-0.09288416057825089
1772698534974620000,8.269619873046874,0.3432219326496124,-0.25457072257995605,-0.08418894559144974
1772698534984577000,8.279576904296874,0.4712893068790436,-0.23545309901237488,-0.08462151885032654
1772698534994535000,8.289534912109374,0.543010413646698,-0.19428035616874695,-0.052154917269945145
1772698535004491800,8.29949169921875,0.5493561625480652,-0.17454509437084198,0.03335912525653839
1772698535014449000,8.309448974609374,0.566997230052948,-0.09901677072048187,0.1722102165222168
1772698535024406000,8.319406005859374,0.4301040470600128,0.06589771062135696,0.16470834612846375
1772698535034363000,8.32936279296875,0.25094735622406006,0.0987752303481102,0.1793200522661209
1772698535044319700,8.33931982421875,0.10015412420034409,0.10900283604860306,0.18756891787052155
1772698535054276900,8.34927685546875,0.01445892732590437,0.17783808708190918,0.3214942216873169
1772698535064233700,8.359233642578126,-0.0728924572467804,0.050907425582408905,0.4235480725765228
1772698535074190800,8.36919091796875,-0.10492309927940369,0.004755906295031309,0.4427555799484253
1772698535084148000,8.37914794921875,-0.06712064892053604,0.02651344984769821,0.30306199193000793
1772698535094104800,8.389104736328125,-0.0529923141002655,-0.1603536456823349,0.1862451136112213
1772698535104062500,8.3990625,-0.04579990729689598,-0.29489946365356445,0.09187406301498413
1772698535114019600,8.40901953125,0.07456298917531967,-0.0640619620680809,-0.0886128842830658
1772698535123976400,8.4189765625,0.2570183277130127,-0.0650101825594902,-0.10899501293897629
1772698535133934600,8.4289345703125,0.1953810453414917,-0.14483045041561127,-0.22732670605182648
1772698535143891500,8.438891357421875,0.07668181508779526,-0.032056838274002075,-0.3783327639102936
1772698535153848300,8.448848388671875,-0.034478526562452316,0.11597070842981339,-0.5308767557144165
1772698535163805400,8.458805419921875,-0.12882335484027863,0.18773052096366882,-0.6549911499023438
1772698535173762600,8.468762451171875,-0.1778969019651413,0.1792246550321579,-0.7536881566047668
1772698535183719700,8.4787197265625,-0.16043782234191895,0.15993008017539978,-0.8051431775093079
1772698535193676500,8.488676513671875,-0.11501094698905945,0.10448679327964783,-0.8002959489822388
1772698535203633700,8.498633544921875,-0.07043281197547913,0.033237166702747345,-0.7565643191337585
1772698535213590500,8.508590576171875,-0.0492154061794281,0.002139703370630741,-0.6828272342681885
1772698535223547400,8.51854736328125,-0.07119551301002502,-0.01193607784807682,-0.5880128741264343
1772698535233504500,8.52850439453125,-0.11869192868471146,-0.012566182762384415,-0.4954635202884674
1772698535243461600,8.538461669921874,-0.1610090434551239,-0.007508108392357826,-0.3965127468109131
1772698535253418500,8.54841845703125,-0.18830591440200806,0.004571990109980106,-0.3035884201526642
1772698535263375600,8.558375732421876,-0.18495003879070282,0.028155414387583733,-0.22246846556663513
1772698535273332500,8.56833251953125,-0.14223666489124298,0.052230387926101685,-0.16159924864768982
1772698535283290600,8.57829052734375,-0.08495289087295532,0.056308675557374954,-0.11744487285614014
1772698535293247500,8.58824755859375,-0.02537611871957779,0.05760084465146065,-0.09664452075958252
1772698535303204600,8.59820458984375,0.010130212642252445,0.062473103404045105,-0.09508713334798813
1772698535313161700,8.60816162109375,0.03170927241444588,0.07747335731983185,-0.11347759515047073
1772698535323118300,8.618118408203125,0.03822816535830498,0.09427499771118164,-0.12796419858932495
1772698535333075500,8.628075439453125,0.024958167225122452,0.09991663694381714,-0.13471238315105438
1772698535343032600,8.638032470703125,0.02907623164355755,0.11013871431350708,-0.1144898384809494
1772698535352989400,8.647989501953125,0.04674443602561951,0.1180536225438118,-0.07488570362329483
1772698535362946600,8.657946533203125,0.06793947517871857,0.11744086444377899,-0.0245379526168108
1772698535372903700,8.667903564453125,0.010364069603383541,0.1127646192908287,-0.0001724250614643097
1772698535382860500,8.677860595703125,-0.09270930290222168,0.08771442621946335,0.054958365857601166
1772698535392817400,8.6878173828125,-0.010928958654403687,0.09864483773708344,0.0224361103028059
1772698535402774500,8.6977744140625,0.03302089869976044,0.15113992989063263,0.01695077493786812
1772698535412731600,8.707731689453125,-0.007277254015207291,0.13377505540847778,0.021083466708660126
1772698535422688500,8.7176884765625,-0.020264459773898125,0.12847815454006195,0.04684381186962128
1772698535432646400,8.727646484375,-0.01783219538629055,0.11277350783348083,0.06336313486099243
1772698535442603500,8.737603515625,-0.03487561643123627,0.10225032269954681,0.056427888572216034
1772698535452560400,8.747560302734374,-0.05793699249625206,0.09943962097167969,0.016014952212572098
1772698535462517500,8.757517578125,-0.06810598075389862,0.09402312338352203,-0.02933420054614544
1772698535472474600,8.767474609375,-0.05761818587779999,0.09236370772123337,-0.04292937368154526
1772698535482431500,8.777431396484374,-0.030402014032006264,0.080523282289505,-0.011134389787912369
1772698535492388600,8.787388671875,-0.0014654378173872828,0.060304030776023865,0.05515355244278908
1772698535502345500,8.797345458984376,0.0026435628533363342,0.05453113093972206,0.11791589856147766
1772698535512302600,8.807302490234376,-0.013166558928787708,0.05998848378658295,0.16002926230430603
1772698535522259500,8.817259521484376,-0.025559313595294952,0.0768020823597908,0.17826339602470398
1772698535532216600,8.827216552734376,-0.021922234445810318,0.08906727284193039,0.17408303916454315
1772698535542173700,8.837173583984375,-0.007070865482091904,0.08333209156990051,0.16166462004184723
1772698535552130600,8.847130615234375,0.018965795636177063,0.07858368009328842,0.14730964601039886
1772698535562087400,8.85708740234375,0.03832085803151131,0.07132580131292343,0.12923093140125275
1772698535572044500,8.86704443359375,0.04596386477351189,0.06819445639848709,0.10632643103599548
1772698535582002700,8.877002685546875,0.04059627279639244,0.06628365814685822,0.07738258689641953
1772698535591959600,8.88695947265625,0.01447332464158535,0.06423968821763992,0.037188030779361725
1772698535601916700,8.896916748046875,-0.02599157951772213,0.07197204977273941,-0.003787780413404107
1772698535611873500,8.90687353515625,-0.0734589621424675,0.09127809852361679,-0.038809679448604584
1772698535621830400,8.916830322265625,-0.10690877586603165,0.10523100197315216,-0.0507509708404541
1772698535631787500,8.92678759765625,-0.1290401816368103,0.10698575526475906,-0.05289268493652344
1772698535641744600,8.93674462890625,-0.1239769235253334,0.0976230725646019,-0.04914993792772293
1772698535651701500,8.946701416015625,-0.11370910704135895,0.09572503715753555,-0.039487455040216446
1772698535661658600,8.95665869140625,-0.10641394555568695,0.10589392483234406,-0.03814909979701042
1772698535671615500,8.966615478515624,-0.09849929809570312,0.11885207146406174,-0.03580418974161148
1772698535681572400,8.976572265625,-0.11143133789300919,0.12556537985801697,-0.03834940493106842
1772698535691529500,8.986529541015624,-0.11641836911439896,0.13741964101791382,-0.05415819585323334
1772698535701486600,8.996486572265624,-0.10646319389343262,0.14511436223983765,-0.09551459550857544
1772698535711443500,9.006443359375,-0.08100923150777817,0.1448879987001419,-0.17596974968910217
1772698535721400600,9.016400634765626,-0.04160511866211891,0.14725443720817566,-0.28687989711761475
1772698535731358500,9.0263583984375,0.06686383485794067,0.0982312336564064,-0.1972845047712326
1772698535741315600,9.036315673828126,0.1852748543024063,0.048317283391952515,0.03526172414422035
1772698535751272400,9.0462724609375,0.2129933089017868,0.10095652937889099,0.1171528622508049
1772698535761229600,9.0562294921875,0.13328038156032562,0.18520782887935638,0.06365001201629639
1772698535771186700,9.066186767578126,0.02420715242624283,0.24364903569221497,0.0023584244772791862
1772698535781143600,9.0761435546875,-0.04102187603712082,0.264896422624588,-0.02019687183201313
1772698535791100400,9.086100341796875,-0.04548719897866249,0.24587905406951904,-0.03260001167654991
1772698535801057500,9.0960576171875,0.0013170423917472363,0.21159665286540985,-0.05531900003552437
1772698535811014400,9.106014404296875,0.046154022216796875,0.18927110731601715,-0.09537773579359055
1772698535820971500,9.115971435546875,0.07221569120883942,0.17659305036067963,-0.15318383276462555
1772698535830928600,9.1259287109375,0.0925808846950531,0.18239234387874603,-0.2092476338148117
1772698535840885800,9.1358857421875,0.11232957243919373,0.1919558048248291,-0.24212180078029633
1772698535850842400,9.14584228515625,0.12438569962978363,0.21110846102237701,-0.22998656332492828
1772698535860799500,9.155799560546875,0.13854070007801056,0.22428615391254425,-0.1983051598072052
