time,seconds_elapsed,z,y,x
1772699605847671600,0.104671630859375,0.08159341058135032,-0.0025991450811503453,0.00990274266785127
1772699605857628700,0.114628662109375,0.08308920209705829,-0.006910400442965328,0.02775724120789673
1772699605867586600,0.124586669921875,0.07934826200306415,-0.01782287613414228,0.010430965509748783
1772699605877543700,0.134543701171875,0.07276596100330353,0.006222806337871588,0.007967023081629304
1772699605887500500,0.14450048828125,0.08099661373198032,0.0005964908886933698,-0.008354555957092087
1772699605897457700,0.154457763671875,0.050770986816287035,0.01765191718114074,0.008815482291506487
1772699605907414800,0.164414794921875,0.07905249392688274,0.004162741136061959,-0.0022005371141800424
1772699605917371400,0.174371337890625,0.07890344084501266,0.0028515306733315807,-0.01102763107002247
1772699605927328500,0.18432861328125,0.08309270922839641,-0.000545299557573162,-0.0008532181542075704
1772699605937286700,0.19428662109375,0.07875321871936321,-0.016326659926748834,-0.01565620076119085
1772699605947243800,0.204243896484375,0.09027531420886516,0.006461108605773188,-0.014662237270799232
1772699605957200600,0.21420068359375,0.07471241889595985,0.00223081409225706,-0.004885620042023947
1772699605967157500,0.224157470703125,0.09162088359892367,-0.004825520460307597,0.0034117635093774876
1772699605977114600,0.234114501953125,0.07516074718534946,0.007863563848799094,0.005917210987419821
1772699605987071500,0.244071533203125,0.07082067215442657,-0.005857105697481893,0.0005070247902418486
1772699605997028600,0.254028564453125,0.0842874719709158,-0.007318346489616669,0.008010323367238743
1772699606006986500,0.263986572265625,0.06139291859567165,0.0025783443217165768,0.007582108567404793
1772699606016943600,0.273943603515625,0.089262922295928,0.016397928214806595,0.02694273050421616
1772699606026900500,0.283900390625,0.08847615583240985,-0.004029935936094261,0.033558175721752924
1772699606036857600,0.293857666015625,0.0881733734935522,-0.015681968815042635,0.022232258108188397
1772699606046814700,0.303814697265625,0.06708323919177055,-0.005246015461278147,0.010278319673216902
1772699606056771600,0.313771484375,0.09221651140451431,0.008765065566054544,-0.006567737043224042
1772699606066728700,0.323728759765625,0.07620996397733688,0.002943679635925218,0.0014634213327779433
1772699606076686600,0.3336865234375,0.0747188486367464,0.005488765575434081,0.006808612577413441
1772699606086643700,0.343643798828125,0.07875731037259101,-0.0037123441871721296,-0.012985251960798631
1772699606096600600,0.3536005859375,0.06888064400255679,0.004385549007309601,-0.0002837945105973631
1772699606106557700,0.3635576171875,0.08684183262884616,-0.018765746474824846,0.0024700136925908736
1772699606116514600,0.3735146484375,0.0829576846718788,-0.010682023369590751,-0.00841693768579571
1772699606126471400,0.383471435546875,0.07517828284204006,-0.001362538791168481,-0.004064836002828087
1772699606136428500,0.393428466796875,0.08519932611882686,-0.010993856664584018,-0.01788721235791454
1772699606146386700,0.40338671875,0.09312895007431507,0.0017201520232250913,0.008153830341022694
1772699606156343800,0.41334375,0.06978373032212257,-0.005126024077110923,-0.0021682194468885425
1772699606166300400,0.423300537109375,0.07412322083115577,-0.007542661331361159,-0.01097966260080575
1772699606176257500,0.433257568359375,0.06439502302110195,0.002000078642880544,0.0007665268222655868
1772699606186214700,0.443214599609375,0.09298106603622436,0.010460124247218481,-0.008152157261277897
1772699606196171500,0.453171630859375,0.08639876503646374,-0.002623905063071288,0.000815841860952787
1772699606206128600,0.463128662109375,0.09103753075301646,0.027507225669315082,0.009837279641139321
1772699606216086500,0.47308642578125,0.07009001979231834,0.01135273940511979,-0.005887326164165279
1772699606226043600,0.483043701171875,0.06979016006290913,0.004068925372767262,-0.00464560987422592
1772699606236000500,0.49300048828125,0.06380524043440819,-0.005995061996602453,0.0015896632195741404
1772699606245957600,0.50295751953125,0.07682429648339748,-0.007756934269703924,0.004112162867939332
1772699606255914800,0.512914794921875,0.0772720402508974,0.007804221177264117,0.005039028496958781
1772699606265871600,0.52287158203125,0.0552735589325428,-0.006738071516784839,0.01259892865748843
1772699606275828500,0.532828369140625,0.09073825554549693,-0.0038035296019632366,-0.00910732482370804
1772699606285786600,0.54278662109375,0.07352642398178577,0.005531737067480572,0.017118255545722785
1772699606295743700,0.55274365234375,0.06843640736639499,0.0023577512404415754,0.003523670339322416
1772699606305700600,0.56270068359375,0.07038111169338226,-0.01071792123345658,-0.0036737857212283415
1772699606315657700,0.57265771484375,0.08205342930853367,0.012328575867065228,0.0023626911353960165
1772699606325614600,0.582614501953125,0.05975859539210796,0.017913426794693803,-0.006696246235631406
1772699606335571500,0.592571533203125,0.08310147705674172,-0.010894140883465298,-0.009809809395612682
1772699606345528600,0.602528564453125,0.06933657107651234,0.012456216268148272,-0.008119112937379396
1772699606355486700,0.61248681640625,0.08923837237656115,0.0052743373734643675,0.0037407854011893503
1772699606365443600,0.622443603515625,0.08175649218857288,-0.003765750308264978,-0.003783100447754259
1772699606375400400,0.632400390625,0.08399988720118999,-0.00007892415483947843,-0.004371223083612858
1772699606385357600,0.642357666015625,0.07083353163599967,-0.008010689835064113,0.015926666574401314
1772699606395314700,0.652314697265625,0.07696808886826038,-0.006861519799940288,0.0021386548548645804
1772699606405271600,0.662271484375,0.08564531632065772,0.004610758898197673,0.005586224896562635
1772699606415228700,0.672228759765625,0.0675385817438364,-0.0054363412684528154,0.007658173474055365
1772699606425186600,0.6821865234375,0.08309855444729328,0.0010889916799496858,0.010662322013633093
1772699606435143700,0.692143798828125,0.0872889918744564,-0.004066413755272515,0.000373927900151466
1772699606445100500,0.7021005859375,0.09177811998724937,-0.007626544789108448,0.01556722214486217
1772699606455057700,0.7120576171875,0.07561725878119469,0.0033631197575479744,0.01262710443920223
1772699606465014800,0.722014892578125,0.08354922082424163,-0.0031311513323104005,0.0048852193248691035
1772699606474971600,0.7319716796875,0.09297755890488624,-0.003352182805002667,0.010380268510617316
1772699606484928500,0.741928466796875,0.07995908737778663,-0.003906674882606603,-0.007386042572610312
1772699606494886700,0.75188671875,0.082953593018651,0.0023925348594551906,-0.0010044129608140792
1772699606504843800,0.76184375,0.06634323447942733,0.007380543271941133,0.016799965110479386
1772699606514800600,0.771800537109375,0.07292728904485703,-0.007590541893965564,0.00126158261350065
1772699606524757500,0.781757568359375,0.06529694029688835,-0.0021509994548512624,-0.0026147062639967768
1772699606534714600,0.791714599609375,0.05766425346136093,0.000008767828345298767,0.01674066810471704
1772699606544671500,0.80167138671875,0.07442424960434436,-0.007084062809706665,0.007370451136189513
1772699606554629600,0.811629638671875,0.07083353163599967,-0.001833225042838603,0.013798098147066775
1772699606564586800,0.821586669921875,0.057067456611990926,-0.00678333086404018,0.014419194895698454
1772699606574543600,0.831543701171875,0.09163374308049678,0.011671970555279403,-0.009885603161738253
1772699606584500500,0.84150048828125,0.07143266657292842,0.016123744066059587,0.00014673611473117488
1772699606594457600,0.85145751953125,0.07083528520166874,0.003164519312372431,-0.004014401581889251
1772699606604414700,0.861414794921875,0.08864216004908085,0.005963913373090326,-0.0045985758408816765
1772699606614371600,0.87137158203125,0.06859072114527225,-0.010137217002362012,0.004121413041008054
1772699606624328700,0.88132861328125,0.05931435875594616,0.01162635044842027,-0.007290115908975712
1772699606634286600,0.89128662109375,0.07502689167261123,0.005474677684577181,-0.003498124906112207
1772699606644243700,0.90124365234375,0.06619885757267474,0.013200454197614453,0.02673064038980519
1772699606654200600,0.91120068359375,0.07278232761621475,0.008133494230825454,0.02213821173274191
1772699606664157700,0.92115771484375,0.08744622826278209,-0.015079975200747138,0.0089573059107468
1772699606674114800,0.93111474609375,0.07023731930851936,0.014487667296826838,0.023423758031253235
1772699606684071400,0.941071533203125,0.0744271722137928,0.003368439820059575,0.0184010687477421
1772699606694029600,0.951029541015625,0.08475275139510631,-0.003528306556888856,0.0021044471954082835
1772699606703986700,0.960986572265625,0.08175883027613162,0.021118031522282397,0.006360432130962726
1772699606713943800,0.97094384765625,0.07562368852198123,-0.0031585553624667224,0.006177010988609981
1772699606723900700,0.980900634765625,0.06903904943466187,0.013052250499115325,-0.007790222334663849
1772699606733857500,0.990857421875,0.05991057108342647,0.010247253248095512,0.0011630410135607234
1772699606743814700,1.000814697265625,0.06499941865503787,-0.00016314553930424152,-0.0049335137335379834
1772699606753771500,1.010771484375,0.08609832078516483,0.006773024099157191,-0.002898283862174139
1772699606763729700,1.020729736328125,0.08953998567163944,-0.0009064427538542076,-0.008597979070572182
1772699606773686500,1.0306865234375,0.07846738751530646,-0.008106683855713344,0.003875053618347738
1772699606783643600,1.0406435546875,0.08145838602483273,0.0015049840357387438,0.011978937020554439
1772699606793600500,1.0506005859375,0.07771686140894889,-0.009569385952572338,0.026859769495076034
1772699606803557600,1.0605576171875,0.06888765826523303,0.0018966137018287554,0.017500119586335496
1772699606813514800,1.0705146484375,0.08085749752223491,0.002587819969537668,0.0025097857264423508
1772699606823471600,1.0804716796875,0.0765180070132017,0.0024635679687839,0.010074506480095441
1772699606833429500,1.090429443359375,0.06873626709580422,0.008413018991681747,0.013878903731738682
1772699606843386600,1.10038671875,0.07232756958603859,0.011893116192403248,-0.0038789877246599644
1772699606853343700,1.11034375,0.08444996905624866,0.011668116364069283,0.004791200348886195
1772699606863300600,1.120300537109375,0.09283025938868522,-0.011031361963646485,-0.0034747280475043224
1772699606873257700,1.1302578125,0.07607143228948116,0.007769268594891764,0.007301374234395916
1772699606883214600,1.140214599609375,0.10046177718043327,-0.0007682078935205936,-0.004823217192900483
1772699606893171500,1.15017138671875,0.06335223596990108,0.0013768184782704338,0.011094226607895689
1772699606903129600,1.160129638671875,0.07861527155339718,-0.0034271249044686555,0.023396570913516913
1772699606913086700,1.170086669921875,0.07801613661646843,0.0008313590904930606,0.01611635534404777
1772699606923043800,1.1800439453125,0.06140577807724475,0.014684199082502163,0.008505320934613701
1772699606933000400,1.19000048828125,0.08489771282374858,0.0069477915775962166,0.013241634449729462
1772699606942957600,1.19995751953125,0.09312836555242537,-0.005289037185674533,0.006860418683997704
1772699606952914700,1.209914794921875,0.0831020615786314,0.01105431358097121,0.008605183987849159
1772699606962871600,1.21987158203125,0.08399871815741061,0.0038020043651573357,-0.0003145001761149615
1772699606972829700,1.22982958984375,0.07502104645371437,-0.004512846915097907,-0.0025720550031808668
1772699606982786600,1.23978662109375,0.06484627391994,0.01482895044859033,-0.001463117655389942
1772699606992743700,1.24974365234375,0.07577040351629256,0.011527022826368919,-0.004447587671896326
1772699607002700500,1.259700439453125,0.08160568554103374,0.005969808824337087,0.006879923677133046
1772699607012657700,1.26965771484375,0.06320026027858257,0.013243832115037366,0.0038373970514134267
1772699607022614800,1.27961474609375,0.07277765144109725,0.01447684450871311,-0.022225410525582263
1772699607032571600,1.289571533203125,0.07576981899440288,-0.005549080927926116,-0.006638440788167645
1772699607042529500,1.299529541015625,0.06843757641017437,0.008380810922244563,0.01043413699765806
1772699607052486700,1.309486572265625,0.0744224960386753,0.009004774339753203,0.019237994495918974
1772699607062443800,1.31944384765625,0.07187690320909022,0.0031393437719205394,0.0029187295702256958
1772699607072400600,1.329400634765625,0.07456979555487632,-0.0019850546036846934,0.016537991989334113
1772699607082357800,1.339357666015625,0.07456979555487632,-0.006776540363649837,0.0020245846089412224
1772699607092314600,1.349314697265625,0.07367080088853836,0.005063530467264354,0.0038356731684965777
1772699607102271500,1.359271484375,0.08130173415839671,-0.010273812461458146,0.003337338003964396
1772699607112229600,1.369229736328125,0.08698913214504718,0.014988520357897505,-0.003945345229693339
1772699607122186800,1.379186767578125,0.08205050669908523,0.0022574783368967473,0.006046765926020452
1772699607132143600,1.3891435546875,0.08279927923977375,0.008180653274222276,-0.012860899495345074
1772699607142100500,1.3991005859375,0.07621464015245437,-0.00038287553747650235,-0.02131375274049351
1772699607152057600,1.4090576171875,0.07037877360582351,-0.011038960748212411,-0.017603864230244654
1772699607162014700,1.4190146484375,0.08519348089993,0.001645187090872787,-0.0008523927453672513
1772699607171971600,1.4289716796875,0.07801029139757155,-0.0013167725538369267,0.005495227853083633
1772699607181929500,1.438929443359375,0.07666296844184398,-0.01133997125509195,0.01191121582138585
1772699607191886600,1.448886474609375,0.08399404198229313,-0.0043364080693805585,0.0051048990906914695
1772699607201843500,1.458843505859375,0.07007832935452461,-0.002249450294068083,0.003951936513150576
1772699607211800600,1.468800537109375,0.07441723534166812,-0.01437937091703061,0.004521037642241572
1772699607221757700,1.4787578125,0.057957098928093906,0.013720582781312987,-0.01306184716123389
1772699607231714800,1.48871484375,0.0801040488064289,0.009805126370629295,0.006173433646146441
1772699607241671700,1.498671630859375,0.08863280769884586,0.004824438181496225,-0.004193739062524401
1772699607251629600,1.508629638671875,0.07411796013414859,-0.005256925014359876,-0.009741194288944825
1772699607261586700,1.518586669921875,0.06947919441759585,0.012678914541541597,-0.0006244817240280099
1772699607271543600,1.52854345703125,0.07441665081977844,0.0021699598836479707,-0.0034540568647003964
1772699607281500700,1.538500732421875,0.06888005948066711,0.0012082158791366963,-0.0013482060176058439
1772699607291457500,1.54845751953125,0.07471651054918765,-0.020220320064155382,0.004398899395938497
1772699607301414700,1.55841455078125,0.07097498593330383,-0.008643037488427943,0.0015475034366361797
1772699607311371500,1.56837158203125,0.0658867228835821,0.0054281168628018345,0.005447865026176441
1772699607321329700,1.57832958984375,0.07441606629788876,0.0026926822832319883,0.013200430223083821
1772699607331286800,1.588286865234375,0.07561433617174625,0.007385018517659045,-0.0032749168885318793
1772699607341243400,1.598243408203125,0.07561433617174625,0.012010732956393622,0.005501946429882082
1772699607351200500,1.608200439453125,0.08085165230333805,0.003638365635508671,0.011337911728746257
1772699607361157600,1.61815771484375,0.07381751588284968,0.006034832317987456,-0.0167634416255285
1772699607371114800,1.62811474609375,0.07336977211534977,-0.009327421289705672,-0.015142690289590973
1772699607381071600,1.638071533203125,0.08384498890042305,0.004757195331295952,-0.0001971117409877479
1772699607391029500,1.648029541015625,0.09162672881782054,0.0007836383580928668,-0.019878278860566204
1772699607400986600,1.657986572265625,0.07845920420885086,0.005922266188450157,-0.0017331861763785125
1772699607410943500,1.667943603515625,0.07082710189521313,0.0011755465853959322,-0.004040733608033042
1772699607420900600,1.677900634765625,0.0721744248509407,0.0001753793997922912,-0.0041046822435600915
1772699607430857700,1.687857666015625,0.06409399424791336,-0.010050187172880396,0.002383105448228889
1772699607440814800,1.69781494140625,0.08160042484402656,0.002750047626812011,0.026732010362984147
1772699607450771500,1.707771484375,0.06873159092068672,0.004632418174156919,0.005271879413252464
1772699607460729600,1.7177294921875,0.09042904346585273,-0.004161681690136902,0.024785490821534768
1772699607470686700,1.727686767578125,0.07112520805895328,-0.007705131017230451,0.0168477018259
1772699607480643600,1.7376435546875,0.07740998741686343,-0.001093649588758126,-0.012414469760452629
1772699607490600700,1.7476005859375,0.07531506096422672,-0.0005982490209396928,0.003781892017245991
1772699607500557600,1.7575576171875,0.05257014519274234,0.015957041163067332,0.0026029924224945716
1772699607510514700,1.7675146484375,0.06888181304633617,0.01002989330352284,-0.010515984903590287
1772699607520471600,1.777471435546875,0.07187456512153148,-0.003118428848055191,-0.021573456272738985
1772699607530429700,1.7874296875,0.07292202834784985,0.0058584528377745295,0.0018338449557020794
1772699607540386600,1.797386474609375,0.05197334834337234,0.00636926103727892,0.01472344196421327
1772699607550343400,1.807343505859375,0.06618892070055007,0.0025135948227019977,0.00850355138592422
1772699607560300500,1.817300537109375,0.06948153250515461,-0.0029015666604042052,0.011077487818937515
1772699607570257700,1.827257568359375,0.07217559389472007,0.0023651353958761318,0.006111741470609559
1772699607580214500,1.837214599609375,0.09132920717597007,0.005733118558209389,0.01378616453903378
1772699607590171600,1.847171630859375,0.07112696162462234,0.007509759142179973,-0.00699091719162534
1772699607600129500,1.857129638671875,0.07157587443590163,0.002587230881070718,0.018237446001113856
1772699607610086700,1.867086669921875,0.06319616862535476,-0.011532968509965576,0.003971444931218866
1772699607620043500,1.87704345703125,0.0787578948944807,-0.010757257730001583,0.000510183720063651
1772699607630000600,1.887000732421875,0.07875731037259101,-0.0014299277718411757,-0.0009791312474408185
1772699607639957800,1.896957763671875,0.08040390853583812,0.00031981567204929885,0.002695574639106053
1772699607649914600,1.90691455078125,0.06424304732978343,0.010343000673572533,-0.01738361935048597
1772699607659871700,1.916871826171875,0.08040390853583812,0.009431954809837042,-0.008184576534913503
1772699607669830000,1.926829833984375,0.09746201084256172,0.00031839089994318783,0.0043338724773551805
1772699607679787000,1.936787109375,0.06633680473864079,0.004085684711323119,-0.006594949847957468
1772699607689744000,1.946743896484375,0.06439210041165351,-0.004915313069033436,-0.005991423576168017
1772699607699700700,1.95670068359375,0.07426876678168773,0.0028631206464255227,0.004836574431395274
1772699607709657900,1.966657958984375,0.06319558410346508,0.0006082315588369965,0.01420269118436263
1772699607719615000,1.976614990234375,0.06798457194566726,0.00024711119544226675,0.012235036381694953
1772699607729571800,1.98657177734375,0.08594049987494945,-0.007139195097004994,0.0014535267014929559
1772699607739529700,1.99652978515625,0.06693710871934891,0.001281404412933625,0.00661579056494229
1772699607749486800,2.00648681640625,0.07890870154201984,0.0004558631418738514,0.0023536698620126115
1772699607759443700,2.016443603515625,0.07726268790066242,0.0038239467689068986,0.0005826204810786294
1772699607769400800,2.02640087890625,0.0777121852338314,0.00687970847717952,-0.006150498582664294
1772699607779358000,2.03635791015625,0.0854933406293392,0.027380443784757517,0.0010903079958457964
1772699607789315000,2.046315185546875,0.08249941951036453,0.005356001474661753,0.002981080474532791
1772699607799272000,2.05627197265625,0.07726151885688304,0.007305372843611985,-0.01621606884187786
1772699607809229800,2.066229736328125,0.06035246963202953,-0.010827688051131554,0.010637768669333308
1772699607819187000,2.07618701171875,0.07501695480048656,-0.0075832947358489035,0.011599179313704371
1772699607829143800,2.086143798828125,0.07726151885688304,0.001041554075339809,0.002408995658022468
1772699607839101000,2.096100830078125,0.07651274631619454,0.0022701962545746937,-0.001775663336436264
1772699607849057800,2.106057861328125,0.07471592602729797,0.003121945112547837,0.003815970670894603
1772699607859014700,2.1160146484375,0.08578910870552063,-0.009678467783657833,0.009176325235332478
1772699607868971800,2.1259716796875,0.07381751588284968,0.00406596166412346,0.001256920138114947
1772699607878930000,2.135929931640625,0.06484042870104313,0.010248582122079096,0.01000922269154107
1772699607888887000,2.145886962890625,0.08728665378689765,-0.0014307497557485476,0.00031700951032107694
1772699607898843600,2.15584375,0.0714250677883625,0.0030953539331443607,-0.009480899384943767
1772699607908800800,2.16580078125,0.08833411701321602,0.005363810321781784,-0.014175556582264834
1772699607918758000,2.1757578125,0.07351999424099921,0.003556929863174446,-0.007729540514346445
1772699607928714800,2.18571484375,0.07366963184475898,-0.0032410962464986368,-0.0008992275617783888
1772699607938671900,2.195671875,0.07202420272529125,0.0033214588731760157,0.002918436167636537
1772699607948629000,2.20562890625,0.06992927627265452,-0.007177490413933992,0.002319204761763103
1772699607958587000,2.2155869140625,0.07770984714627266,0.00644572837355081,-0.002957865137371118
1772699607968543700,2.225543701171875,0.07726034981310367,0.004486922455974854,0.017558918835176154
1772699607978500900,2.2355009765625,0.07725976529121399,0.006278107588528655,0.0039948514938034346
1772699607988458000,2.2454580078125,0.07965338242948054,-0.006241387740755454,0.008226936105606727
1772699607998414800,2.255414794921875,0.06558803219795227,0.004353313538408838,0.00691156720345607
1772699608008371700,2.265371826171875,0.07681085247993469,0.003136877820198424,-0.00442433523129439
1772699608018329900,2.275329833984375,0.07187281155586242,0.016891435936349442,-0.011751504348183516
1772699608028287000,2.285286865234375,0.08908055146634578,0.0067297055472386996,-0.010951282464759423
1772699608038243800,2.295243896484375,0.07710895864367484,0.007382716962718404,-0.012308308255526935
1772699608048201000,2.305200927734375,0.06109773504137993,0.005278890250995755,-0.005772573785763234
1772699608058157800,2.31515771484375,0.08279577210843563,-0.008255663872347213,0.005052033538182149
1772699608068114700,2.32511474609375,0.08279577210843563,0.0008626629776321351,-0.006549191031313966
1772699608078071800,2.33507177734375,0.06992576914131642,-0.00023832966736517846,0.013751505359250585
1772699608088029000,2.34502880859375,0.07082301024198531,-0.004098859286727384,0.0032169139366014857
1772699608097986800,2.35498681640625,0.07052373503446578,-0.0038659592797281217,0.0109619568391121
1772699608107943700,2.364943603515625,0.08444003218412399,-0.00023570845201611518,0.014117772255220915
1772699608117900800,2.37490087890625,0.09117372435331345,-0.008457077329116873,0.005374062287737615
1772699608127858000,2.38485791015625,0.07231938627958297,-0.0036213962343987077,0.002631329746879055
1772699608137814800,2.394814697265625,0.07127192305326462,-0.01602155776664149,-0.02240495236054994
1772699608147772000,2.40477197265625,0.06588496931791304,-0.020545241169584914,-0.027686283447092862
1772699608157729000,2.41472900390625,0.09745908823311328,0.003678816376905888,-0.01391038571539102
1772699608167687000,2.42468701171875,0.06498772821724415,-0.00017967198241967706,-0.005418024156228057
1772699608177643800,2.434643798828125,0.08414251054227352,0.014970162717299534,-0.02411377013900783
1772699608187601000,2.444600830078125,0.08503975164294242,0.010879139677155761,0.0029147241111437323
1772699608197558000,2.45455810546875,0.07127309209704398,0.013072526102163829,0.007775215420132735
1772699608207515000,2.464514892578125,0.06035013154447078,0.00719209432802163,-0.006211594249046174
1772699608217471700,2.4744716796875,0.06858078427314758,0.0017243304414208977,0.009301150341532775
1772699608227430000,2.484429931640625,0.082796941152215,-0.004354172054934315,0.004129844084280194
1772699608237387000,2.494386962890625,0.07516425431668758,0.0019927173203323034,-0.0017960125755431362
1772699608247343900,2.50434375,0.0681312869399786,-0.0016617774660699068,-0.0033718031042139045
1772699608257300700,2.51430078125,0.0747147569835186,-0.011414379065018146,0.0157053930731141
1772699608267257900,2.5242578125,0.08219722169339656,0.005127416883176192,0.0042407639627141175
1772699608277214700,2.534214599609375,0.07666004583239555,0.006795194831769913,-0.005204709057466243
1772699608287171800,2.544171875,0.07650923918485641,0.009934287441940977,-0.005404044721581158
1772699608297129000,2.55412890625,0.06783025816679,0.002254131035762839,-0.0090237159314187
1772699608307086800,2.5640869140625,0.09282032251656055,-0.0071941721206763756,-0.0009456342615711036
1772699608317043700,2.574043701171875,0.07695932103991508,-0.0008188786348327994,0.002858129377476871
1772699608327000800,2.584000732421875,0.06139642572700977,0.0004175267257494852,-0.004792387658974621
1772699608336958000,2.5939580078125,0.07127192305326462,0.0063613288925727825,0.003465320327520021
1772699608346914800,2.603914794921875,0.05541033705472946,0.0019473255423363297,-0.00044150525213626675
1772699608356872000,2.613871826171875,0.06977496249377727,-0.010595367999444716,0.009835357112111523
1772699608366828800,2.623828857421875,0.07201952655017375,0.007554315236536786,-0.001089218867168529
1772699608376787000,2.633786865234375,0.06827858645617961,-0.0035833520792191847,0.010415992844547145
1772699608386743800,2.643743896484375,0.07680851439237595,-0.014375315796420908,0.006572041042294586
1772699608396701000,2.653700927734375,0.0687280837893486,-0.008304722611885517,0.0011205587161035508
1772699608406658000,2.663657958984375,0.08219605264961719,-0.0031194791608257218,0.0026983967838546956
1772699608416614700,2.67361474609375,0.0781564218699932,-0.0010945263715926557,0.002533482837505289
1772699608426571800,2.68357177734375,0.07157119826078415,-0.0029126314771128815,0.009129394520798815
1772699608436529000,2.69352880859375,0.08593699274361133,0.00914157529482618,-0.011024524655839195
1772699608446487000,2.703487060546875,0.0804004014045,-0.006444623261853121,-0.003282813071442069
1772699608456444000,2.71344384765625,0.07291852121651173,0.003758936974988319,-0.0059653096040885424
1772699608466400800,2.72340087890625,0.06498772821724415,0.004320657944399863,-0.0004089255774742923
1772699608476358000,2.73335791015625,0.07022504434883595,-0.0057740944559918714,0.00005400434271432459
1772699608486314800,2.743314697265625,0.07321838094592094,-0.0059651417823741205,0.0015268305413657797
1772699608496272000,2.75327197265625,0.07710954316556454,0.0035892520970432088,0.005244929757533827
1772699608506229000,2.76322900390625,0.08264613450467587,-0.0024311818028334526,0.00969286848505726
1772699608516187000,2.773186767578125,0.0724707774490118,0.002959690055809915,-0.00818572274580656
1772699608526143700,2.783143798828125,0.0717214203864336,0.003233287399378605,0.0040355345598189155
1772699608536100900,2.793100830078125,0.08578735513985157,-0.007268895024433732,0.0038980560388445153
1772699608546058000,2.80305810546875,0.0673819298774004,0.0027432890924625098,-0.009048339486843906
1772699608556014800,2.813014892578125,0.08279401854276656,0.0016905514694051816,-0.0005756610173295485
1772699608565972000,2.822971923828125,0.07935176913440227,-0.011726632485119626,0.0141408654364408
1772699608575928800,2.8329287109375,0.0762087949335575,0.0019006733890157192,0.011390644279692786
1772699608585887000,2.842886962890625,0.07501227862536906,0.000872650082106702,-0.00584809184478654
1772699608595843800,2.85284375,0.08369242868721484,0.00433307446797844,0.017280405571183655
1772699608605801000,2.862801025390625,0.0673819298774004,0.010528732504020444,0.0006869182516587897
1772699608615757800,2.8727578125,0.05720657282173633,-0.008990887378295884,-0.005171076215922949
1772699608625714700,2.882714599609375,0.0829448251903057,-0.0015078472796827553,-0.001147107654667343
1772699608635671800,2.892671875,0.0759130268573761,-0.004097786141070537,-0.01058289667693898
1772699608645629000,2.90262890625,0.0545154340416193,0.004900279896683059,0.010386460789386182
1772699608655585800,2.912585693359375,0.06394318760037422,0.013032929310714826,0.0032109151665441456
1772699608665543400,2.92254345703125,0.07112579258084296,-0.003986019162554293,-0.013458335665531921
1772699608675500300,2.932500244140625,0.08384498890042305,-0.006983739673811942,-0.012239714840101078
1772699608685457400,2.94245751953125,0.07935469174385071,0.004292363431677222,-0.02014811562775867
1772699608695414300,2.952414306640625,0.07351882519721985,-0.0006265070010442286,-0.0005420487253839383
1772699608705371400,2.962371337890625,0.07920505414009094,0.017205648418096825,-0.005518165199854411
1772699608715328500,2.97232861328125,0.07740881837308407,0.010377797992317937,-0.006247643380783847
1772699608725285400,2.982285400390625,0.09386837026476859,0.015474089084868319,0.008749069416723796
1772699608735243300,2.9922431640625,0.0842915636241436,-0.010738493664027191,0.015934120370139134
1772699608745200400,3.002200439453125,0.07561375164985656,-0.006121350690815598,0.013548475334129761
1772699608755157500,3.012157470703125,0.0745668729454279,0.0021245589724974705,0.00616252466388687
1772699608765114400,3.0221142578125,0.07336977211534977,0.0006196525685722008,0.001447525077324826
1772699608775071500,3.032071533203125,0.06992752270698548,0.005675839979597367,0.003203274711960694
1772699608785028400,3.0420283203125,0.07486497910916805,-0.004628860810468904,-0.0021154001309740124
1772699608794985200,3.051985107421875,0.08997779256701469,-0.010708719580271281,0.00569988871710957
1772699608804943400,3.061943359375,0.07621054849922657,-0.0010518928062636405,-0.0031513864069856934
1772699608814900500,3.071900390625,0.08219722169339656,0.018575397834763863,-0.015552985840244218
1772699608824857600,3.081857666015625,0.06738309892117977,-0.004009943460836075,-0.01251975562418811
1772699608834814200,3.091814208984375,0.08982815496325493,0.002110388883249834,-0.005817073368726415
1772699608844771300,3.101771240234375,0.0790542474925518,0.01699140287921764,-0.0023577803523716283
1772699608854728400,3.111728515625,0.09027706777453422,-0.009165166232967748,-0.006878410427592461
1772699608864685300,3.121685302734375,0.089977208045125,-0.005513055199896916,0.004081408682538312
1772699608874643200,3.131643310546875,0.07621054849922657,-0.007628869176935404,0.007538376740243984
1772699608884600300,3.141600341796875,0.08892974481880664,0.000820134443580173,0.014693498917098622
1772699608894557400,3.151557373046875,0.07411562204658985,-0.0019237665702356024,0.010321992134873288
1772699608904514300,3.161514404296875,0.06768120508491993,-0.00607021872519981,0.013246327749511693
1772699608914471400,3.171471435546875,0.0712725075751543,-0.012850330152269452,0.00177915790968691
1772699608924428500,3.181428466796875,0.07815583734810352,-0.0019676605108892545,0.0026174884511943673
1772699608934385400,3.191385498046875,0.07097381688952445,-0.004734791703242808,-0.014847951976582407
1772699608944343300,3.20134326171875,0.07232055532336235,0.005014174900203943,-0.0026690388294518925
1772699608954300400,3.211300537109375,0.07456570390164852,0.003124429330579005,0.0020526051270280733
1772699608964257500,3.221257568359375,0.08653612768054007,-0.0023333976838970554,0.008815105548882275
1772699608974214400,3.23121435546875,0.09207388806343078,0.0042689277571626005,0.0005097944193519652
1772699608984171300,3.241171142578125,0.08608838391304016,0.002067084031063132,0.0024393514095572754
1772699608994128400,3.25112841796875,0.07037702004015445,0.005075709528825245,-0.004906827797656297
1772699609004085200,3.261085205078125,0.06753390556871891,-0.00572882140900474,0.004047569774196017
1772699609014043400,3.27104345703125,0.08264671902656555,-0.009831155861029402,0.015978129616868682
1772699609024000500,3.28100048828125,0.06618716713488101,-0.007711652089562267,0.007042582305136602
1772699609033957400,3.290957275390625,0.0720218646377325,0.007978888191003352,0.00225115305656509
1772699609043914200,3.300914306640625,0.06648468877673148,0.0010778446648502722,0.006137160752122872
1772699609053871400,3.310871337890625,0.07621171754300594,0.003989818554837256,-0.01678035508606699
1772699609063828500,3.320828369140625,0.06139876381456852,0.003996892183017917,-0.007397375104911043
1772699609073785300,3.330785400390625,0.07621230206489563,0.008419818625226616,0.0034673547376907663
1772699609083743200,3.3407431640625,0.06109948860704899,0.009849107076250948,0.0008762519699230324
1772699609093700400,3.350700439453125,0.08309621635973453,0.0002714510522549972,-0.011976698256051167
1772699609103657500,3.360657470703125,0.06813245598375797,-0.01767322026407346,-0.018415332451823634
1772699609113614300,3.3706142578125,0.07037643551826477,-0.005040108492481522,-0.008582969301930279
1772699609123571500,3.380571533203125,0.08309621635973453,0.006079644140671007,-0.000059789054462453346
1772699609133528600,3.390528564453125,0.07232289341092109,0.008017786296131089,0.003989401283839834
1772699609143485200,3.400485107421875,0.06544014815986156,-0.007165000825119204,0.0070278528101742265
1772699609153442300,3.4104423828125,0.07232289341092109,-0.019960536616807804,0.002284687716697226
1772699609163400400,3.420400390625,0.0771107122093439,0.004227413003263064,-0.006794461325297015
1772699609173357300,3.430357421875,0.08354512917101382,0.0015982335434528067,-0.005093679010355845
1772699609183314400,3.440314453125,0.06992869175076484,-0.004581121811759658,0.008731258052930934
1772699609193271300,3.450271240234375,0.06558978576362133,0.004964088680781424,-0.011173893973184749
1772699609203228400,3.460228515625,0.06813420954942703,0.011757009357074275,-0.004467341543492512
1772699609213185300,3.470185302734375,0.07097907758653163,-0.00464546031882055,-0.010338520861277355
1772699609223142400,3.480142333984375,0.08908581216335296,-0.002401142857596278,0.00812653020049911
1772699609233100300,3.490100341796875,0.06544423981308936,0.0028301636583171782,-0.014173080355743876
1772699609243057200,3.50005712890625,0.08414894028306007,0.005132810010924004,0.00392813037505548
1772699609253014300,3.51001416015625,0.08759177421331406,0.002324876450723968,0.017062232775858138
1772699609262971400,3.519971435546875,0.05766425346136093,0.011339149271184578,-0.0017906308642384827
1772699609272928500,3.529928466796875,0.07532207522690296,0.008614368516369722,0.01187898491906235
1772699609282885400,3.539885498046875,0.09163257403671742,0.008254417196754366,0.02200707333347527
1772699609292842500,3.549842529296875,0.07577098803818226,0.00015408545001409946,-0.005907634304076782
1772699609302800400,3.55980029296875,0.08055997588038444,-0.008566871546255425,0.006355328980871127
1772699609312757200,3.56975732421875,0.07068330951035022,0.00003702580844983458,0.018299866545724217
1772699609322714400,3.57971435546875,0.07457388720810412,0.000804480216722004,0.0014855903529241913
1772699609332671500,3.58967138671875,0.07352642398178577,0.006049271835293621,0.002014583804734866
1772699609342628400,3.59962841796875,0.07861293346583843,-0.00828044668715447,-0.008931218767308746
1772699609352585200,3.609585205078125,0.07756488571763039,0.004355510062072426,-0.01326859438024694
1772699609362542300,3.619542236328125,0.08145546341538429,0.002610630022967234,-0.008238021471913088
1772699609372500500,3.62950048828125,0.07741524811387061,-0.007285841592657379,-0.018284406398399733
1772699609382457300,3.639457275390625,0.07801321400702,0.013887436381354926,-0.005329079218406696
1772699609392414200,3.649414306640625,0.07262684479355812,-0.00563791912200395,0.012161004172748652
1772699609402371300,3.659371337890625,0.07936053696274757,-0.00461909290170297,0.013786012700339778
1772699609412328400,3.669328369140625,0.08504618138372898,-0.0038950712097808714,0.0071782633071357845
1772699609422285300,3.679285400390625,0.07546820569932461,-0.005238065050262957,-0.013732062014908297
1772699609432242400,3.689242431640625,0.07741349454820155,0.004705688906344585,0.005409843133061076
1772699609442199600,3.699199462890625,0.06978080771267414,0.0019956307966262103,-0.009042446318885776
1772699609452157200,3.7091572265625,0.06633855830430985,0.015135920338798313,-0.001366371291136602
1772699609462114300,3.7191142578125,0.0830973854035139,0.0058047179231187325,0.0018024891237466362
1772699609472071400,3.729071533203125,0.07800970687568187,0.002676311103743501,-0.0006150700082886032
1772699609482028500,3.739028564453125,0.0714250677883625,0.011348113462352193,-0.010490035328292287
1772699609491985400,3.7489853515625,0.07202303368151187,0.009455216954415663,-0.0018459931928664446
1772699609501942300,3.7589423828125,0.06259644916653632,0.010610382905486038,0.0015992085076984948
1772699609511899400,3.7688994140625,0.07322071903347968,-0.00047573688612319526,-0.005486647825228283
1772699609521857300,3.778857177734375,0.07202361820340156,-0.0022790188818471507,0.006545861425666953
1772699609531814400,3.788814453125,0.07262216861844062,0.012772931234235875,0.0063668567343498576
1772699609541771500,3.798771484375,0.07696107460558414,-0.004568851418653503,0.010149512511643114
1772699609551728000,3.80872802734375,0.07411737561225891,-0.014866866739606483,0.008762081878635216
1772699609561685200,3.818685302734375,0.0681312869399786,-0.0003215966371819377,0.014275479001004714
1772699609571642400,3.828642333984375,0.08324468491971493,0.006360401877388358,0.0016065749676461563
1772699609581599500,3.838599609375,0.06917875016629696,0.006595662804832682,-0.00012138590269896667
1772699609591557400,3.848557373046875,0.05735737946927547,-0.0028106324073625725,0.012547237286157906
1772699609601514200,3.85851416015625,0.06962766297757625,0.0001695844132453203,0.003776850515947444
1772699609611471400,3.868471435546875,0.08189736196398735,-0.0024628236166900023,-0.015117272720544132
1772699609621428200,3.87842822265625,0.06394143403470516,-0.005094455328490585,-0.017453684345434886
1772699609631385300,3.88838525390625,0.06917933468818664,-0.016452656360017134,0.0057579076520603845
1772699609641342500,3.898342529296875,0.07202303368151187,-0.012322004562383517,-0.005976518838803167
1772699609651299600,3.908299560546875,0.0841430950641632,0.00916834457074292,-0.004146528645133367
1772699609661257200,3.91825732421875,0.06887947495877743,0.0034251293102046474,0.012547792125295382
1772699609671215000,3.928215087890625,0.06798223385810852,-0.002827569842431694,0.00554598535936384
1772699609681172200,3.938172119140625,0.08578852418363093,0.009722028364171274,0.012497298338852124
1772699609691129000,3.948129150390625,0.07426701321601867,-0.0025475610243855043,-0.0074070288492453975
1772699609701086000,3.9580859375,0.07082417928576469,-0.012123143822303973,0.019629395833145828
1772699609711043000,3.96804296875,0.07366787827908992,0.006037480932800099,0.00872243142990337
1772699609721000200,3.978000244140625,0.07501403219103812,0.00832645038650371,-0.0050065241708216485
1772699609730958300,3.987958251953125,0.07501344766914844,-0.0003144590769195929,-0.008646356248453958
1772699609740915000,3.9979150390625,0.08234569025337696,-0.00806061622428242,-0.0037848620049335292
1772699609750872000,4.0078720703125,0.08713409357368945,0.0064754704912658775,-0.006032868689764291
1772699609760829200,4.0178291015625,0.0804004014045,0.010709427399747073,0.007758315659326035
1772699609770786000,4.0277861328125,0.08279460306465625,0.006966793105588294,0.0012190363839617929
1772699609780743200,4.0377431640625,0.06139584120512008,-0.009601945648458786,-0.00016751803703373298
1772699609790700300,4.0477001953125,0.07216916415393353,-0.0015108246880583464,0.015441039623570395
1772699609800658200,4.057658203125,0.08488777595162392,-0.005236334317480214,0.01851004326426191
1772699609810615000,4.067614990234375,0.06992401557564736,-0.014393189379828981,0.005599035858252319
1772699609820572200,4.077572265625,0.07471241889595985,0.005411521921027451,-0.005332361445814604
1772699609830529300,4.087529296875,0.0836906751215458,0.005622534323204308,0.009375586121744708
1772699609840486100,4.097486083984375,0.06274082607328892,-0.002427542240754701,-0.005203952718107029
1772699609850443000,4.107443115234375,0.07546002239286899,-0.009854367773258127,-0.027116354055050758
1772699609860400000,4.117400146484375,0.07351414902210235,-0.018606213098135777,-0.0071313839665963314
1772699609870357000,4.12735693359375,0.07905074036121368,-0.000031687479629181325,0.0026027201403252547
1772699609880315100,4.137315185546875,0.08578326348662375,-0.0042952038427349175,-0.002804643912104075
1772699609890272300,4.147272216796875,0.07351297997832298,-0.0006111496017081662,-0.01666916806286317
1772699609900229000,4.15722900390625,0.05899813241362571,0.002945204872731119,-0.0023667416894284543
1772699609910186000,4.16718603515625,0.07141863804757595,0.00840616455920972,-0.0014933518218051176
1772699609920143000,4.17714306640625,0.06663023472726344,-0.0047996827661525455,0.008339720860030502
1772699609930100200,4.187100341796875,0.06483399896025657,-0.002406266557285562,-0.0024023701252357567
1772699609940057000,4.19705712890625,0.07620704136788845,0.0054383277295622975,0.004654219584833481
1772699609950015000,4.207014892578125,0.07695522938668728,0.011715248008002527,0.004456302984603098
1772699609959972000,4.21697216796875,0.05705284356474876,-0.011420635275868698,-0.0021037256762007016
1772699609969929200,4.22692919921875,0.06348609148263931,0.011559746919036842,0.011316526447422802
1772699609979886000,4.236885986328125,0.0705184743374586,-0.003721280978876166,0.00570589547867712
1772699609989843200,4.24684326171875,0.07246259414255618,0.008166099592484533,-0.0024194582573545628
1772699609999800300,4.25680029296875,0.07320961311757564,0.011561952575854956,0.0008779113499360391
1772699610009757000,4.2667568359375,0.07395721661448479,-0.012202839728700928,0.0006857874529639957
1772699610019715000,4.276715087890625,0.07979308316111564,0.0032302003931486975,0.0058195084960520034
1772699610029672200,4.286672119140625,0.06273381181061267,0.0071788466873811555,-0.013087495342432521
1772699610039629300,4.29662939453125,0.06198562379181385,0.007907352758175694,-0.018454349287960213
1772699610049586200,4.306586181640625,0.07649930231273173,0.002900374783738516,0.00022563115764060056
1772699610059543000,4.31654296875,0.07784604074656963,-0.023185421514022163,-0.010969813635293394
1772699610069500200,4.326500244140625,0.08173603392243385,0.002072477158810943,-0.0011307204921584342
1772699610079457000,4.33645703125,0.06647358286082744,-0.008370636588102207,0.008640116591445984
1772699610089414100,4.3464140625,0.06213409235179424,0.008264979689964093,0.014131341839558444
1772699610099372000,4.3563720703125,0.07081307336986065,-0.00757417528105434,0.014698241307586431
1772699610109329200,4.3663291015625,0.07245908701121807,-0.005795333606842905,-0.0016185719369386788
1772699610119286000,4.3762861328125,0.06737140848338603,0.0013386829915456473,-0.013712576429726323
1772699610129243100,4.3862431640625,0.08847089513540267,0.0014632546527078374,-0.0023097930460236967
1772699610139200300,4.3962001953125,0.07949322343170642,0.004425588756753132,-0.005284310207384987
1772699610149157000,4.4061572265625,0.0721609808474779,-0.009076844062120653,0.004582197240705136
1772699610159114200,4.4161142578125,0.0657259793639183,-0.004634217405598611,-0.014146779153996612
1772699610169072000,4.426072021484375,0.08892039246857165,-0.01395360151932109,-0.0039536723833327415
1772699610179029200,4.436029296875,0.07560264573395252,-0.0020707053268328307,-0.0032225142727926137
1772699610188986000,4.445986083984375,0.08068915521800518,-0.003910593005898408,0.004660063091263873
1772699610198943200,4.455943115234375,0.07994155172109603,-0.00009194803319405763,-0.01885280370377004
1772699610208900000,4.465900146484375,0.07455459798574447,0.004575765216629952,-0.013791958383936435
1772699610218857000,4.47585693359375,0.06497720682322979,-0.0008748055065749212,-0.0023413869108189827
1772699610228814000,4.48581396484375,0.06452887853384018,-0.008938960828236303,-0.005256206920085242
1772699610238772200,4.495772216796875,0.0769499686896801,-0.003380111991544254,0.005376488281908677
1772699610248729300,4.505729248046875,0.06557751080393791,-0.004599954376392997,0.004509649740191525
1772699610258686000,4.51568603515625,0.07246025605499744,-0.006999718127655796,0.0056614227243553614
1772699610268643000,4.52564306640625,0.08547931210398674,-0.01570795263967011,-0.0021491237332404126
1772699610278600200,4.53560009765625,0.0842827957957983,-0.015388237432320602,-0.019545779520168435
1772699610288557000,4.54555712890625,0.07216214989125729,-0.000604646795685403,-0.01447286017005099
1772699610298514200,4.55551416015625,0.07186229016184806,0.010204117359267547,-0.01315307253357605
1772699610308472000,4.56547216796875,0.07635083375275134,0.007277840949292294,-0.004599153512905468
1772699610318429200,4.57542919921875,0.07829670712351798,0.0075526621355675155,0.016174088297097478
1772699610328386000,4.585385986328125,0.07695055321156978,-0.015587714660330675,0.014016696775722084
1772699610338343200,4.59534326171875,0.08592822491526603,0.0059922078858129675,0.015864799727284117
1772699610348300300,4.60530029296875,0.07515373292267322,0.0027675969832343978,0.009850812692858743
1772699610358257200,4.615257080078125,0.06512742894887924,-0.0016647411747137083,0.016434020158206112
1772699610368214000,4.625214111328125,0.0727583622187376,-0.0010607017338043077,0.005297022416841355
1772699610378171100,4.635171142578125,0.07350596571564674,0.0023734374333405864,-0.009568304815405281
1772699610388129300,4.64512939453125,0.08846914156973361,-0.005266176899895072,-0.0099047759363777
1772699610398086100,4.655086181640625,0.08457797935009002,0.007814212848315946,-0.0017847376962803537
1772699610408043300,4.665043212890625,0.06497603777945041,0.008435116659058257,-0.006095808682538336
1772699610418000100,4.675000244140625,0.0715600923448801,0.0051260697428835555,-0.012727394467411795
1772699610427957000,4.68495703125,0.0833802939981222,-0.006604362134519033,-0.007887047472374979
1772699610437914000,4.6949140625,0.07245674892365932,0.0006078023005742579,-0.006361706206019152
1772699610447871200,4.704871337890625,0.08951602027416229,-0.005757590845762751,0.00884869500794157
1772699610457829000,4.7148291015625,0.08412848201692104,-0.0022757537791039794,-0.00369636173757317
1772699610467786000,4.724785888671875,0.08008768219351768,-0.017041694594617,-0.01566952032542322
1772699610477743000,4.7347431640625,0.082630936935544,-0.006204014872433617,-0.00925314476887579
1772699610487700200,4.7447001953125,0.0869710119664669,-0.00601814604466781,-0.0020427498824719804
1772699610497657000,4.754656982421875,0.08023673527538776,-0.010299864784744567,-0.005420676766795804
1772699610507614200,4.7646142578125,0.07679507038891314,-0.0015792365820379926,-0.0012800064694689353
1772699610517571300,4.7745712890625,0.08337970947623252,0.00011187657637055962,-0.008265196602384093
1772699610527529000,4.784529052734375,0.08113572994172573,0.006190753532061353,0.0001480901048897067
1772699610537486000,4.794486083984375,0.07739537436962127,-0.004732481015147641,0.0006797732707083924
1772699610547443200,4.804443115234375,0.08876783225536346,-0.0028692444265354423,-0.000374221873562783
1772699610557400300,4.814400390625,0.07275602413117885,0.006423448043083772,-0.017802955582475986
1772699610567357200,4.824357177734375,0.06961363445222378,0.0030966417079325765,-0.006511800467505236
1772699610577314000,4.83431396484375,0.0733551590681076,-0.014444051917386241,-0.0030891371090227037
1772699610587271200,4.844271240234375,0.0877203690290451,-0.00948307307572104,0.020211104711238295
1772699610597228000,4.85422802734375,0.07081015076041221,-0.0010184243615018204,0.014073265251569681
1772699610607186200,4.864186279296875,0.0696124654084444,-0.014804793254868127,-0.0005956894543836824
1772699610617143000,4.87414306640625,0.09564940846264362,-0.008204189413436688,-0.004227385032977327
1772699610627100200,4.88410009765625,0.07335340550243855,0.024269956214562988,-0.004303880910357111
1772699610637057000,4.89405712890625,0.08248071480989455,0.0023439419107977298,0.0033704000233497934
1772699610647014100,4.90401416015625,0.07619476640820502,-0.011287834642478263,0.0006488906503218459
1772699610656971300,4.91397119140625,0.07978548437654971,0.006092942013661376,-0.0076227351220266425
1772699610666927600,4.923927734375,0.08996142595410346,-0.004494023483619093,-0.014474883163778577
1772699610676885500,4.933885498046875,0.0715560006916523,-0.007280183603428304,-0.005332629732228815
1772699610686842400,4.94384228515625,0.06841536457836628,-0.0018575375001877545,-0.0023970220924384193
1772699610696799500,4.953799560546875,0.07649579518139361,-0.00440682469077874,0.0014733781836781417
1772699610706756600,4.963756591796875,0.07215572015047073,-0.0059749873229535296,0.001839519498773734
1772699610716713500,4.97371337890625,0.08188274891674518,-0.005236192753585055,0.00910175245780265
1772699610726670600,4.983670654296875,0.07215630467236042,-0.0059282666709739714,0.004394528610675479
1772699610736627500,4.99362744140625,0.08592237969636916,-0.009112942855386063,0.002808845163186197
1772699610746585600,5.003585693359375,0.06617196956574917,-0.0014829229009803383,0.0008079205618676496
1772699610756542500,5.01354248046875,0.07365384975373744,0.00340651594127994,-0.005583980423837783
1772699610766499600,5.02349951171875,0.07111059501171112,-0.0013373221515212206,0.002463629046754795
1772699610776456700,5.033456787109375,0.06721943279206752,-0.01739485084726475,-0.026448377965879625
1772699610786413300,5.043413330078125,0.06677168902456761,-0.005850054902187548,0.0030608494461659575
1772699610796370400,5.053370361328125,0.0729062462568283,-0.01080737134888768,-0.00019048734984535256
1772699610806327600,5.06332763671875,0.07335457454621791,-0.002476409184047952,-0.006715776915763853
1772699610816285700,5.07328564453125,0.06751929252147675,0.01279279127875343,-0.00579857873081055
1772699610826242600,5.08324267578125,0.07470248202383518,0.003091358178039081,-0.02261615655897185
1772699610836199400,5.093199462890625,0.08113631446361541,0.006157577348244376,-0.0030887786327075443
1772699610846156500,5.103156494140625,0.08382979133129119,-0.012863385996664874,0.0013527195084083359
1772699610856113400,5.113113525390625,0.08068740165233612,-0.0017715899495175107,0.002767098084668396
1772699610866070500,5.123070556640625,0.06452654044628144,-0.017813615115452555,0.006045027201727498
1772699610876027600,5.133027587890625,0.05869067389965057,-0.006133867679093964,-0.002176887952178367
1772699610885984500,5.142984619140625,0.0806879861742258,-0.009588013021228834,0.010414147947332822
1772699610895942400,5.1529423828125,0.07575052977204322,0.006838070425693877,0.016210008993849622
1772699610905899500,5.1628994140625,0.06901683760285376,-0.009244464847142808,0.011855798123008571
1772699610915856600,5.172856689453125,0.07260755557119845,-0.010598121645534411,0.005153883623349247
1772699610925813500,5.1828134765625,0.08143558967113494,0.00488202272078488,0.0023291165177128275
1772699610935770600,5.1927705078125,0.08547580497264862,-0.011051569068036041,-0.013818538146896753
1772699610945727500,5.2027275390625,0.10433072756826876,-0.0041751896256813775,-0.0075640095092443516
1772699610955684400,5.212684326171875,0.08607493990957736,0.01227146168523468,0.011811034249386284
1772699610965642500,5.222642578125,0.08742050929963588,-0.0005065521494951099,0.01126758073067176
1772699610975599600,5.232599609375,0.07410276256501674,-0.010968215333251282,0.020182020180649123
1772699610985556500,5.242556396484375,0.06557458819448947,-0.0025879661000100893,0.004870655939154676
1772699610995513300,5.252513427734375,0.0827834971487522,-0.00039238771791569885,0.012344540621177293
1772699611005470500,5.262470458984375,0.07230886488556862,0.0019380188578739762,0.007962627751013496
1772699611015427600,5.272427490234375,0.07545183908641338,-0.0025770702466601505,0.015454263289680237
1772699611025384400,5.282384521484375,0.08143675871491432,-0.018840304981800726,0.014416072498494758
1772699611035342300,5.29234228515625,0.08637421511709689,0.009177669521514326,0.0018331970725528662
1772699611045299500,5.302299560546875,0.06288111132681369,-0.00904211980861146,-0.014809243384411091
1772699611055256600,5.312256591796875,0.0708107352823019,0.005642750560748391,-0.0011960368175758047
1772699611065213400,5.32221337890625,0.08577449565827847,0.004936479154648259,-0.015332316268800059
1772699611075170600,5.332170654296875,0.0721568891942501,-0.0012597268706653266,0.015283169622649438
1772699611085127700,5.342127685546875,0.06183131001293659,-0.010173649155767633,0.01026569537037285
1772699611095084500,5.35208447265625,0.08233107720613479,-0.0019189305649138985,-0.020305879455758256
1772699611105041400,5.36204150390625,0.06736673230826855,-0.005944400388444774,-0.013767545461887493
1772699611114999600,5.37199951171875,0.08637070798575877,0.002082619526912458,-0.004546024240559199
1772699611124956700,5.381956787109375,0.07140636308789253,-0.0006936950523173436,0.00844103323072486
1772699611134913500,5.39191357421875,0.08547346688508987,0.005455831420212052,0.021907172605977392
1772699611144870400,5.401870361328125,0.06362637673616409,0.010084281238727271,0.0012402036112209316
1772699611154827500,5.41182763671875,0.0757470226407051,-0.0013132243233034387,-0.005550391535600647
1772699611164784400,5.421784423828125,0.07589666024446487,-0.002962484801094979,-0.007511766152887139
1772699611174741500,5.431741455078125,0.0622796383023262,-0.008166035660402849,0.0021216466378478796
1772699611184699600,5.44169970703125,0.07769231148958206,-0.004896512470440938,0.006540888993849512
1772699611194656500,5.451656494140625,0.08143266706168652,-0.0012236965760588645,-0.010341277932299999
1772699611204613400,5.46161328125,0.07065875959098339,-0.0018713924956042318,-0.007129596722419956
1772699611214570500,5.471570556640625,0.08517302263379097,0.01639908584214281,0.0037723393084335838
1772699611224527600,5.481527587890625,0.06676818189322949,-0.00442242411870975,-0.0013893868405430111
1772699611234484500,5.491484375,0.07140636308789253,-0.0007111028448445723,0.00648807824026735
1772699611244441600,5.501441650390625,0.06182955644726753,-0.008476357418322004,0.01152604329554597
1772699611254398500,5.5113984375,0.07484802797436714,-0.001988616533949971,0.011885907850193325
1772699611264356600,5.521356689453125,0.07798983313143253,-0.0036425805863225832,0.008025809201560333
1772699611274313500,5.5313134765625,0.07215396658480167,-0.015048625647835432,-0.0002711593621323118
1772699611284270600,5.5412705078125,0.07484744345247744,-0.0049271998696494845,0.00714002678488905
1772699611294227700,5.551227783203125,0.0740998399555683,0.002841881495574489,0.00783731402104604
1772699611304184300,5.561184326171875,0.07649404161572455,-0.005185115586896427,-0.007928758589096833
1772699611314141400,5.571141357421875,0.0727536860436201,-0.0046275136701762675,-0.008659950948966435
1772699611324098600,5.5810986328125,0.07320318337678909,0.000646860235906206,0.008440467545966385
1772699611334056700,5.591056640625,0.0688631083458662,-0.01136354849350173,0.005423945865294081
1772699611344013600,5.601013671875,0.07365092714428902,0.001269545011781156,0.0017425704926543402
1772699611353970400,5.610970458984375,0.0854722978413105,0.003916958814603276,-0.014372384053817949
1772699611363927600,5.620927490234375,0.09490005140006541,-0.0065520200259285045,0.01063955420104321
1772699611373884400,5.630884521484375,0.07170622281730174,-0.0070136827209265895,0.007451242450307472
1772699611383841500,5.640841552734375,0.06856441766023635,-0.0024120158780599013,0.007603086852529668
1772699611393798700,5.650798583984375,0.06901391499340534,-0.0068693514799466355,-0.0019073685621056938
1772699611403756500,5.660756591796875,0.08562251996695995,-0.0011820356916869058,-0.0019496231015218653
1772699611413713400,5.67071337890625,0.08786708402335643,-0.0006369050974724814,0.004762264802880236
1772699611423670500,5.68067041015625,0.09729483758211135,0.011051267673936672,-0.006966142368328291
1772699611433627600,5.690627685546875,0.07993804458975791,0.0031591490175109354,-0.002453802914128755
1772699611443584500,5.70058447265625,0.07125906357169151,-0.0009626527533866464,0.005640597990390961
1772699611453541600,5.710541748046875,0.0696124654084444,-0.008872978353360667,-0.00802428967297601
1772699611463498500,5.72049853515625,0.07365326523184776,0.0021412498123943805,-0.001813958082543104
1772699611473456600,5.73045654296875,0.07814297786653042,-0.0012285645474214106,-0.0007882871337467804
1772699611483413500,5.74041357421875,0.07051146007478237,-0.012456841889233327,-0.003078323454063502
1772699611493370600,5.75037060546875,0.07649637970328331,0.002558086984977126,-0.007316708800845662
1772699611503327500,5.760327392578125,0.08757014690339565,0.008904044778482056,0.0035843567262170833
1772699611513284400,5.770284423828125,0.06946341232657433,-0.0003293095861794427,0.005259805382968625
1772699611523241500,5.780241455078125,0.07589724476635455,-0.01629094472597353,0.019804473838838748
1772699611533198600,5.790198486328125,0.06706745710074902,-0.0067356192647945136,-0.008619053253819583
1772699611543155500,5.800155517578125,0.07245382631421089,0.0019593995726201684,0.0107755320305645
1772699611553113300,5.81011328125,0.07589549120068549,-0.011216481872741131,0.008559283607310498
1772699611563070500,5.820070556640625,0.07050912198722362,0.0005660911838524043,-0.010861080005724215
1772699611573027600,5.830027587890625,0.08472469434440136,-0.00556143808600027,0.0018011454083869465
1772699611582984400,5.839984375,0.0919072993248701,-0.012817195067647844,0.009064099315801285
1772699611592941600,5.849941650390625,0.06706687257885932,-0.007076139798155054,-0.0017194145209970884
1772699611602898700,5.859898681640625,0.0749976655781269,-0.0073522167931776485,-0.01540985789237311
1772699611612855600,5.86985546875,0.07559621599316596,-0.005698549568327144,-0.008592774884958635
1772699611622813400,5.8798134765625,0.07858838354647159,-0.005376569338655099,0.012899856965977232
1772699611632770600,5.8897705078125,0.07574526907503605,-0.006753876440692692,0.002887178517092252
1772699611642727700,5.899727783203125,0.0690109923839569,-0.009335750726633705,-0.011153940313833299
1772699611652684500,5.9096845703125,0.06452186427116394,-0.014730344345746561,-0.0024796605870593337
1772699611662641400,5.919641357421875,0.06437281118929386,-0.01389605351265054,-0.0017271223325951723
1772699611672598800,5.929598876953125,0.06826338888704776,0.004571605064743198,0.010010561840323498
1772699611682555600,5.9395556640625,0.08277823645174504,-0.013562323479680343,-0.00027275309759716037
1772699611692512800,5.9495126953125,0.07619359736442566,0.002085660867369734,-0.013464143210166367
1772699611702470700,5.959470703125,0.08187982630729675,-0.0005069768411805853,0.0035218773869244613
1772699611712427800,5.969427734375,0.06362520769238472,-0.0023790314904879777,0.009327519471116829
1772699611722384600,5.979384521484375,0.07724222963452339,-0.010094798066164366,-0.0031641505612584296
1772699611732341800,5.989341796875,0.06706745710074902,-0.01102127439447213,-0.007083506828924873
1772699611742299000,5.999298828125,0.07978665342032909,-0.00524798822265584,-0.01351631293046521
1772699611752255700,6.009255859375,0.08232990816235541,-0.006730947656254284,0.0034014458988734985
1772699611762212900,6.019212890625,0.07574585359692573,0.007756304082041606,-0.005696651584652135
1772699611772170800,6.029170654296875,0.0802349817097187,-0.004010989207029343,0.0067439081733493365
1772699611782127900,6.0391279296875,0.09445055406689644,-0.009264302058774047,0.010183711608767044
1772699611792084700,6.049084716796875,0.08218027055859566,-0.001797089716955088,0.013704478746594395
1772699611802041900,6.059041748046875,0.08023556623160838,0.006990411443193443,0.012494640590884955
1772699611811998700,6.068998779296875,0.0709586193203926,0.00183593758973293,-0.011816098583571147
1772699611821955600,6.07895556640625,0.06527239037752151,0.004004472701274789,-0.0029575254981871694
1772699611831912700,6.08891259765625,0.07589724476635455,0.016204595316504127,-0.006816428274399368
1772699611841870800,6.098870849609375,0.07948913177847862,0.007065312443464063,-0.004674733791543985
1772699611851828000,6.108827880859375,0.08846680348217487,0.009230376956285908,-0.006502343656815355
1772699611861784600,6.11878466796875,0.08442600365877151,-0.017974230770953,-0.006987149765383219
1772699611871741700,6.12874169921875,0.07844049950838089,-0.0009545196792809292,-0.000569791253079893
1772699611881698800,6.13869873046875,0.07125789452791213,0.002235700329928659,-0.0015810129805933684
1772699611891655700,6.14865576171875,0.08786708402335643,-0.0007120526929153129,0.009850297811272321
1772699611901612800,6.15861279296875,0.06287818871736527,-0.007534742886386812,0.0035818279840575994
1772699611911570000,6.16856982421875,0.06078267774283885,-0.010282000334491021,0.006057948332093656
1772699611921527600,6.178527587890625,0.06512275277376174,-0.002793713238602504,-0.0021167352840013335
1772699611931484700,6.188484619140625,0.07170622281730174,-0.00775976098102983,-0.006220590406254632
1772699611941441800,6.19844189453125,0.08412672845125198,-0.023931015716935507,0.0026605290127219633
1772699611951399000,6.20839892578125,0.08861585656404494,-0.011336655919998884,0.0010948374696687095
1772699611961355800,6.218355712890625,0.07993746006786823,0.006493006147956475,0.005680996786971809
1772699611971312600,6.228312744140625,0.08263035241365432,-0.006559687309153378,0.0046340912539017155
1772699611981269800,6.238269775390625,0.09041209233105182,-0.004428730561910197,-0.012344549754331819
1772699611991227600,6.2482275390625,0.08831658135652541,-0.007785735672502778,-0.007508023842819966
1772699612001184800,6.258184814453125,0.07380173379182815,0.0006941608431981876,-0.001176655692848726
1772699612011142000,6.268141845703125,0.0661702160000801,-0.002444831302273087,-0.015136235432629472
1772699612021098800,6.2780986328125,0.07260463296175003,-0.00005290379759389907,0.0059027920197113415
1772699612031055600,6.2880556640625,0.07125789452791213,-0.0031918457107152787,0.0028062085356388706
1772699612041012700,6.2980126953125,0.06452420235872268,-0.0129228839318268,0.007264721743637346
1772699612050969900,6.307969970703125,0.07694412347078323,-0.018708732757694087,0.013703654479398392
1772699612060926700,6.3179267578125,0.0636257922142744,-0.017411546253738922,0.004349917717391508
1772699612070884600,6.327884521484375,0.07694353894889354,-0.0024861542599275708,0.015656977079325587
1772699612080841700,6.337841796875,0.06287760419547557,-0.005869668351532891,-0.015555199488572542
1772699612090798800,6.347798828125,0.08173252679109573,-0.009091425143321976,0.0024251093967177437
1772699612100755700,6.357755615234375,0.07978665342032909,-0.008013973204116337,-0.0038758961518527936
1772699612110712800,6.367712890625,0.07589666024446487,-0.006558618730073794,0.009013712273101555
1772699612120670000,6.377669921875,0.06287818871736527,-0.007849169997265561,0.009101194193732226
1772699612130626600,6.38762646484375,0.06991115609407425,-0.0008604847202775999,0.0003523154316091677
1772699612140584700,6.397584716796875,0.08292904309928417,0.0062150431565241885,-0.003790972656133817
1772699612150541800,6.407541748046875,0.06467325544059276,0.007127221531420946,0.0025566165470983834
1772699612160499000,6.4174990234375,0.08697042744457721,-0.006789993500267155,-0.004646871391194872
1772699612170455800,6.427455810546875,0.08337912495434284,0.0019926853542914613,0.004896696275175781
1772699612180412700,6.43741259765625,0.06347790817618369,-0.008423567785159684,0.0049079289135988795
1772699612190369800,6.447369873046875,0.06796703628897667,-0.010951433161809108,0.0116255718469969
1772699612200326700,6.45732666015625,0.07814297786653042,-0.006288651815429329,-0.007855466165667166
1772699612210283800,6.46728369140625,0.08368015372753143,-0.007662807979155331,-0.002266643457463942
1772699612220241700,6.47724169921875,0.0651250908613205,0.0011534123854013158,-0.010352479746326571
1772699612230198800,6.48719873046875,0.06048632514476776,0.012471815696079283,-0.006365994222069275
1772699612240155600,6.49715576171875,0.06976327205598354,-0.007768857602938078,-0.006547098397283116
1772699612250112800,6.50711279296875,0.0833808785200119,-0.002444826735695824,-0.0010150565107702276
1772699612260070000,6.51706982421875,0.06916472164094448,-0.000009032689826563001,-0.0065156021430768304
1772699612270026800,6.52702685546875,0.06946516589224339,0.0012092068264028058,-0.013561522045370656
1772699612279983900,6.53698388671875,0.06811842745840549,-0.0018692279379814863,0.010018311321939108
1772699612289941800,6.546941650390625,0.07664718635082245,-0.006937151452573016,0.015298949430382344
1772699612299898600,6.556898681640625,0.06781915225088596,-0.008924411713075824,0.0028737858876236714
1772699612309855700,6.566855712890625,0.07889175040721892,-0.01665638963803649,-0.0036719727900548604
1772699612319812900,6.576812744140625,0.07649696422517299,-0.005093615078274161,0.0033512643521506104
1772699612329769700,6.586769775390625,0.07799334026277065,0.004108006140985526,-0.0014983442323980851
1772699612339726600,6.5967265625,0.07365384975373744,-0.0036058150727767495,-0.005421526720988913
1772699612349683700,6.60668359375,0.08353051612377166,0.0012226873624837024,0.002376822979559074
1772699612359641900,6.616641845703125,0.07215805823802948,-0.0043007568006869406,0.006334912384749623
1772699612369598700,6.6265986328125,0.08278291262686252,-0.005992838073475286,-0.003468446149656665
1772699612379555600,6.6365556640625,0.0820347246080637,-0.00702571565201506,-0.0011431330199819058
1772699612389512700,6.6465126953125,0.07290683077871798,-0.009527588070882484,-0.016591540815966435
1772699612399469800,6.6564697265625,0.05659633196890354,-0.0005609720507403835,-0.0131485150894674
1772699612409426700,6.6664267578125,0.07485153510570526,-0.005075513166002929,-0.013559964842523912
1772699612419383800,6.6763837890625,0.0738040718793869,0.004473788979765959,0.0024475615446543086
1772699612429341000,6.6863408203125,0.08278232810497284,0.006485083136404864,-0.006631843796488829
1772699612439298600,6.696298583984375,0.0833802939981222,-0.0038281297536799683,-0.014224972656473982
1772699612449255700,6.706255615234375,0.08218319316804408,-0.009918742812937125,-0.0031362533407576845
1772699612459212800,6.716212890625,0.08457797935009002,0.007657524449261837,-0.003901045434485422
1772699612469170000,6.726169921875,0.0802390733629465,-0.016829476616042664,-0.000895977300411323
1772699612479126800,6.736126708984375,0.07754618101716042,0.014130204761819913,0.008551634590394678
1772699612489083600,6.746083740234375,0.08293430379629135,0.005230297302338294,-0.009423366219649324
1772699612499040800,6.756040771484375,0.07649988683462143,-0.011394902612990698,-0.010151569754700177
1772699612508998700,6.76599853515625,0.09011632425487041,-0.00013175488719716668,-0.002548492606147192
1772699612518955800,6.775955810546875,0.08068915521800518,0.0024323143139947205,-0.006900185009627602
1772699612528913000,6.785912841796875,0.07829495355784892,0.000135878506465815,-0.007278900966039509
1772699612538869800,6.795869873046875,0.09774784204661846,-0.008052930674748495,0.0016542146432999287
1772699612548826600,6.80582666015625,0.0827840816706419,-0.0007835515931248664,0.004605631202753284
1772699612558783700,6.81578369140625,0.06602467004954815,-0.003524644161923788,-0.0030131852251593953
1772699612568740900,6.825740966796875,0.07949263890981674,-0.011465259868884458,0.004387148450996028
1772699612578697700,6.83569775390625,0.07395663209259509,-0.006848788182530552,0.010126860005129128
1772699612588655600,6.845655517578125,0.08323357900381088,-0.01189698408334516,0.0223432921510539
1772699612598612700,6.85561279296875,0.08443067983388901,-0.012048781678150407,0.01305011562424479
1772699612608569900,6.86556982421875,0.06437865640819072,-0.0004634071275126189,0.0026257990509911903
1772699612618526700,6.875526611328125,0.06752163060903549,0.002097419803822413,-0.007651372698866179
1772699612628483800,6.88548388671875,0.08083879282176494,0.005051890261820517,0.0007738921405689325
1772699612638441000,6.89544091796875,0.07081248884797096,0.0018005968482932074,0.0015264891897153574
1772699612648397600,6.9053974609375,0.05375438654124737,-0.0035435360920615493,-0.003901501521389582
1772699612658355700,6.915355712890625,0.07994155172109603,-0.019074282701034097,0.006038079154421575
1772699612668312600,6.9253125,0.08892039246857165,-0.020516056174295954,0.010214003999042324
1772699612678269400,6.93526953125,0.07186229016184806,-0.010920576799241825,0.005508878494167584
1772699612688226600,6.9452265625,0.07051555172801018,-0.004257753342599608,0.011610209881083574
1772699612698183400,6.955183349609375,0.0730593909919262,-0.020257396104955114,0.011015227104531367
1772699612708140300,6.965140380859375,0.071263739746809,-0.0022487333414377645,-0.004649119859674829
1772699612718097400,6.975097412109375,0.07066518933176993,0.0027648890029173343,-0.0010649937456095357
1772699612728055600,6.9850556640625,0.08278641975820064,-0.010524330323538743,0.008505451652887859
1772699612738012700,6.9950126953125,0.07814823856353759,-0.012160270095453597,-0.011387325519666773
1772699612747969300,7.00496923828125,0.07336100428700447,0.00502899344342295,-0.02654809831357561
1772699612757926400,7.014926513671875,0.0652817427277565,0.009758647747244685,-0.010314799775683786
1772699612767883500,7.024883544921875,0.07216507250070571,0.001194205620093271,0.003174500708625419
1772699612777840400,7.03484033203125,0.08129296633005141,-0.008984197342605329,-0.0037866543865093263
1772699612787797500,7.044797607421875,0.08772738329172133,0.0029919620573287827,-0.009809120984090258
1772699612797754600,7.054754638671875,0.08219079195261002,0.003066963522299193,-0.009987960707803722
1772699612807712500,7.06471240234375,0.07156593756377697,-0.014398153249314054,-0.0019054694367863702
1772699612817669400,7.07466943359375,0.07366086401641368,-0.0014667069851187987,-0.008692768085646093
1772699612827626500,7.08462646484375,0.06558043341338635,-0.002359189712279476,-0.011440986227442045
1772699612837583600,7.09458349609375,0.06408464189767837,-0.0053272868368308985,0.004835159934088005
1772699612847540500,7.10454052734375,0.07246493223011494,-0.004088041065190918,0.0041126931617240185
1772699612857497300,7.114497314453125,0.08862520891427993,-0.0016840806294232606,-0.003298628270148765
1772699612867454500,7.124454345703125,0.07111760927438736,0.0011229213490150868,-0.015459553669439628
1772699612877412600,7.13441259765625,0.06782441294789314,0.002605246028373949,-0.001750418155681109
1772699612887369500,7.144369384765625,0.07695230677723884,0.00266265247114934,-0.0010105498698336304
1772699612897326600,7.15432666015625,0.07380991709828376,-0.0039107756689889354,-0.015569423235103021
1772699612907283500,7.164283447265625,0.07575462142527103,-0.004923021451453678,-0.011794030598946846
1772699612917240300,7.174240234375,0.07186404372751712,-0.01480003944793716,-0.0030856134238420054
1772699612927197400,7.184197509765625,0.08458265552520751,-0.01328561629699543,-0.0007537512515496927
1772699612937154600,7.194154541015625,0.08129062824249267,-0.01518120251893997,-0.005307155080966185
1772699612947111700,7.204111572265625,0.08069149330556392,-0.006247840314428321,-0.005671743759792298
1772699612957069300,7.2140693359375,0.07261223174631595,-0.0005955456071998923,0.01076611004002625
1772699612967026400,7.2240263671875,0.06812368815541267,0.0013781108196359126,0.01697054047099082
1772699612976983600,7.233983642578125,0.07096621810495853,0.003336788873048499,0.005839015772475977
1772699612986940400,7.2439404296875,0.07111644023060798,-0.005147007499635219,0.0022678119304211574
1772699612996897500,7.2538974609375,0.07126607783436775,0.013629232969740404,-0.002658782867740956
1772699613006854700,7.263854736328125,0.07395897018015385,-0.005683625993831083,0.00795107145642687
1772699613016811500,7.2738115234375,0.05076514159739017,0.003762097046454437,-0.004813591989674023
1772699613026769400,7.283769287109375,0.07844809829294681,0.01019589752019383,0.008555823854211485
1772699613036726500,7.2937265625,0.08024316501617432,0.0006735473134322091,-0.0013893908362981164
1772699613046683600,7.30368359375,0.08174012557566165,0.008330820600944571,-0.005014963776426157
1772699613056640500,7.313640625,0.07650164040029049,-0.01249491344387643,-0.007887193032025243
1772699613066597400,7.323597412109375,0.083833882984519,0.00035790092642419037,-0.013934472127165644
1772699613076554500,7.333554443359375,0.08937105884552002,-0.01195226250111591,0.0020344929399579996
1772699613086511400,7.343511474609375,0.05465571929514408,0.008482682127831502,0.008772964603075525
1772699613096468500,7.353468505859375,0.07590367450714111,-0.012988172286958434,0.0053872203092993004
1772699613106426400,7.36342626953125,0.08937105884552002,-0.0023703823931515216,-0.004585079892602516
1772699613116383500,7.373383544921875,0.0606412234455347,0.005648116289032623,-0.010296711563144344
1772699613126340400,7.38334033203125,0.05989245090484619,-0.012548333264701068,-0.005407300691169803
1772699613136297500,7.39329736328125,0.07919570178985595,-0.009122308905352837,-0.003314620994546567
1772699613146254600,7.403254638671875,0.06557809532582759,-0.0024912551267305388,-0.014792236309038706
1772699613156211500,7.41321142578125,0.07395780113637447,-0.005344630697276443,-0.01046627542679198
1772699613166168600,7.42316845703125,0.08278700428009032,-0.0028301773580489678,-0.0060760057202365715
1772699613176126500,7.43312646484375,0.07949556151926516,0.010400735909910872,-0.011651879898610058
1772699613186083600,7.44308349609375,0.07276128482818603,-0.002345649810694158,-0.00547696097320877
1772699613196040400,7.45304052734375,0.07650280944406986,0.0057965620161267,0.015066040290228556
1772699613205997600,7.46299755859375,0.08622925368845462,-0.011668303593737073,-0.004159962373797316
1772699613215954400,7.472954345703125,0.07320961311757564,-0.012001334940386004,0.0026101294119347585
1772699613225911300,7.482911376953125,0.0676730217784643,-0.012602547669969499,0.0015175969221396372
1772699613235868400,7.492868408203125,0.0729109224319458,0.00510235550715588,-0.0024918464984861203
1772699613245826600,7.50282666015625,0.07590367450714111,0.008180205749650485,0.00442471768214018
1772699613255783700,7.51278369140625,0.07740005054473877,-0.011666239500814116,-0.0036492044066428206
1772699613265740300,7.522740234375,0.07351005736887455,0.006172811449994333,-0.0020588676169223615
1772699613275697400,7.532697509765625,0.08368658346831798,-0.007852362034772522,0.006229139609713456
1772699613285654500,7.542654541015625,0.09386194052398204,-0.007677252063038758,0.00807666945582896
1772699613295611400,7.552611328125,0.08907236815989017,0.009090374830551445,-0.01741605574878631
1772699613305568500,7.562568603515625,0.07620353423655032,-0.00214600818590261,0.008515765267636742
1772699613315525600,7.572525634765625,0.07246259414255618,0.015470198361040093,0.004064743244227429
1772699613325483500,7.5824833984375,0.0841343272358179,-0.008878120319359004,-0.008979472076782258
1772699613335440400,7.5924404296875,0.07725099746286869,-0.004717817735555582,-0.008656316524287104
1772699613345397500,7.6023974609375,0.07365969497263432,-0.008460958919790573,-0.010536113234522053
1772699613355354600,7.612354736328125,0.08458207100331783,-0.0014552403096109627,0.008643546661792787
1772699613365311500,7.6223115234375,0.0676730217784643,-0.014976099267741664,-0.006761572835847619
1772699613375268400,7.632268310546875,0.08667758197784424,-0.011332317671598867,-0.0017763951304426882
1772699613385225500,7.6422255859375,0.08338555469512939,0.0007429455881007016,-0.005086428998128395
1772699613395183600,7.65218359375,0.0797948367267847,-0.00029144352751318364,0.000900390897336183
1772699613405140500,7.662140380859375,0.06977028631865978,0.007042424758221023,0.0016215984360198488
1772699613415097600,7.67209765625,0.08383622107207775,-0.007170841477438807,0.0032514372607110997
1772699613425054500,7.682054443359375,0.06677753424346447,-0.0062487855959217995,0.0015820661474746883
1772699613435011300,7.69201123046875,0.06827332575917243,0.0023933751096716148,-0.003802003794335178
1772699613444968400,7.701968505859375,0.0784486828148365,0.006837316940445453,-0.002973740272404393
1772699613454925600,7.711925537109375,0.07336100428700447,-0.0027010756522417067,0.0006860831388417864
1772699613464882400,7.72188232421875,0.07351064189076423,-0.01256446698217187,0.0064758997495286165
1772699613474840300,7.73184033203125,0.0836859989464283,-0.01131666801131796,-0.004747406872932333
1772699613484797400,7.74179736328125,0.06453297018706798,0.0033710153696360065,-0.0026740495063539127
1772699613494754600,7.751754638671875,0.06827507932484149,-0.002694947305554524,0.02019649623057339
1772699613504711400,7.76171142578125,0.07695347582101822,-0.0009518893307773396,-0.0001472173178102821
1772699613514668500,7.77166845703125,0.08458440909087657,-0.00911910773469135,0.004297321592940715
1772699613524625700,7.781625732421875,0.08024491858184338,0.0052013771685305975,0.003057757302536629
1772699613534582300,7.791582275390625,0.08114274420440197,-0.009754779856302775,-0.003461644803645322
1772699613544540400,7.80154052734375,0.07500760245025158,-0.006072698376653716,-0.0033900460095581363
1772699613554497500,7.81149755859375,0.08398527415394783,0.0030284992420114573,-0.004483840587144368
1772699613564454700,7.82145458984375,0.08323650161325931,-0.012362286340421996,-0.0067329620876495026
1772699613574411500,7.83141162109375,0.07006839248239993,-0.0056953072984702886,-0.008168056941663962
1772699613584368400,7.841368408203125,0.08323650161325931,-0.0032804921085480597,0.003604204212647164
1772699613594325500,7.851325439453125,0.08473287765085696,0.002051667266222648,-0.006531197004430577
1772699613604282400,7.861282470703125,0.06572831745147704,-0.003130119285848923,0.003783235732605681
1772699613614239500,7.871239501953125,0.07276128482818603,0.0005918832122348248,0.00841417433572933
1772699613624197400,7.881197265625,0.07216214989125729,-0.0034416785862063986,0.004811434281917173
1772699613634154500,7.891154541015625,0.07665127800405025,0.0027255022740224374,-0.012749954500736202
1772699613644111400,7.901111328125,0.07844634472727775,-0.0031679168458562342,-0.004387093081246712
1772699613654068500,7.911068359375,0.07395721661448479,-0.007290951592614874,-0.004345388814390753
1772699613664025600,7.921025634765625,0.08173720296621322,-0.0034211335550993678,0.0037458657183946343
1772699613673982700,7.930982666015625,0.08353285421133042,-0.0007420825049979612,-0.004703772656360524
1772699613683939600,7.940939697265625,0.07949322343170642,0.007387438803608529,-0.003154199989401968
1772699613693897700,7.950897705078125,0.07470423558950423,-0.0031916721807792783,0.0016175524485646745
1772699613703854600,7.9608544921875,0.06632394525706768,-0.005218593164812773,-0.003562346394630731
1772699613713811700,7.970811767578125,0.06512684442698956,0.002990824979590252,-0.015057653771084733
1772699613723768800,7.980768798828125,0.08472878599762916,-0.0043917869518511,-0.004138867640952231
1772699613733725400,7.990725341796875,0.07994038267731667,0.002781593542546034,0.014284797101910225
1772699613743682600,8.0006826171875,0.08383096037507057,-0.017263479552557692,0.004743451646200264
1772699613753639700,8.0106396484375,0.07185936755239963,-0.0055614791851956395,-0.006108166411434649
1772699613763596500,8.020596435546874,0.0651250908613205,-0.012469404543284325,-0.004703649358774419
1772699613773554700,8.0305546875,0.08502747668325901,-0.00131027888096869,0.015415064932097447
1772699613783511600,8.040511474609374,0.05569909086823463,-0.0005664839094970375,-0.0008022614309942583
1772699613793468700,8.05046875,0.08068915521800518,-0.00750956734593492,0.0003402516761241713
1772699613803425500,8.060425537109374,0.07649930231273173,0.0007439502350986004,0.0015200617322174365
1772699613813382700,8.070382568359374,0.06812018102407455,0.01031236350671388,0.015558098123490344
1772699613823339800,8.08033984375,0.07859539780914783,-0.000868430564715527,-0.002940283244085731
1772699613833296600,8.090296630859376,0.07515431744456291,-0.0036621301035862416,0.010971076293906663
1772699613843254500,8.100254638671874,0.08547872758209704,0.004476693322905339,0.011857983230229002
1772699613853211600,8.110211669921876,0.07111351762115956,0.00018495094573590904,0.015940211042563896
1772699613863168800,8.120168701171876,0.058096215137839316,0.005506812688778154,0.004589257739976165
1772699613873125600,8.130125732421876,0.059442953571677205,-0.0013181059943977742,0.002287760452373186
1772699613883082800,8.140082763671876,0.07620236519277096,-0.00844744185109157,0.002819541228780872
1772699613893039600,8.15003955078125,0.07874561993479728,-0.004561517495568841,-0.008968018530184054
1772699613902996500,8.15999658203125,0.0756032302558422,0.010945039953640661,0.00096714683623577
1772699613912954600,8.16995458984375,0.08563011875152587,-0.004604046029620804,-0.0006939467848889762
1772699613922911700,8.179911865234375,0.06453121662139892,0.0017007943022064864,0.001349303137793322
1772699613932868600,8.18986865234375,0.06049100131988525,0.010860311679099685,-0.0028565630414756015
1772699613942825500,8.199825439453125,0.08518120594024657,0.00246677370602265,-0.0007408546665363246
1772699613952782600,8.209782470703125,0.061088967213034626,-0.0025698504880070686,-0.00863336719025101
1772699613962739700,8.21973974609375,0.07740005054473877,-0.007131719610025174,-0.014002900004165712
1772699613972696600,8.229696533203125,0.0833849701732397,-0.007914280255883931,-0.007054531896190019
1772699613982653700,8.23965380859375,0.08233809146881103,-0.0012925970938056706,-0.008403752264770446
1772699613992611600,8.249611572265625,0.07440671394765376,0.0006015552228782326,0.005107857091113692
1772699614002568700,8.259568603515625,0.0833849701732397,0.003359699391177855,-0.00321987422031234
1772699614012525600,8.269525634765625,0.07201192776560783,0.0007600017541786655,0.002055875937992823
1772699614022482700,8.279482666015625,0.07829670712351798,-0.007356395211373455,0.013998762685165275
1772699614032439800,8.289439697265625,0.08488076168894768,-0.007634107041056267,-0.0027200337977497835
1772699614042396700,8.299396728515624,0.08607727799713612,-0.009398157571512274,-0.014414745907799805
1772699614052353500,8.309353515625,0.0826356131106615,-0.0034640411150641736,-0.0070192956152051915
1772699614062311700,8.319311767578125,0.07470423558950423,-0.008266180699784308,0.0063535868316452245
1772699614072268800,8.329268798828124,0.08906886102855205,-0.01022148861917667,-0.004362478088153875
1772699614082225700,8.3392255859375,0.08338263208568096,0.00285426148653496,-0.016014066296641247
1772699614092182500,8.3491826171875,0.08233458433747291,0.020405015281564555,-0.006777321819183999
1772699614102139600,8.3591396484375,0.06123626672923565,-0.004555320650222711,-0.010184949151205365
1772699614112096500,8.369096435546876,0.07245967153310776,0.006875995849864557,-0.009842853148689027
1772699614122053600,8.3790537109375,0.06976677918732166,-0.005968890942307189,0.007098117592878406
1772699614132010800,8.3890107421875,0.0708148269355297,-0.01603883769500535,0.004313166474399622
1772699614141968600,8.39896875,0.07994330528676509,-0.007247797437477856,0.0076343011205899525
1772699614151925500,8.408925537109376,0.057498833766579625,0.0008998668825952336,-0.00936052098335349
1772699614161882600,8.418882568359376,0.06034253275990486,-0.016721668860013597,0.014541934217733796
1772699614171839700,8.42883984375,0.0850321528583765,-0.0026307731952751054,-0.01118456149767153
1772699614181796600,8.438796630859375,0.0654296267658472,-0.014484374794620088,0.009752078725851605
1772699614191753700,8.448753662109375,0.07425766086578368,0.008129398011020384,0.007139560994008206
1772699614201710600,8.458710693359375,0.07440788299143314,-0.0022163563086418435,0.008953533347105257
1772699614211667500,8.46866748046875,0.07186404372751712,0.0027903659374685958,-0.012437189623981248
1772699614221625600,8.47862548828125,0.08607961608469486,-0.004988396571553312,-0.00017663292525103315
1772699614231582700,8.488582763671875,0.07380991709828376,0.0028810444621834904,-0.00034724938495783134
1772699614241539800,8.498539794921875,0.06677694972157477,-0.006131205364549532,-0.0069691620175435665
1772699614251496400,8.508496337890625,0.07036883673369884,0.0025375236875610423,-0.007001112646187539
1772699614261453600,8.51845361328125,0.06363631360828877,0.007429241251875646,-0.0015805020947620505
1772699614271410700,8.52841064453125,0.08713000192046165,0.005352640473796054,-0.0037789602746430315
1772699614281367600,8.538367431640625,0.07934943104684353,0.00400281960030552,0.0005847833262349013
1772699614291325700,8.54832568359375,0.07845218994617462,-0.01040208305020351,-0.021532905066641978
1772699614301282600,8.558282470703125,0.054958501634001726,-0.007875295385788194,0.007363983150318381
1772699614311239700,8.56823974609375,0.07052022790312766,0.0019957723605213687,-0.003251908759813523
1772699614321196500,8.578196533203124,0.07022036817371845,0.0014885397910140454,-0.006836678761272924
1772699614331153700,8.588153564453124,0.08039572522938251,0.016898427366139366,0.005365210548535106
