time,seconds_elapsed,z,y,x
1772699605847671600,0.104671630859375,0.0008332105353474617,0.0005918079987168312,-0.0003311391919851303
1772699605857628700,0.114628662109375,-0.0007492396980524063,0.0001233578659594059,-0.0008805491961538792
1772699605867586600,0.124586669921875,0.0021501434966921806,-0.002937679411843419,0.0012664911337196827
1772699605877543700,0.134543701171875,-0.0012249473948031664,0.000420902855694294,-0.003192928619682789
1772699605887500500,0.14450048828125,-0.00023291981779038906,0.000174826942384243,0.0001400178298354149
1772699605897457700,0.154457763671875,0.00014230352826416492,0.0008323770016431808,0.0007004979997873306
1772699605907414800,0.164414794921875,-0.0017069955356419086,0.0002696509473025799,-0.0004236225504428148
1772699605917371400,0.174371337890625,0.0013103820383548737,0.000006781425327062607,0.00140315480530262
1772699605927328500,0.18432861328125,-0.001196984201669693,0.000926104374229908,-0.003137002233415842
1772699605937286700,0.19428662109375,-0.000010295771062374115,-0.001630514394491911,-0.00033573806285858154
1772699605947243800,0.204243896484375,0.000013939104974269867,-0.0010217158123850822,0.0005439040251076221
1772699605957200600,0.21420068359375,0.0006517702713608742,-0.001012132503092289,-0.0034385581966489553
1772699605967157500,0.224157470703125,-0.0016944746021181345,0.0009237192571163177,0.0008019930683076382
1772699605977114600,0.234114501953125,0.0005950527265667915,0.0009516747668385506,0.0000217449851334095
1772699605987071500,0.244071533203125,0.0006464517209678888,-0.00010133907198905945,0.0008630375377833843
1772699605997028600,0.254028564453125,-0.0022822264581918716,0.0014006835408508778,-0.0014611033257097006
1772699606006986500,0.263986572265625,0.003092032391577959,-0.0008070771582424641,-0.00022513000294566154
1772699606016943600,0.273943603515625,-0.0015557319857180119,0.003795414697378874,0.00044161034747958183
1772699606026900500,0.283900390625,0.00031886715441942215,-0.0017215902917087078,0.0001784898340702057
1772699606036857600,0.293857666015625,0.001997485291212797,-0.0012430483475327492,0.00019227294251322746
1772699606046814700,0.303814697265625,0.0021178601309657097,0.00024885404855012894,0.00033475225791335106
1772699606056771600,0.313771484375,-0.0020435992628335953,-0.0004286491312086582,0.001588805578649044
1772699606066728700,0.323728759765625,0.002824659226462245,0.000012370292097330093,-0.0003758082166314125
1772699606076686600,0.3336865234375,-0.00033891783095896244,0.0019245268777012825,0.001968781929463148
1772699606086643700,0.343643798828125,0.0017335540615022182,-0.0006981538608670235,-0.0026744394563138485
1772699606096600600,0.3536005859375,0.0000586644746363163,0.00039084115996956825,0.0006212876178324223
1772699606106557700,0.3635576171875,-0.0007322945166379213,0.002358917612582445,0.0026847049593925476
1772699606116514600,0.3735146484375,-0.0009506578790023923,-0.0003788284957408905,0.0012861271388828754
1772699606126471400,0.383471435546875,-0.0002664916682988405,-0.00043129269033670425,0.00018064863979816437
1772699606136428500,0.393428466796875,0.001113319769501686,-0.0019442630000412464,0.0004578186199069023
1772699606146386700,0.40338671875,-0.00028217677026987076,-0.00010162172839045525,-0.00004978012293577194
1772699606156343800,0.41334375,-0.00020015891641378403,-0.0019700867123901844,-0.000252770259976387
1772699606166300400,0.423300537109375,0.002020650776103139,-0.0018643592484295368,0.0018141092732548714
1772699606176257500,0.433257568359375,-0.0001090590376406908,0.0006536385044455528,-0.002397802658379078
1772699606186214700,0.443214599609375,0.001912812702357769,0.001631550956517458,-0.0006981734186410904
1772699606196171500,0.453171630859375,-0.0009098481386899948,-0.0007794331759214401,0.0008050878532230854
1772699606206128600,0.463128662109375,-0.003043572884052992,-0.0025001014582812786,0.0007049529813230038
1772699606216086500,0.47308642578125,0.0007167712319642305,-0.0001892358995974064,0.0004207720048725605
1772699606226043600,0.483043701171875,-0.0003695320338010788,0.0015194481238722801,-0.004461068194359541
1772699606236000500,0.49300048828125,0.00037319958209991455,-0.0006470088846981525,0.0003867773339152336
1772699606245957600,0.50295751953125,0.0012445857282727957,-0.00004247110337018967,-0.0007027217652648687
1772699606255914800,0.512914794921875,-0.00028376257978379726,0.0009955884888768196,-0.001509372377768159
1772699606265871600,0.52287158203125,0.000838759820908308,0.00011940812692046165,0.0009644380770623684
1772699606275828500,0.532828369140625,0.002066774992272258,-0.0013874410651624203,0.000029632821679115295
1772699606285786600,0.54278662109375,-0.0015260956715792418,-0.0017637456767261028,0.0004940885119140148
1772699606295743700,0.55274365234375,-0.0015450314385816455,-0.0016316240653395653,-0.002602570690214634
1772699606305700600,0.56270068359375,0.0007032090798020363,0.0011604339815676212,-0.0004643185529857874
1772699606315657700,0.57265771484375,0.0023317281156778336,-0.0015706336125731468,-0.00033944565802812576
1772699606325614600,0.582614501953125,0.0020483676344156265,-0.0008132308721542358,0.0008685644716024399
1772699606335571500,0.592571533203125,-0.0004177079536020756,0.0015335348434746265,0.0034234211780130863
1772699606345528600,0.602528564453125,0.0024422607384622097,0.003307200502604246,-0.0006386982277035713
1772699606355486700,0.61248681640625,0.0021764221601188183,-0.0004885466769337654,0.0005931439809501171
1772699606365443600,0.622443603515625,0.0012054333928972483,-0.0022856476716697216,-0.001403694273903966
1772699606375400400,0.632400390625,0.0002955144736915827,-0.0008718613535165787,0.00034207897260785103
1772699606385357600,0.642357666015625,0.0016630475874990225,-0.0035946769639849663,0.004651606548577547
1772699606395314700,0.652314697265625,-0.003297630464658141,0.003302917815744877,-0.002451367676258087
1772699606405271600,0.662271484375,-0.0006283440161496401,-0.0008124648593366146,-0.0026178155094385147
1772699606415228700,0.672228759765625,0.001003362936899066,-0.0018862392753362656,-0.0023505212739109993
1772699606425186600,0.6821865234375,-0.0034869927912950516,-0.00024253642186522484,-0.001123869325965643
1772699606435143700,0.692143798828125,-0.0008079441031441092,-0.00013724761083722115,0.0017895023338496685
1772699606445100500,0.7021005859375,0.0008663854096084833,0.0012281551025807858,-0.0016113545279949903
1772699606455057700,0.7120576171875,-0.002995388815179467,0.0004685446619987488,0.0026862011291086674
1772699606465014800,0.722014892578125,0.00032637198455631733,-0.0023261765018105507,0.00020892871543765068
1772699606474971600,0.7319716796875,0.0002502170391380787,0.0009095515124499798,-0.0010567859280854464
1772699606484928500,0.741928466796875,0.0011005643755197525,-0.0024982294999063015,0.0021347464062273502
1772699606494886700,0.75188671875,0.0004525459371507168,0.00045102881267666817,-0.00030229659751057625
1772699606504843800,0.76184375,-0.0013405604986473918,-0.0023980210535228252,0.0005118316039443016
1772699606514800600,0.771800537109375,0.0019786006305366755,-0.00038020871579647064,-0.0006853323429822922
1772699606524757500,0.781757568359375,-0.0010025419760495424,-0.001565048936754465,-0.0014720303006470203
1772699606534714600,0.791714599609375,0.0004443416837602854,0.000185458455234766,-0.001159195089712739
1772699606544671500,0.80167138671875,0.0004475375171750784,-0.0010164259001612663,0.0015393858775496483
1772699606554629600,0.811629638671875,0.0017160209827125072,-0.0012297658249735832,0.002945146057754755
1772699606564586800,0.821586669921875,-0.000989218009635806,0.0010685422457754612,-0.002034698845818639
1772699606574543600,0.831543701171875,-0.0015575645957142115,-0.0019338768906891346,0.0011976445093750954
1772699606584500500,0.84150048828125,0.000857123639434576,0.00039026373997330666,-0.00160213652998209
1772699606594457600,0.85145751953125,0.0029522127006202936,-0.000579106155782938,0.0025495877489447594
1772699606604414700,0.861414794921875,0.003069658065214753,-0.00008775293827056885,0.0017421175725758076
1772699606614371600,0.87137158203125,-0.00004112115129828453,-0.000251066405326128,0.00036303140223026276
1772699606624328700,0.88132861328125,0.0005205397028476,0.00029621319845318794,0.000861309003084898
1772699606634286600,0.89128662109375,-0.0009738033404573798,0.0015053339302539825,-0.0004154602065682411
1772699606644243700,0.90124365234375,-0.0007849852554500103,0.00004725297912955284,0.0017510210163891315
1772699606654200600,0.91120068359375,0.0032225274480879307,0.0015522176399827003,-0.0014227537903934717
1772699606664157700,0.92115771484375,-0.00012400071136653423,-0.0014574211090803146,-0.0020611134823411703
1772699606674114800,0.93111474609375,0.0019447468221187592,-0.0007144026458263397,0.000898752361536026
1772699606684071400,0.941071533203125,0.0031421040184795856,0.00012422678992152214,-0.0005412190221250057
1772699606694029600,0.951029541015625,-0.001434804406017065,-0.00034608738496899605,-0.0014669338706880808
1772699606703986700,0.960986572265625,0.00027095014229416847,-0.0007261205464601517,-0.0002232375554740429
1772699606713943800,0.97094384765625,-0.00031333952210843563,-0.0002512875944375992,-0.0016034964937716722
1772699606723900700,0.980900634765625,0.00024645705707371235,0.00015218136832118034,0.0012897616252303123
1772699606733857500,0.990857421875,0.00036391825415194035,-0.0016683717258274555,-0.00004170415922999382
1772699606743814700,1.000814697265625,-0.0006922914180904627,0.0011252844706177711,0.0016336902044713497
1772699606753771500,1.010771484375,0.0005353582091629505,0.0019232360646128654,-0.002901094499975443
1772699606763729700,1.020729736328125,0.0005806318949908018,0.00031335512176156044,-0.000035799574106931686
1772699606773686500,1.0306865234375,0.0008296612650156021,-0.0022704675793647766,-0.0011283233761787415
1772699606783643600,1.0406435546875,0.0009324594866484404,0.000726121012121439,-0.0007616060320287943
1772699606793600500,1.0506005859375,-0.0008395328186452389,-0.0005120602436363697,-0.0029059695079922676
1772699606803557600,1.0605576171875,0.001709644915536046,-0.001798100769519806,-0.0036479260306805372
1772699606813514800,1.0705146484375,-0.002932804636657238,-0.0016023293137550354,-0.0004195773508399725
1772699606823471600,1.0804716796875,0.00033782352693378925,-0.0010718279518187046,-0.0014142680447548628
1772699606833429500,1.090429443359375,-0.0013895784504711628,-0.0009564361535012722,0.000054718926548957825
1772699606843386600,1.10038671875,0.00117717613466084,-0.0011282097548246384,0.0017042811959981918
1772699606853343700,1.11034375,-0.00030404236167669296,0.0005072052590548992,0.00186989177018404
1772699606863300600,1.120300537109375,0.0028757720720022917,0.001344236545264721,-0.0000736829824745655
1772699606873257700,1.1302578125,-0.000023043015971779823,0.000050702597945928574,-0.0009607896208763123
1772699606883214600,1.140214599609375,-0.0028758211992681026,-0.0010284101590514183,-0.0008268326055258512
1772699606893171500,1.15017138671875,0.0017628646455705166,0.00003100372850894928,0.0033942200243473053
1772699606903129600,1.160129638671875,0.000055778538808226585,-0.0014497139491140842,0.00041946908459067345
1772699606913086700,1.170086669921875,-0.002016928046941757,0.001649373210966587,-0.0006474296096712351
1772699606923043800,1.1800439453125,0.0010827253572642803,0.0012150118127465248,-0.0014138873666524887
1772699606933000400,1.19000048828125,-0.0008526772726327181,-0.0003042365424335003,-0.0003553503192961216
1772699606942957600,1.19995751953125,-0.0008305730298161507,0.0005354583263397217,0.0008329520933330059
1772699606952914700,1.209914794921875,0.0025676959194242954,0.00024536391720175743,-0.0024989163503050804
1772699606962871600,1.21987158203125,-0.0017165315803140402,-0.00005051353946328163,-0.0027593732811510563
1772699606972829700,1.22982958984375,-0.0021000902634114027,-0.0007631108164787292,0.0026589008048176765
1772699606982786600,1.23978662109375,-0.0020127384923398495,-0.00042835110798478127,-0.0003046649508178234
1772699606992743700,1.24974365234375,0.0010611414909362793,-0.002639634534716606,0.0009855348616838455
1772699607002700500,1.259700439453125,-0.0011865664273500443,-0.00013812724500894547,0.0049222190864384174
1772699607012657700,1.26965771484375,-0.0009516953723505139,0.0015540649183094501,0.0005638124421238899
1772699607022614800,1.27961474609375,0.0013396884314715862,-0.0021874094381928444,-0.0037398559506982565
1772699607032571600,1.289571533203125,-0.0005410397425293922,0.0011005331762135029,-0.0002724486403167248
1772699607042529500,1.299529541015625,0.002367665059864521,-0.00019722525030374527,-0.0012290561571717262
1772699607052486700,1.309486572265625,0.0012153307907283306,0.0009031766094267368,-0.002390878740698099
1772699607062443800,1.31944384765625,0.0015082787722349167,0.0032073431648314,-0.002396737691015005
1772699607072400600,1.329400634765625,0.002009990159422159,-0.0011514239013195038,0.00015756580978631973
1772699607082357800,1.339357666015625,0.00044991052709519863,-0.00027657533064484596,-0.0008054329082369804
1772699607092314600,1.349314697265625,0.00220331153832376,0.00028457678854465485,0.00009081466123461723
1772699607102271500,1.359271484375,0.0007106098346412182,0.00045555178076028824,0.003004046157002449
1772699607112229600,1.369229736328125,0.000915419077500701,0.001290706917643547,0.0005084839649498463
1772699607122186800,1.379186767578125,-0.00015943264588713646,0.0007578087970614433,0.0025407420471310616
1772699607132143600,1.3891435546875,0.00177430035546422,-0.0014313217252492905,-0.0006722749676555395
1772699607142100500,1.3991005859375,0.00006961100734770298,-0.0004014773294329643,0.0012262924574315548
1772699607152057600,1.4090576171875,0.0002456218935549259,-0.0034028359223157167,-0.0020359859336167574
1772699607162014700,1.4190146484375,0.000799825880676508,-0.00231759762391448,0.0013861758634448051
1772699607171971600,1.4289716796875,0.0025602655950933695,-0.0001840144395828247,-0.0022547997068613768
1772699607181929500,1.438929443359375,0.001207379624247551,-0.0021246601827442646,-0.0025903580244630575
1772699607191886600,1.448886474609375,-0.0005601532757282257,0.0008983835577964783,-0.00043270341120660305
1772699607201843500,1.458843505859375,0.000584739726036787,-0.0007634288631379604,0.0010032732971012592
1772699607211800600,1.468800537109375,-0.0005950522609055042,0.00032439548522233963,-0.001365999924018979
1772699607221757700,1.4787578125,-0.0005670890677720308,0.002560651395469904,0.0020641516894102097
1772699607231714800,1.48871484375,0.0006405035965144634,0.0008942987769842148,-0.002457269001752138
1772699607241671700,1.498671630859375,-0.0009717739885672927,0.0006141341291368008,0.0013252189382910728
1772699607251629600,1.508629638671875,-0.001547499094158411,-0.0009636189788579941,-0.0021790354512631893
1772699607261586700,1.518586669921875,0.0025124899111688137,-0.0001574801281094551,0.00036028865724802017
1772699607271543600,1.52854345703125,0.0037832874804735184,-0.0012087845243513584,-0.003264867700636387
1772699607281500700,1.538500732421875,0.0013044173829257488,0.0021023238077759743,0.0003016376867890358
1772699607291457500,1.54845751953125,-0.0014943728456273675,-0.0012826323509216309,-0.001162999076768756
1772699607301414700,1.55841455078125,-0.0003233810421079397,-0.0021340446546673775,0.0009600729681551456
1772699607311371500,1.56837158203125,0.0007500166539102793,-0.0034533394500613213,-0.0005216721910983324
1772699607321329700,1.57832958984375,0.0027031791396439075,-0.0014506424777209759,0.0020019393414258957
1772699607331286800,1.588286865234375,0.001468517817556858,-0.002729830564931035,0.002478864509612322
1772699607341243400,1.598243408203125,-0.0007879784097895026,0.0003522457554936409,0.0015315781347453594
1772699607351200500,1.608200439453125,0.0019333716481924057,0.002676027361303568,-0.0010784342885017395
1772699607361157600,1.61815771484375,-0.0019753496162593365,-0.0012223082594573498,0.0008222637698054314
1772699607371114800,1.62811474609375,-0.0011457462096586823,-0.0005428344011306763,0.00029752217233181
1772699607381071600,1.638071533203125,0.0016574969049543142,0.0015325667336583138,0.000046918634325265884
1772699607391029500,1.648029541015625,-0.0018392434576526284,0.0012351563200354576,0.0025349794887006283
1772699607400986600,1.657986572265625,0.00008355872705578804,-0.002035737968981266,0.0008145770989358425
1772699607410943500,1.667943603515625,0.0005144397728145123,-0.0006905798800289631,0.0013758954592049122
1772699607420900600,1.677900634765625,0.0011863552499562502,-0.0004117470234632492,0.0003130277618765831
1772699607430857700,1.687857666015625,-0.0011035081697627902,0.0006790007464587688,-0.000914459116756916
1772699607440814800,1.69781494140625,-0.0023093875497579575,-0.0015330207534134388,-0.0013283141888678074
1772699607450771500,1.707771484375,-0.00007095257751643658,0.001557286363095045,0.0010919393971562386
1772699607460729600,1.7177294921875,0.001517623197287321,0.00029121944680809975,-0.0023137107491493225
1772699607470686700,1.727686767578125,0.00021531479433178902,-0.0022627604193985462,-0.0004889999981969595
1772699607480643600,1.7376435546875,-0.0023956485092639923,0.0007775044068694115,0.0003637443296611309
1772699607490600700,1.7476005859375,-0.0006177055183798075,0.002210717648267746,-0.0015803209971636534
1772699607500557600,1.7575576171875,0.00010853842832148075,0.00010469043627381325,0.002128130756318569
1772699607510514700,1.7675146484375,0.0008273080457001925,-0.002581036649644375,0.0006600772030651569
1772699607520471600,1.777471435546875,-0.0005468830931931734,-0.000166348647326231,-0.0004214323125779629
1772699607530429700,1.7874296875,0.001151379430666566,-0.0011591026559472084,-0.00007478008046746254
1772699607540386600,1.797386474609375,0.000862959073856473,0.0020494735799729824,-0.001855902373790741
1772699607550343400,1.807343505859375,0.001505569787696004,0.0010027997195720673,0.00015038764104247093
1772699607560300500,1.817300537109375,0.00033404515124857426,0.001929313875734806,0.0036255461163818836
1772699607570257700,1.827257568359375,-0.0009809129405766726,-0.001641770824790001,0.0010117166675627232
1772699607580214500,1.837214599609375,-0.002958576427772641,0.0004275054670870304,-0.002629623282700777
1772699607590171600,1.847171630859375,0.002730853157117963,0.00035694753751158714,-0.0009927793871611357
1772699607600129500,1.857129638671875,0.0004879389889538288,-0.001151466742157936,0.0012266989797353745
1772699607610086700,1.867086669921875,-0.0021499525755643845,0.0006854012608528137,-0.0021950085647404194
1772699607620043500,1.87704345703125,-0.00015897327102720737,0.0020782342180609703,-0.0023766360245645046
1772699607630000600,1.887000732421875,-0.00047753797844052315,-0.0004710014909505844,-0.0017049326561391354
1772699607639957800,1.896957763671875,0.0007477824110537767,0.0016589951701462269,0.00042719440534710884
1772699607649914600,1.90691455078125,-0.001022615353576839,-0.0016783801838755608,0.0017666779458522797
1772699607659871700,1.916871826171875,0.00036648940294981003,-0.000536683015525341,-0.00039527611806988716
1772699607669830000,1.926829833984375,-0.001780414255335927,0.0010107383131980896,-0.0022375185508280993
1772699607679787000,1.936787109375,-0.0030997442081570625,-0.002543516457080841,-0.0014385702088475227
1772699607689744000,1.946743896484375,0.0018432869110256433,0.0013558631762862206,0.0013669836334884167
1772699607699700700,1.95670068359375,-0.0007005645893514156,-0.0007581543177366257,0.0012836265377700329
1772699607709657900,1.966657958984375,0.001194280106574297,-0.0005967244505882263,0.0014049992896616459
1772699607719615000,1.976614990234375,-0.0021189586259424686,0.0014648288488388062,0.0012883525341749191
1772699607729571800,1.98657177734375,0.0006923926994204521,-0.001291162334382534,0.002313346602022648
1772699607739529700,1.99652978515625,0.0011153025552630424,-0.0007745092734694481,0.0029189493507146835
1772699607749486800,2.00648681640625,0.0009827669709920883,-0.00008650682866573334,0.004388453904539347
1772699607759443700,2.016443603515625,-0.0007592067122459412,-0.0006351177580654621,0.0004144851118326187
1772699607769400800,2.02640087890625,0.0007745150942355394,0.0002676439471542835,-0.00008267117664217949
1772699607779358000,2.03635791015625,-0.002785065909847617,-0.001184843946248293,-0.0025365077890455723
1772699607789315000,2.046315185546875,-0.0011251865653321147,-0.0011548581533133984,-0.0013811597600579262
1772699607799272000,2.05627197265625,0.0020596878603100777,0.0004198690876364708,-0.0015159156173467636
1772699607809229800,2.066229736328125,0.0025343368761241436,-0.0002585803158581257,0.002467198297381401
1772699607819187000,2.07618701171875,0.0011763910297304392,0.0015366561710834503,-0.002803996205329895
1772699607829143800,2.086143798828125,0.00019068852998316288,0.0005035973154008389,0.0018300055526196957
1772699607839101000,2.096100830078125,-0.00014992989599704742,0.002489249687641859,-0.0010645841248333454
1772699607849057800,2.106057861328125,-0.0008289788383990526,0.0014419890940189362,-0.000049866270273923874
1772699607859014700,2.1160146484375,0.0016349777579307556,-0.0023583415895700455,0.0013586794957518578
1772699607868971800,2.1259716796875,-0.00034074531868100166,-0.0015167170204222202,-0.00008847936987876892
1772699607878930000,2.135929931640625,0.0007684612646698952,-0.001846682745963335,0.004079633858054876
1772699607888887000,2.145886962890625,-0.001651306520216167,-0.0003629801794886589,0.001266623381525278
1772699607898843600,2.15584375,-0.0009160077897831798,0.0006183944642543793,-0.0007616400253027678
1772699607908800800,2.16580078125,-0.0002786293625831604,-0.0002174791879951954,0.00008921604603528976
1772699607918758000,2.1757578125,-0.00006877211853861809,-0.00015196576714515686,-0.002427471335977316
1772699607928714800,2.18571484375,0.0017760233022272587,0.0025055785663425922,0.0016839094460010529
1772699607938671900,2.195671875,-0.0021047350019216537,-0.0014209863729774952,0.0019275890663266182
1772699607948629000,2.20562890625,-0.0015058129793033004,0.0007329699583351612,-0.0011285112705081701
1772699607958587000,2.2155869140625,-0.00005945027805864811,0.000015780329704284668,-0.00008428608998656273
1772699607968543700,2.225543701171875,-0.0007509838324040174,0.0013266918249428272,-0.0014130305498838425
1772699607978500900,2.2355009765625,0.0009518412407487631,-0.0006562978960573673,0.000055170152336359024
1772699607988458000,2.2454580078125,-0.001805658801458776,-0.001442497130483389,0.0007958146743476391
1772699607998414800,2.255414794921875,-0.0008423934923484921,-0.0009828354232013226,0.002139911986887455
1772699608008371700,2.265371826171875,0.001718152780085802,0.0011957678943872452,-0.0003715348429977894
1772699608018329900,2.275329833984375,0.0012805955484509468,0.000396819319576025,0.0002676239237189293
1772699608028287000,2.285286865234375,0.001991948811337352,-0.00020089838653802872,-0.0019149486906826496
1772699608038243800,2.295243896484375,-0.0007899893680587411,0.0012499918229877949,-0.00003901822492480278
1772699608048201000,2.305200927734375,0.0018888574559241533,0.0005590352229773998,0.00044557731598615646
1772699608058157800,2.31515771484375,0.0002560731954872608,-0.0004199426621198654,0.002645880915224552
1772699608068114700,2.32511474609375,-0.0007889604894444346,-0.0014340979978442192,-0.0010138354264199734
1772699608078071800,2.33507177734375,-0.0008153258822858334,0.0004759212024509907,-0.0036522289738059044
1772699608088029000,2.34502880859375,0.0017248040530830622,0.0006054411642253399,0.00020365463569760323
1772699608097986800,2.35498681640625,0.0028774200472980738,-0.0015048477798700333,-0.0013945084065198898
1772699608107943700,2.364943603515625,-0.00023524882271885872,-0.0008841715753078461,0.0005582869052886963
1772699608117900800,2.37490087890625,-0.0003787931054830551,-0.0005110627971589565,0.0010139541700482368
1772699608127858000,2.38485791015625,0.0014587573241442442,0.002268366515636444,-0.0003819642588496208
1772699608137814800,2.394814697265625,-0.002376194577664137,0.0005298550240695477,0.00016318494454026222
1772699608147772000,2.40477197265625,0.00034424616023898125,-0.0014510261826217175,0.00009073037654161453
1772699608157729000,2.41472900390625,0.0016667719464749098,-0.0013570166192948818,0.0008673081174492836
1772699608167687000,2.42468701171875,-0.0014911169419065118,-0.00019274745136499405,-0.0010980905499309301
1772699608177643800,2.434643798828125,-0.0009403751464560628,-0.0009687924757599831,0.0020969039760529995
1772699608187601000,2.444600830078125,-0.0017707806546241045,-0.0002699466422200203,-0.00019630789756774902
1772699608197558000,2.45455810546875,0.0009749382734298706,-0.0007314723916351795,-0.0006375934462994337
1772699608207515000,2.464514892578125,0.00024727266281843185,-0.00023879623040556908,0.002810437697917223
1772699608217471700,2.4744716796875,-0.001525860046967864,0.0018949280492961407,-0.002004557754844427
1772699608227430000,2.484429931640625,-0.0015078948345035315,-0.0024970765225589275,-0.002246920019388199
1772699608237387000,2.494386962890625,-0.0015920506557449698,-0.0024933479726314545,-0.0013824577908962965
1772699608247343900,2.50434375,0.0004194022621959448,-0.00212559150531888,-0.0008553345687687397
1772699608257300700,2.51430078125,-0.0000743477139621973,0.001645977608859539,-0.0006310965400189161
1772699608267257900,2.5242578125,0.0002287405077368021,0.0010044020600616932,0.0004555252380669117
1772699608277214700,2.534214599609375,-0.0009435830870643258,-0.001342908013612032,-0.0024907300248742104
1772699608287171800,2.544171875,0.0017490459140390158,0.00032253796234726906,-0.001621483126655221
1772699608297129000,2.55412890625,-0.0028251996263861656,-0.0029100067913532257,-0.0005245271604508162
1772699608307086800,2.5640869140625,0.0002844766713678837,0.00034129805862903595,0.0008800872601568699
1772699608317043700,2.574043701171875,0.0008261636830866337,-0.0011735078878700733,-0.0008102208375930786
1772699608327000800,2.584000732421875,-0.0008914103964343667,-0.0014154892414808273,-0.001360271591693163
1772699608336958000,2.5939580078125,0.0027773601468652487,-0.0026663762982934713,0.000547084491699934
1772699608346914800,2.603914794921875,0.00086758635006845,0.001827178057283163,-0.00008122436702251434
1772699608356872000,2.613871826171875,-0.0014962353743612766,-0.0009640809148550034,0.0032077794894576073
1772699608366828800,2.623828857421875,-0.00047324434854090214,0.0009330380707979202,0.0011706696823239326
1772699608376787000,2.633786865234375,0.0028519784100353718,0.0004014712758362293,0.0015118205919861794
1772699608386743800,2.643743896484375,-0.00002319272607564926,-0.002208874560892582,-0.0002701152116060257
1772699608396701000,2.653700927734375,-0.001230403664521873,-0.0001893993467092514,0.003498790320008993
1772699608406658000,2.663657958984375,-0.0030381346587091684,0.0015050405636429787,0.001996599603444338
1772699608416614700,2.67361474609375,0.0003086598590016365,0.002495736815035343,-0.0006796109955757856
1772699608426571800,2.68357177734375,-0.0024405219592154026,0.0009229746647179127,-0.002547904849052429
1772699608436529000,2.69352880859375,0.0005251744296401739,-0.0013588215224444866,0.002447119913995266
1772699608446487000,2.703487060546875,-0.0009525908390060067,-0.0006134137511253357,0.0007760291919112206
1772699608456444000,2.71344384765625,-0.0007246243767440319,-0.0031106597743928432,-0.0013225418515503407
1772699608466400800,2.72340087890625,-0.0013806679053232074,0.0005891183391213417,-0.0011019937228411436
1772699608476358000,2.73335791015625,0.0005522544961422682,-0.0008372706361114979,0.0032213819213211536
1772699608486314800,2.743314697265625,-0.001028616912662983,-0.0027806980069726706,0.0010348837822675705
1772699608496272000,2.75327197265625,-0.0017748347017914057,-0.00039743492379784584,-0.0002716630697250366
1772699608506229000,2.76322900390625,-0.0006964849308133125,-0.001180756837129593,0.0011116405948996544
1772699608516187000,2.773186767578125,0.0000670433510094881,0.0002954332157969475,-0.002004524227231741
1772699608526143700,2.783143798828125,0.0001688243355602026,-0.0010393601842224598,-0.0022201640531420708
1772699608536100900,2.793100830078125,0.0015997409354895353,-0.0033760175574570894,0.0016861604526638985
1772699608546058000,2.80305810546875,-0.0022259571123868227,0.00042993342503905296,-0.0034519177861511707
1772699608556014800,2.813014892578125,0.0007250916678458452,0.0004967786371707916,-0.001558410469442606
1772699608565972000,2.822971923828125,-0.0011035827919840813,0.0012365696020424366,-0.00045096874237060547
1772699608575928800,2.8329287109375,-0.0012079786974936724,0.002410224638879299,-0.0008286051452159882
1772699608585887000,2.842886962890625,0.0009519932791590691,-0.0011057564988732338,0.0008661989122629166
1772699608595843800,2.85284375,-0.0031522042118012905,-0.0003454238176345825,0.00015433598309755325
1772699608605801000,2.862801025390625,0.0009946536738425493,-0.00048004090785980225,-0.0013242613058537245
1772699608615757800,2.8727578125,-0.0002887237351387739,0.0008536698296666145,-0.0007516816258430481
1772699608625714700,2.882714599609375,-0.001997186103835702,-0.001569913700222969,0.0007949173450469971
1772699608635671800,2.892671875,0.0018489512149244547,-0.0004351409152150154,0.0037760594859719276
1772699608645629000,2.90262890625,-0.0029225233010947704,0.0013487162068486214,0.000652313232421875
1772699608655585800,2.912585693359375,0.000657297670841217,-0.0007442617788910866,0.001473632175475359
1772699608665543400,2.92254345703125,0.00019890069961547852,-0.001308890525251627,0.0019500087946653366
1772699608675500300,2.932500244140625,-0.00076596240978688,0.0025486978702247143,-0.0012239464558660984
1772699608685457400,2.94245751953125,0.0022644998971372843,-0.001263781450688839,-0.0009088725782930851
1772699608695414300,2.952414306640625,-0.00047243060544133186,-0.0019444851204752922,0.0036555188708007336
1772699608705371400,2.962371337890625,-0.0006462314631789923,-0.0017756135202944279,-0.004401645623147488
1772699608715328500,2.97232861328125,0.0006137101445347071,-0.00023204507306218147,0.002151861321181059
1772699608725285400,2.982285400390625,-0.0013521264772862196,0.00101108243688941,-0.0025930977426469326
1772699608735243300,2.9922431640625,0.0011531091295182705,-0.0006344849243760109,0.0026594544760882854
1772699608745200400,3.002200439453125,0.0005483573768287897,-0.0011522653512656689,0.0012104436755180359
1772699608755157500,3.012157470703125,-0.0009608560940250754,0.0014230115339159966,0.002481836825609207
1772699608765114400,3.0221142578125,-0.0007426624651998281,0.0004000724293291569,-0.002015371574088931
1772699608775071500,3.032071533203125,-0.00003133225254714489,0.0007942202500998974,-0.001773556461557746
1772699608785028400,3.0420283203125,-0.00011703488416969776,-0.0018352922052145004,-0.002038325183093548
1772699608794985200,3.051985107421875,0.0005551469512283802,-0.00022594397887587547,-0.0011735965963453054
1772699608804943400,3.061943359375,-0.0014967871829867363,-0.0018588919192552567,-0.0012133056297898293
1772699608814900500,3.071900390625,-0.0011425868142396212,-0.0010865749791264534,-0.00010969163849949837
1772699608824857600,3.081857666015625,-0.0012243724195286632,-0.0011073867790400982,-0.0002569924108684063
1772699608834814200,3.091814208984375,-0.0008941404521465302,-0.002443228382617235,-0.002185121178627014
1772699608844771300,3.101771240234375,0.0014003247488290071,-0.0007628700695931911,-0.0004734909161925316
1772699608854728400,3.111728515625,0.001183010870590806,-0.0001402227208018303,0.001573148649185896
1772699608864685300,3.121685302734375,-0.0003242946695536375,0.0011754697188735008,-0.0024425811134278774
1772699608874643200,3.131643310546875,-0.0008010006276890635,-0.00023866910487413406,0.0003382917493581772
1772699608884600300,3.141600341796875,0.0012233937159180641,-0.001547040417790413,0.0006828331388533115
1772699608894557400,3.151557373046875,-0.0015609412221238017,-0.0001520765945315361,0.0016732625663280487
1772699608904514300,3.161514404296875,-0.0014476814540103078,0.0017679622396826744,-0.0007159837987273932
1772699608914471400,3.171471435546875,-0.0013504760572686791,0.0020441319793462753,-0.00029493821784853935
1772699608924428500,3.181428466796875,0.0004727488849312067,0.0017709960229694843,0.0016878973692655563
1772699608934385400,3.191385498046875,-0.0003525647334754467,-0.00003542611375451088,-0.001013879431411624
1772699608944343300,3.20134326171875,0.00029651401564478874,-0.0006207632832229137,0.002000686712563038
1772699608954300400,3.211300537109375,-0.0002787287812680006,0.0005081505514681339,-0.0012875183019787073
1772699608964257500,3.221257568359375,0.00356475287117064,-0.0014558699913322926,0.0021550902165472507
1772699608974214400,3.23121435546875,-0.00021294108591973782,-0.00018074829131364822,0.0015012845396995544
1772699608984171300,3.241171142578125,-0.0014182981103658676,0.0017559770494699478,-0.001129015814512968
1772699608994128400,3.25112841796875,-0.0002662145998328924,0.001691262237727642,0.0010337373241782188
1772699609004085200,3.261085205078125,-0.0023250430822372437,0.002173743210732937,-0.0017724672798067331
1772699609014043400,3.27104345703125,0.0005572959780693054,0.001308215782046318,-0.0011253191623836756
1772699609024000500,3.28100048828125,-0.001197514240629971,0.0002646748907864094,-0.0016799445729702711
1772699609033957400,3.290957275390625,-0.0025581233203411102,-0.0011185710318386555,-0.00024183746427297592
1772699609043914200,3.300914306640625,0.0017451213207095861,-0.002183474600315094,-0.0017465059645473957
1772699609053871400,3.310871337890625,-0.00014226092025637627,-0.0012212744913995266,0.004186484031379223
1772699609063828500,3.320828369140625,0.0007923624943941832,-0.00005683302879333496,0.0006605153903365135
1772699609073785300,3.330785400390625,-0.0007738424465060234,0.0010619605891406536,-0.00011979090049862862
1772699609083743200,3.3407431640625,0.003057469381019473,-0.00034464430063962936,0.0007538218051195145
1772699609093700400,3.350700439453125,0.0005956434179097414,-0.002234156709164381,0.0007868451066315174
1772699609103657500,3.360657470703125,-0.0005403428804129362,0.0011982386931777,-0.0002297181636095047
1772699609113614300,3.3706142578125,0.00085861561819911,0.0009617498144507408,-0.00039190473034977913
1772699609123571500,3.380571533203125,-0.00005813734605908394,0.0002970341593027115,0.0017843684181571007
1772699609133528600,3.390528564453125,0.0024529569782316685,-0.0019722450524568558,0.0037135621532797813
1772699609143485200,3.400485107421875,0.0009996755979955196,-0.001398175023496151,0.0012311097234487534
1772699609153442300,3.4104423828125,0.0002878126688301563,-0.0002836422063410282,-0.000841628760099411
1772699609163400400,3.420400390625,-0.0015676217153668404,-0.0008423519320785999,0.0009544156491756439
1772699609173357300,3.430357421875,0.002520596608519554,-0.003516165539622307,0.002218618057668209
1772699609183314400,3.440314453125,0.0012636198662221432,0.002413022331893444,0.0022753686644136906
1772699609193271300,3.450271240234375,0.0010034290608018637,-0.0011843759566545486,0.0025810995139181614
1772699609203228400,3.460228515625,0.0024897917173802853,-0.0007901685312390327,0.0042758965864777565
1772699609213185300,3.470185302734375,0.0023723463527858257,-0.0005883011035621166,0.0026998380199074745
1772699609223142400,3.480142333984375,-0.002016799757257104,-0.0023211820516735315,0.0018839840777218342
1772699609233100300,3.490100341796875,0.0003113355487585068,0.0017388071864843369,0.00039927149191498756
1772699609243057200,3.50005712890625,-0.00121527339797467,-0.0006011798977851868,0.0020806975662708282
1772699609253014300,3.51001416015625,-0.0011090133339166641,-0.002390824258327484,0.003222128376364708
1772699609262971400,3.519971435546875,-0.0006300848908722401,-0.0006006765179336071,-0.001025794306769967
1772699609272928500,3.529928466796875,0.000007742317393422127,-0.0008182567544281483,0.0024765287525951862
1772699609282885400,3.539885498046875,-0.000184760894626379,0.0008190488442778587,-0.002207116223871708
1772699609292842500,3.549842529296875,-0.0018220723140984774,-0.0008536828681826591,0.0030861827544867992
1772699609302800400,3.55980029296875,-0.0004036372993141413,-0.00046218186616897583,0.0010148421861231327
1772699609312757200,3.56975732421875,0.000037648482248187065,0.0015679458156228065,-0.0013838668819516897
1772699609322714400,3.57971435546875,0.0006061047315597534,0.0009213476441800594,0.00020171748474240303
1772699609332671500,3.58967138671875,-0.0002306604292243719,-0.001170033123344183,-0.0005194665864109993
1772699609342628400,3.59962841796875,-0.0014682390028610826,-0.00030563073232769966,-0.0009728288277983665
1772699609352585200,3.609585205078125,-0.000678345444612205,0.0003476426936686039,-0.0022271776106208563
1772699609362542300,3.619542236328125,0.000472700921818614,-0.0000253911130130291,-0.0008974475786089897
1772699609372500500,3.62950048828125,0.0018540825694799423,-0.0006821267306804657,0.0005915258079767227
1772699609382457300,3.639457275390625,0.00047340942546725273,0.0008107786998152733,0.0014378447085618973
1772699609392414200,3.649414306640625,0.0005628915969282389,0.001416115090250969,-0.001941706519573927
1772699609402371300,3.659371337890625,-0.000521213049069047,0.001405447255820036,0.002524659037590027
1772699609412328400,3.669328369140625,-0.0003238727804273367,0.001162034459412098,-0.0013001726474612951
1772699609422285300,3.679285400390625,0.000017228536307811737,0.0010804925113916397,-0.002303840359672904
1772699609432242400,3.689242431640625,-0.0006570839323103428,-0.0002289838157594204,-0.00045880209654569626
1772699609442199600,3.699199462890625,0.0021174487192183733,0.0012897234410047531,-0.0035379985347390175
1772699609452157200,3.7091572265625,0.0005033069755882025,-0.00026369839906692505,-0.002205086639150977
1772699609462114300,3.7191142578125,0.00048538832925260067,-0.0010186992585659027,-0.0008857173379510641
1772699609472071400,3.729071533203125,0.001449452480301261,-0.00032654404640197754,0.00011776154860854149
1772699609482028500,3.739028564453125,0.0003862706944346428,0.0007450738921761513,-0.0002827686257660389
1772699609491985400,3.7489853515625,0.0002326061949133873,-0.0009518922306597233,0.0003534606657922268
1772699609501942300,3.7589423828125,0.0006251749582588673,-0.001215972937643528,-0.0013068667612969875
1772699609511899400,3.7688994140625,0.000028094276785850525,0.000880200881510973,-0.0006402777507901192
1772699609521857300,3.778857177734375,-0.0011297328164801002,0.00149987218901515,-0.001373028615489602
1772699609531814400,3.788814453125,-0.0007832555565983057,0.0005520530976355076,-0.0016875478904694319
1772699609541771500,3.798771484375,-0.001527555868960917,-0.00037162844091653824,-0.002265675226226449
1772699609551728000,3.80872802734375,0.0018408102914690971,0.0016105626709759235,0.001053954940289259
1772699609561685200,3.818685302734375,0.00014157523401081562,-0.001457002479583025,0.001089570578187704
1772699609571642400,3.828642333984375,0.0014388011768460274,-0.000014634337276220322,0.00008289562538266182
1772699609581599500,3.838599609375,0.0007369415834546089,0.0002558794803917408,-0.0013461012858897448
1772699609591557400,3.848557373046875,-0.0011954479850828648,-0.0004895390011370182,0.0010166550055146217
1772699609601514200,3.85851416015625,0.0007512781303375959,0.0010942635126411915,-0.0009920618031173944
1772699609611471400,3.868471435546875,-0.0008119973354041576,0.00022314349189400673,-0.0006245456170290709
1772699609621428200,3.87842822265625,0.0020477555226534605,0.0007396801374852657,0.002045019995421171
1772699609631385300,3.88838525390625,-0.001884668250568211,0.0006896127015352249,0.0015731076709926128
1772699609641342500,3.898342529296875,-0.000006967922672629356,-0.0009199022315442562,-0.00005679996684193611
1772699609651299600,3.908299560546875,-0.0015100559685379267,-0.0017627929337322712,0.0009075305424630642
1772699609661257200,3.91825732421875,0.0008149563800543547,0.00022400077432394028,-0.0009433545637875795
1772699609671215000,3.928215087890625,0.0010280092246830463,-0.0010364735499024391,-0.0004221741110086441
1772699609681172200,3.938172119140625,-0.0015457826666533947,0.0015709246508777142,-0.0006577763706445694
1772699609691129000,3.948129150390625,-0.001683201757259667,0.0017794501036405563,0.0022924733348190784
1772699609701086000,3.9580859375,0.0018494732212275267,-0.0010057305917143822,-0.0007882316131144762
1772699609711043000,3.96804296875,-0.0019332808442413807,0.00039269542321562767,0.001956954598426819
1772699609721000200,3.978000244140625,-0.003068231977522373,0.0016292612999677658,-0.0031429496593773365
1772699609730958300,3.987958251953125,0.0010998814832419157,0.0002441513352096081,-0.002263840287923813
1772699609740915000,3.9979150390625,0.0018751174211502075,0.001736256293952465,0.002479531802237034
1772699609750872000,4.0078720703125,-0.0010804588673636317,0.0004326384514570236,-0.0015538258012384176
1772699609760829200,4.0178291015625,-0.000713115674443543,0.0027491613291203976,-0.0010560511145740747
1772699609770786000,4.0277861328125,-0.0016899630427360535,0.000023149419575929642,-0.0004469859413802624
1772699609780743200,4.0377431640625,-0.003722504014149308,0.0016576177440583706,-0.00016937963664531708
1772699609790700300,4.0477001953125,0.002227263990789652,-0.00106892641633749,-0.0014269240200519562
1772699609800658200,4.057658203125,-0.0011655878042802215,-0.0010736016556620598,-0.0030274747405201197
1772699609810615000,4.067614990234375,0.0022507153917104006,0.00039912667125463486,0.00016432395204901695
1772699609820572200,4.077572265625,0.00048579927533864975,0.001132960431277752,-0.0009193811565637589
1772699609830529300,4.087529296875,-0.00016960478387773037,-0.0005871756002306938,-0.0015276470221579075
1772699609840486100,4.097486083984375,0.0006146044470369816,-0.0021441858261823654,-0.0007202839478850365
1772699609850443000,4.107443115234375,-0.000044261571019887924,-0.0012397761456668377,0.0013460628688335419
1772699609860400000,4.117400146484375,-0.0008040803950279951,0.0012190300039947033,-0.0011826804839074612
1772699609870357000,4.12735693359375,0.0018582816701382399,0.001301055308431387,-0.00013872142881155014
1772699609880315100,4.137315185546875,0.0007803221233189106,-0.00011244742199778557,-0.0029517735820263624
1772699609890272300,4.147272216796875,0.002410975517705083,-0.00009620236232876778,0.0024949233047664165
1772699609900229000,4.15722900390625,0.00010419846512377262,0.0005353451706469059,-0.0024940604344010353
1772699609910186000,4.16718603515625,0.0013047512620687485,0.00035371771082282066,-0.00032891053706407547
1772699609920143000,4.17714306640625,-0.0016908610705286264,-0.00008045835420489311,-0.0022159155923873186
1772699609930100200,4.187100341796875,0.003195773111656308,0.00026735058054327965,0.00001634610816836357
1772699609940057000,4.19705712890625,-0.00029610120691359043,-0.0010347850620746613,0.0027436790987849236
1772699609950015000,4.207014892578125,0.0009438665583729744,-0.0001942915841937065,0.0006930450908839703
1772699609959972000,4.21697216796875,0.0011611641384661198,0.0005212621763348579,-0.002729157917201519
1772699609969929200,4.22692919921875,0.0018463956657797098,-0.0024044865276664495,-0.0018239493947476149
1772699609979886000,4.236885986328125,0.000018029240891337395,0.0006788414902985096,-0.0017282553017139435
1772699609989843200,4.24684326171875,-0.002107705920934677,0.0013409033417701721,-0.0036502585280686617
1772699609999800300,4.25680029296875,-0.001411973382346332,0.002488106954842806,-0.0006550953257828951
1772699610009757000,4.2667568359375,0.0029058095533400774,0.0015477444976568222,-0.003736638929694891
1772699610019715000,4.276715087890625,0.0023405062966048717,-0.0007607280276715755,-0.0006829353515058756
1772699610029672200,4.286672119140625,-0.001207889523357153,0.0016584871336817741,-0.0019042608328163624
1772699610039629300,4.29662939453125,0.00019042473286390305,0.0006327582523226738,-0.0011227724608033895
1772699610049586200,4.306586181640625,-0.0012588674435392022,-0.0018607592210173607,-0.0014567328616976738
1772699610059543000,4.31654296875,0.0008489303290843964,-0.002407548949122429,-0.00037438375875353813
1772699610069500200,4.326500244140625,-0.0013250079937279224,0.004983521997928619,-0.00037172017619013786
1772699610079457000,4.33645703125,0.00135734211653471,0.0016935099847614765,0.0007387422956526279
1772699610089414100,4.3464140625,-0.0008320427732542157,-0.00040452834218740463,-0.0012402527499943972
1772699610099372000,4.3563720703125,-0.0010852378327399492,-0.001136313658207655,0.00036915112286806107
1772699610109329200,4.3663291015625,0.0015406389720737934,0.0009281686507165432,-0.00028678542003035545
1772699610119286000,4.3762861328125,0.0024218109901994467,0.000862407498061657,0.000027747824788093567
1772699610129243100,4.3862431640625,0.0005930184852331877,-0.001223912462592125,0.001024835743010044
1772699610139200300,4.3962001953125,0.000854521756991744,0.0014960379339754581,0.0008786986581981182
1772699610149157000,4.4061572265625,-0.0009026319021359086,0.0007314444519579411,-0.003890756517648697
1772699610159114200,4.4161142578125,-0.0029449774883687496,-0.000055577605962753296,-0.0009026136249303818
1772699610169072000,4.426072021484375,0.0009498957078903913,0.0013023684732615948,-0.00007570208981633186
1772699610179029200,4.436029296875,-0.0010245336452499032,0.002029835246503353,-0.0026985807344317436
1772699610188986000,4.445986083984375,-0.00016672955825924873,-0.00010788440704345703,0.001128647942095995
1772699610198943200,4.455943115234375,0.0017976444214582443,0.0010800445452332497,-0.0004424802027642727
1772699610208900000,4.465900146484375,0.00271856551989913,-0.0003061308525502682,0.0007207887247204781
1772699610218857000,4.47585693359375,-0.0005554067902266979,-0.00009670853614807129,-0.0029349937103688717
1772699610228814000,4.48581396484375,0.0009271749295294285,0.0004891869612038136,0.002192656509578228
1772699610238772200,4.495772216796875,-0.00028700241819024086,0.00002053612843155861,0.00037937378510832787
1772699610248729300,4.505729248046875,0.00023977085947990417,-0.0009925300255417824,-0.0008997425902634859
1772699610258686000,4.51568603515625,0.000971929868683219,0.0004238476976752281,-0.001886790618300438
1772699610268643000,4.52564306640625,0.003156254766508937,0.00043210340663790703,0.0014629336073994637
1772699610278600200,4.53560009765625,-0.0017346249660477042,0.001319198403507471,-0.00010054092854261398
1772699610288557000,4.54555712890625,-0.0028603430837392807,0.0015487628988921642,-0.0012435698881745338
1772699610298514200,4.55551416015625,0.0003103082999587059,0.0027221362106502056,-0.0007037001196295023
1772699610308472000,4.56547216796875,0.0014299012254923582,-0.0034561315551400185,-0.00032206904143095016
1772699610318429200,4.57542919921875,-0.0017515149665996432,0.0006536627188324928,0.004835113883018494
1772699610328386000,4.585385986328125,0.002006471622735262,0.000655527226626873,-0.0025852518156170845
1772699610338343200,4.59534326171875,-0.004518868867307901,0.0020450549200177193,0.000005686189979314804
1772699610348300300,4.60530029296875,-0.0005872440524399281,0.0017806030809879303,-0.002328574424609542
1772699610358257200,4.615257080078125,-0.0003219973295927048,0.0007994011975824833,-0.0033350889571011066
1772699610368214000,4.625214111328125,0.0007158366497606039,0.002757623326033354,-0.0016461124178022146
1772699610378171100,4.635171142578125,-0.0013625196879729629,-0.0011242055334150791,-0.002454250119626522
1772699610388129300,4.64512939453125,-0.002173186047002673,0.00043720565736293793,-0.0015833964571356773
1772699610398086100,4.655086181640625,0.000487389974296093,0.0007179072126746178,0.0021075094118714333
1772699610408043300,4.665043212890625,-0.0025930884294211864,-0.00014788610860705376,-0.0017498130910098553
1772699610418000100,4.675000244140625,-0.0015454527456313372,0.0016055554151535034,-0.003369126236066222
1772699610427957000,4.68495703125,-0.0015798076055943966,-0.0002469397149980068,-0.0023494018241763115
1772699610437914000,4.6949140625,0.0030381553806364536,-0.0008121998980641365,-0.001063105883076787
1772699610447871200,4.704871337890625,-0.0011014621704816818,0.000871716532856226,0.0003291945904493332
1772699610457829000,4.7148291015625,-0.00006919447332620621,0.00014739995822310448,-0.002275365637615323
1772699610467786000,4.724785888671875,0.0005854105111211538,-0.00004301639273762703,-0.0003973045386373997
1772699610477743000,4.7347431640625,0.0019070613197982311,-0.00027292314916849136,0.0008607334457337856
1772699610487700200,4.7447001953125,0.000995727488771081,0.000673830509185791,-0.001389903947710991
1772699610497657000,4.754656982421875,0.0009624254889786243,-0.00018810853362083435,0.0014774291776120663
1772699610507614200,4.7646142578125,-0.000942799961194396,-0.0009630885906517506,0.0032417732290923595
1772699610517571300,4.7745712890625,-0.00010999664664268494,-0.0004984932020306587,-0.0012183727230876684
1772699610527529000,4.784529052734375,0.000556326238438487,0.001762530766427517,0.00032972265034914017
1772699610537486000,4.794486083984375,-0.0007213829085230827,-0.00033553596585989,0.001309819519519806
1772699610547443200,4.804443115234375,0.0000013990793377161026,-0.001974711660295725,0.000455477274954319
1772699610557400300,4.814400390625,-0.002772087696939707,-0.001900672446936369,-0.0016619306989014149
1772699610567357200,4.824357177734375,-0.00005273381248116493,0.0006104223430156708,0.001027063000947237
1772699610577314000,4.83431396484375,0.00003771902993321419,0.001187637448310852,0.0009653004817664623
1772699610587271200,4.844271240234375,0.0028566750697791576,-0.002106693107634783,0.00132802315056324
1772699610597228000,4.85422802734375,0.00026034191250801086,0.0013171890750527382,-0.0027779138181358576
1772699610607186200,4.864186279296875,0.0012257376220077276,-0.001588586252182722,0.0005433144979178905
1772699610617143000,4.87414306640625,0.000703287310898304,0.0014955038204789162,0.00002347305417060852
1772699610627100200,4.88410009765625,-0.0005595835391432047,0.0011444990523159504,-0.002378431847319007
1772699610637057000,4.89405712890625,-0.0008603086462244391,-0.00017287256196141243,0.001683670561760664
1772699610647014100,4.90401416015625,0.0007359902374446392,-0.0013443967327475548,-0.0023603395093232393
1772699610656971300,4.91397119140625,0.0014434510376304388,0.001894074957817793,-0.0012000820133835077
1772699610666927600,4.923927734375,0.00040774745866656303,0.0007001799531280994,0.0003852974623441696
1772699610676885500,4.933885498046875,0.0004658186808228493,-0.0018880725838243961,0.00426728930324316
1772699610686842400,4.94384228515625,0.0009774118661880493,-0.0024494670797139406,-0.001208702800795436
1772699610696799500,4.953799560546875,0.0010087944101542234,-0.0008067567832767963,0.0006981012411415577
1772699610706756600,4.963756591796875,-0.0002857681829482317,-0.0008067567832767963,0.0020091752521693707
1772699610716713500,4.97371337890625,-0.0017618442652747035,0.001915457658469677,-0.0010430444963276386
1772699610726670600,4.983670654296875,-0.001174350967630744,0.0005362061783671379,-0.0011045634746551514
1772699610736627500,4.99362744140625,-0.0005180318839848042,-0.00064083281904459,0.003540018107742071
1772699610746585600,5.003585693359375,0.0006204694509506226,-0.0009694667533040047,0.001961295958608389
1772699610756542500,5.01354248046875,-0.0004201869014650583,0.00034609343856573105,-0.0005256314761936665
1772699610766499600,5.02349951171875,-0.0015467040939256549,-0.0016715172678232193,-0.0022066186647862196
1772699610776456700,5.033456787109375,0.0019482618663460016,0.0006892210803925991,0.0023413156159222126
1772699610786413300,5.043413330078125,0.0007389204110950232,0.001238098368048668,-0.0011980256531387568
1772699610796370400,5.053370361328125,-0.0036553419195115566,0.0006645191460847855,-0.004487127996981144
1772699610806327600,5.06332763671875,-0.00023264717310667038,-0.0024130300153046846,0.002174503169953823
1772699610816285700,5.07328564453125,-0.0005431997124105692,0.00038092024624347687,-0.00026035821065306664
1772699610826242600,5.08324267578125,0.0009018315467983484,-0.002083036582916975,0.0009495159611105919
1772699610836199400,5.093199462890625,0.0012320955283939838,-0.00005001155659556389,-0.00007397495210170746
1772699610846156500,5.103156494140625,-0.0021128347143530846,0.0015063397586345673,-0.00014215148985385895
1772699610856113400,5.113113525390625,-0.00007715844549238682,0.0012653679586946964,0.0000074696727097034454
1772699610866070500,5.123070556640625,-0.0007815645076334476,-0.0004774043336510658,0.0007187998853623867
1772699610876027600,5.133027587890625,0.0015383269637823105,-0.00036343326792120934,-0.0011706266086548567
1772699610885984500,5.142984619140625,-0.00005850451998412609,0.0004829191602766514,0.001407046802341938
1772699610895942400,5.1529423828125,0.0016034194268286228,0.000009889714419841766,0.0014547472819685936
1772699610905899500,5.1628994140625,0.0008207163773477077,-0.0018402081914246082,-0.0005018773954361677
1772699610915856600,5.172856689453125,-0.00015785475261509418,0.0011408883146941662,0.001583050936460495
1772699610925813500,5.1828134765625,0.001124723581597209,0.0007419469766318798,-0.0035936012864112854
1772699610935770600,5.1927705078125,-0.0008913911879062653,0.0005175424739718437,0.0009047654457390308
1772699610945727500,5.2027275390625,0.0017153110820800066,-0.00030297785997390747,-0.000020683277398347855
1772699610955684400,5.212684326171875,0.00021819793619215488,0.0004197540692985058,-0.0005912866909056902
1772699610965642500,5.222642578125,-0.0006997936870902777,0.0017313607968389988,0.00021485239267349243
1772699610975599600,5.232599609375,0.002154604298993945,0.00046281563118100166,-0.00004642689600586891
1772699610985556500,5.242556396484375,0.003182584187015891,0.00046388059854507446,0.0003546453081071377
1772699610995513300,5.252513427734375,0.003004303202033043,0.0002476661466062069,-0.00009716907516121864
1772699611005470500,5.262470458984375,-0.0009923027828335762,-0.0007635359652340412,0.002057594247162342
1772699611015427600,5.272427490234375,-0.0005322515498846769,0.0016373181715607643,-0.00044782552868127823
1772699611025384400,5.282384521484375,-0.0014145568711683154,-0.0003339536488056183,-0.0007993627805262804
1772699611035342300,5.29234228515625,0.0012003681622445583,-0.0005562859587371349,-0.0019015467260032892
1772699611045299500,5.302299560546875,0.0008839848451316357,-0.00036107655614614487,-0.0027018263936042786
1772699611055256600,5.312256591796875,0.00019471370615065098,0.00022153276950120926,-0.00036173826083540916
1772699611065213400,5.32221337890625,0.0004282731097191572,0.0006963745690882206,-0.002627821872010827
1772699611075170600,5.332170654296875,0.0007234502118080854,0.0003195395693182945,-0.0003989781253039837
1772699611085127700,5.342127685546875,0.0008992189541459084,0.00019357213750481606,-0.001896207220852375
1772699611095084500,5.35208447265625,-0.00021695788018405437,0.000019649509340524673,-0.002709784545004368
1772699611105041400,5.36204150390625,0.000010209623724222183,0.000962940976023674,-0.0021055133547633886
1772699611114999600,5.37199951171875,0.00024143769405782223,0.0007467488758265972,-0.0009796461090445518
1772699611124956700,5.381956787109375,0.0003514261916279793,0.0022186781279742718,0.0002744365483522415
1772699611134913500,5.39191357421875,-0.00009191036224365234,-0.0003240630030632019,0.0013561099767684937
1772699611144870400,5.401870361328125,-0.0007995122577995062,0.0016541332006454468,0.0001315884292125702
1772699611154827500,5.41182763671875,-0.001656299689784646,-0.0009485594928264618,0.0010716663673520088
1772699611164784400,5.421784423828125,0.0003796869423240423,0.0005097873508930206,0.0018434501253068447
1772699611174741500,5.431741455078125,0.001670934958383441,-0.0003829551860690117,-0.0011461437679827213
1772699611184699600,5.44169970703125,-0.0018532259855419397,0.0014120154082775116,-0.0009807616006582975
1772699611194656500,5.451656494140625,-0.0007836362347006798,0.0009471140801906586,-0.001305583631619811
1772699611204613400,5.46161328125,-0.0003934830892831087,-0.0008688955567777157,-0.0006653596647083759
1772699611214570500,5.471570556640625,0.0012191850692033768,0.0003214874304831028,0.0002559050917625427
1772699611224527600,5.481527587890625,-0.003776639001443982,0.0005321432836353779,0.0008463277481496334
1772699611234484500,5.491484375,0.0007564614061266184,-0.0013209376484155655,-0.0013628597371280193
1772699611244441600,5.501441650390625,-0.000044883694499731064,-0.00036725960671901703,-0.0034928559325635433
1772699611254398500,5.5113984375,0.0011048782616853714,-0.0016581322997808456,-0.0011752182617783546
1772699611264356600,5.521356689453125,-0.00005359668284654617,0.0012500397861003876,0.0035894433967769146
1772699611274313500,5.5313134765625,0.0005009402520954609,-0.0014096214435994625,0.0001087491400539875
1772699611284270600,5.5412705078125,0.0010783134493976831,-0.0017478428781032562,-0.0009631733410060406
1772699611294227700,5.551227783203125,0.0007031133864074945,-0.0017877500504255295,0.0018931184895336628
1772699611304184300,5.561184326171875,-0.0005698776803910732,-0.0009794807992875576,0.002100046258419752
1772699611314141400,5.571141357421875,0.0007422619964927435,0.00029803765937685966,0.0021972516551613808
1772699611324098600,5.5810986328125,-0.0011214182013645768,-0.0019547301344573498,-0.000980166019871831
1772699611334056700,5.591056640625,0.0005270503461360931,0.0006168456748127937,-0.0027175454888492823
1772699611344013600,5.601013671875,0.0003741849213838577,0.0004096515476703644,-0.000011507421731948853
1772699611353970400,5.610970458984375,0.00033136014826595783,0.00031106360256671906,0.0013694465160369873
1772699611363927600,5.620927490234375,-0.0002465457655489445,0.0007169293239712715,0.0008581196889281273
1772699611373884400,5.630884521484375,0.0005558645352721214,-0.0006905514746904373,-0.00013523967936635017
1772699611383841500,5.640841552734375,0.0013172624167054892,0.0018042977899312973,-0.0011914493516087532
1772699611393798700,5.650798583984375,-0.0013490708079189062,0.0021912306547164917,-0.0018496110569685698
1772699611403756500,5.660756591796875,-0.0017839649226516485,0.00038560759276151657,-0.002612074138596654
1772699611413713400,5.67071337890625,0.0009170996490865946,0.00041738059371709824,0.0003980109468102455
1772699611423670500,5.68067041015625,-0.0022946724202483892,0.0010972856543958187,0.0035426714457571507
1772699611433627600,5.690627685546875,-0.002171861007809639,-0.0008178330026566982,0.003401543479412794
1772699611443584500,5.70058447265625,0.00012964289635419846,0.00044343993067741394,-0.0009940038435161114
1772699611453541600,5.710541748046875,0.002036738907918334,0.0011996501125395298,-0.0011411712039262056
1772699611463498500,5.72049853515625,-0.00028500473126769066,0.0013447925448417664,0.0009137238375842571
1772699611473456600,5.73045654296875,-0.000657406635582447,-0.0015370729379355907,0.002198526170104742
1772699611483413500,5.74041357421875,0.0008627257775515318,-0.000013212207704782486,-0.000003908295184373856
1772699611493370600,5.75037060546875,0.0013181327376514673,0.0008956072852015495,-0.000888435635715723
1772699611503327500,5.760327392578125,0.0005202498286962509,0.0005821529775857925,0.00016537727788090706
1772699611513284400,5.770284423828125,-0.0013476252788677812,0.0008918517269194126,-0.0027095223776996136
1772699611523241500,5.780241455078125,-0.000669051893055439,0.003474052995443344,-0.0026714392006397247
1772699611533198600,5.790198486328125,-0.002164962235838175,-0.0028329845517873764,-0.001194905024021864
1772699611543155500,5.800155517578125,-0.0043620700016617775,-0.00034186383709311485,-0.0002865009009838104
1772699611553113300,5.81011328125,0.0011339010670781136,0.0004690098576247692,-0.00037102214992046356
1772699611563070500,5.820070556640625,0.0007077953778207302,0.0012170914560556412,-0.0014235032722353935
1772699611573027600,5.830027587890625,-0.00143945321906358,0.0013425312936306,-0.0006903966423124075
1772699611582984400,5.839984375,0.0006958693265914917,0.0010383985936641693,-0.001866182079538703
1772699611592941600,5.849941650390625,0.001287347637116909,-0.0023947914596647024,-0.0009671486914157867
1772699611602898700,5.859898681640625,-0.0010839310707524419,0.0019331113435328007,0.00021156622096896172
1772699611612855600,5.86985546875,-0.0032190335914492607,-0.000017204787582159042,-0.0022624069824814796
1772699611622813400,5.8798134765625,-0.0013795882696285844,0.0005921265110373497,-0.0036688223481178284
1772699611632770600,5.8897705078125,-0.00001529487781226635,0.0025264574214816093,0.0015528537333011627
1772699611642727700,5.899727783203125,-0.002055808901786804,0.0004428001120686531,-0.0037417765706777573
1772699611652684500,5.9096845703125,0.00006211875006556511,0.00270223431289196,0.0009386045858263969
1772699611662641400,5.919641357421875,-0.002137119648978114,0.0003527933731675148,-0.0012193548027426004
1772699611672598800,5.929598876953125,-0.0005271194968372583,0.0021168040111660957,-0.0007113190367817879
1772699611682555600,5.9395556640625,0.0009480053558945656,0.0006786966696381569,0.0004389001987874508
1772699611692512800,5.9495126953125,0.0009271830786019564,0.001618177630007267,0.0007029683329164982
1772699611702470700,5.959470703125,0.0019628864247351885,0.0005252165719866753,0.001328545156866312
1772699611712427800,5.969427734375,0.0018442452419549227,-0.001902468502521515,0.0033465903252363205
1772699611722384600,5.979384521484375,0.0003691201563924551,0.000037377700209617615,-0.0012052846141159534
1772699611732341800,5.989341796875,0.00015516625717282295,0.00022558216005563736,0.0000125933438539505
1772699611742299000,5.999298828125,-0.00010502454824745655,-0.001302539836615324,-0.001580243231728673
1772699611752255700,6.009255859375,-0.000114107271656394,0.0006380085833370686,-0.00007772166281938553
1772699611762212900,6.019212890625,-0.001881381031125784,0.0005493252538144588,0.002703683450818062
1772699611772170800,6.029170654296875,0.0018007017206400633,0.0021158698946237564,-0.0005446178838610649
1772699611782127900,6.0391279296875,-0.0009948182851076126,0.003632807172834873,0.0002231714315712452
1772699611792084700,6.049084716796875,-0.00400982890278101,-0.00005280459299683571,0.001035161316394806
1772699611802041900,6.059041748046875,0.0006405829917639494,-0.0022336672991514206,0.0006649820134043694
1772699611811998700,6.068998779296875,0.0003274031914770603,0.0008398797363042831,0.00018300674855709076
1772699611821955600,6.07895556640625,-0.0009333372581750154,-0.0005574808456003666,-0.0013515069149434566
1772699611831912700,6.08891259765625,-0.0003869899082928896,-0.0001623104326426983,0.002383388113230467
1772699611841870800,6.098870849609375,0.0007363313343375921,0.001664085779339075,0.0008576628752052784
1772699611851828000,6.108827880859375,-0.003222791478037834,-0.001438761129975319,-0.001357679022476077
1772699611861784600,6.11878466796875,-0.00003498769365251064,-0.0025386465713381767,-0.00038136402145028114
1772699611871741700,6.12874169921875,0.0019026841036975384,-0.0010823868215084076,0.0007850518450140953
1772699611881698800,6.13869873046875,0.0015018782578408718,-0.0007950314320623875,-0.0007824846543371677
1772699611891655700,6.14865576171875,-0.0011562169529497623,0.0022814692929387093,-0.002180008916184306
1772699611901612800,6.15861279296875,-0.002380738500505686,0.00012164609506726265,0.0017353706061840057
1772699611911570000,6.16856982421875,-0.0003940202295780182,-0.001807547640055418,-0.0010790580417960882
1772699611921527600,6.178527587890625,-0.0025293428916484118,0.0013256613165140152,-0.001521941740065813
1772699611931484700,6.188484619140625,0.000026795081794261932,0.00011308863759040833,0.0020560063421726227
1772699611941441800,6.19844189453125,0.0007391907274723053,-0.0027165201026946306,0.001401401124894619
1772699611951399000,6.20839892578125,-0.0007395311258733273,-0.00021379999816417694,-0.000383961945772171
1772699611961355800,6.218355712890625,0.0013928618282079697,-0.0007075504399836063,-0.00011604791507124901
1772699611971312600,6.228312744140625,-0.0002094842493534088,0.0017406856641173363,-0.0005205541383475065
1772699611981269800,6.238269775390625,-0.0013900636695325375,-0.0012614955194294453,-0.0011408044956624508
1772699611991227600,6.2482275390625,0.0008361171931028366,-0.000257986132055521,-0.0008845655247569084
1772699612001184800,6.258184814453125,-0.0018709859577938914,-0.0006065941415727139,-0.0019796572159975767
1772699612011142000,6.268141845703125,0.00012473599053919315,0.0006611282005906105,0.0009013824164867401
1772699612021098800,6.2780986328125,-0.0015187006210908294,-0.0008462211117148399,0.00261486042290926
1772699612031055600,6.2880556640625,-0.0021573237609118223,0.0021476997062563896,-0.0009617176838219166
1772699612041012700,6.2980126953125,0.0005982490256428719,-0.002414827700704336,-0.00023920228704810143
1772699612050969900,6.307969970703125,0.00047581735998392105,0.00036711758002638817,-0.0009645009413361549
1772699612060926700,6.3179267578125,0.0008595788385719061,0.0005950843915343285,-0.001223626546561718
1772699612070884600,6.327884521484375,-0.0005116956308484077,0.0005297940224409103,-0.0017323896754533052
1772699612080841700,6.337841796875,0.0008686208166182041,-0.0006364043802022934,0.0023875203914940357
1772699612090798800,6.347798828125,-0.00018557184375822544,-0.001493843737989664,0.0013028611429035664
1772699612100755700,6.357755615234375,-0.0009498992003500462,0.0007032644934952259,0.0001332010142505169
1772699612110712800,6.367712890625,0.0005739356856793165,-0.001078268513083458,-0.001047034515067935
1772699612120670000,6.377669921875,-0.000730480533093214,-0.00024123676121234894,-0.0015756720677018166
1772699612130626600,6.38762646484375,-0.001692890771664679,0.001677888911217451,-0.0022637813817709684
1772699612140584700,6.397584716796875,0.0006789204198867083,-0.00008911872282624245,-0.0003718715161085129
1772699612150541800,6.407541748046875,0.00004612002521753311,-0.002459913957864046,-0.003946215845644474
1772699612160499000,6.4174990234375,0.001999814994633198,0.0001486525870859623,0.002948707900941372
1772699612170455800,6.427455810546875,0.00016531976871192455,-0.0006788470782339573,0.0015579457394778728
1772699612180412700,6.43741259765625,0.000592757249251008,0.001062061171978712,-0.0017816582694649696
1772699612190369800,6.447369873046875,-0.001764993416145444,-0.00012997537851333618,-0.0010848548263311386
1772699612200326700,6.45732666015625,-0.0007244964363053441,-0.001249035820364952,0.00468062236905098
1772699612210283800,6.46728369140625,-0.0006261514499783516,0.0015776827931404114,-0.0003360663540661335
1772699612220241700,6.47724169921875,0.00033658137544989586,-0.0017701773904263973,-0.0013984013348817825
1772699612230198800,6.48719873046875,0.0030072492081671953,0.002622411586344242,0.002259827684611082
1772699612240155600,6.49715576171875,0.0024125652853399515,-0.0006000138819217682,0.0006552734412252903
1772699612250112800,6.50711279296875,0.00022311648353934288,-0.0015392657369375229,0.0004904721863567829
1772699612260070000,6.51706982421875,0.0006713266484439373,0.0005017807707190514,0.0008217692375183105
1772699612270026800,6.52702685546875,-0.00009442353621125221,-0.00165451318025589,0.001398957334458828
1772699612279983900,6.53698388671875,-0.0013716756366193295,-0.0015461225993931293,0.00029907142743468285
1772699612289941800,6.546941650390625,0.00086421356536448,0.001391843892633915,0.00020893244072794914
1772699612299898600,6.556898681640625,-0.0006330155301839113,-0.0013509453274309635,-0.00023075519129633904
1772699612309855700,6.566855712890625,-0.001012657186947763,0.0008220397867262363,-0.0006183004006743431
1772699612319812900,6.576812744140625,-0.0018004202283918858,0.0009543988853693008,0.0007612169720232487
1772699612329769700,6.586769775390625,-0.0015446729958057404,0.0026791966520249844,0.0001302720047533512
1772699612339726600,6.5967265625,0.002044735476374626,0.0011390899308025837,0.0009734290651977062
1772699612349683700,6.60668359375,0.00020844466052949429,0.0015922114253044128,-0.0005927071906626225
1772699612359641900,6.616641845703125,-0.0012216728646308184,0.0010079136118292809,-0.0007026956882327795
1772699612369598700,6.6265986328125,-0.001109747332520783,-0.0020605693571269512,0.0033091632649302483
1772699612379555600,6.6365556640625,-0.0010343798203393817,-0.0008264603093266487,-0.0015966459177434444
1772699612389512700,6.6465126953125,0.0008617888670414686,0.0002375459298491478,0.0028395280241966248
1772699612399469800,6.6564697265625,-0.000773125677369535,0.0024738023057579994,0.0004360247403383255
1772699612409426700,6.6664267578125,0.0008386408444494009,0.0006508743390440941,-0.001458598766475916
1772699612419383800,6.6763837890625,0.00030600884929299355,-0.003923371434211731,-0.001158194150775671
1772699612429341000,6.6863408203125,-0.0028954765293747187,0.0001864326186478138,0.00017594778910279274
1772699612439298600,6.696298583984375,-0.0006890475051477551,-0.0010157180950045586,-0.0013061014469712973
1772699612449255700,6.706255615234375,0.0030056971590965986,-0.00190054252743721,-0.0015369565226137638
1772699612459212800,6.716212890625,-0.0003165961243212223,-0.0007172999903559685,0.002514776773750782
1772699612469170000,6.726169921875,0.0008694033604115248,-0.000906545203179121,-0.001372810686007142
1772699612479126800,6.736126708984375,0.003189815441146493,-0.001206683460623026,0.0013377545401453972
1772699612489083600,6.746083740234375,0.0011173193342983723,0.0003542187623679638,0.0023847375996410847
1772699612499040800,6.756040771484375,0.0018416994716972113,-0.00041889678686857224,-0.0026489030569791794
1772699612508998700,6.76599853515625,-0.0016944375820457935,0.0006391690112650394,0.0010585407726466656
1772699612518955800,6.775955810546875,-0.0004701823927462101,0.0032317563891410828,0.00030380068346858025
1772699612528913000,6.785912841796875,-0.0004012593999505043,-0.0008593783713877201,0.0003873948007822037
1772699612538869800,6.795869873046875,-0.0003083150368183851,0.0012218821793794632,-0.0008507086895406246
1772699612548826600,6.80582666015625,-0.00037627341225743294,-0.00034676166251301765,-0.0002825809642672539
1772699612558783700,6.81578369140625,0.00021095341071486473,-0.00004395982250571251,0.003640521317720413
1772699612568740900,6.825740966796875,0.0007920893840491772,0.0014841975644230843,0.0008775023743510246
1772699612578697700,6.83569775390625,-0.0030204919166862965,-0.0011123847216367722,-0.0023097689263522625
1772699612588655600,6.845655517578125,0.00042512896470725536,-0.0008136467076838017,-0.0010861246846616268
1772699612598612700,6.85561279296875,0.001342854229733348,-0.00045545119792222977,0.00004651769995689392
1772699612608569900,6.86556982421875,-0.000569656491279602,0.0015975413843989372,-0.0022041562478989363
1772699612618526700,6.875526611328125,0.0017169336788356304,0.00013173744082450867,0.003395672421902418
1772699612628483800,6.88548388671875,0.0020179618149995804,0.0006196098402142525,-0.0014786538667976856
1772699612638441000,6.89544091796875,0.0007598844822496176,0.001598321832716465,-0.001122322864830494
1772699612648397600,6.9053974609375,-0.002513536484912038,-0.0021743671968579292,-0.00035653309896588326
1772699612658355700,6.915355712890625,-0.0011912769405171275,0.001293867826461792,0.0005731764249503613
1772699612668312600,6.9253125,-0.001543598249554634,-0.002211612183600664,-0.0003969874233007431
1772699612678269400,6.93526953125,-0.00014091120101511478,-0.0020968299359083176,-0.0008627744391560555
1772699612688226600,6.9452265625,-0.0007858403259888291,-0.0018175230361521244,0.0011976477690041065
1772699612698183400,6.955183349609375,-0.001954968087375164,0.0004914379678666592,-0.00136910704895854
1772699612708140300,6.965140380859375,0.0005208381917327642,-0.000023467466235160828,-0.0019944722298532724
1772699612718097400,6.975097412109375,-0.0011207343777641654,0.004114552401006222,-0.000788060249760747
1772699612728055600,6.9850556640625,-0.0018321461975574493,0.0024128626100718975,-0.00021413713693618774
1772699612738012700,6.9950126953125,0.00033486797474324703,-0.002058052457869053,0.0024484912864863873
1772699612747969300,7.00496923828125,0.0009287248831242323,-0.0010556555353105068,0.002417363692075014
1772699612757926400,7.014926513671875,0.0007835826836526394,0.00016513746231794357,0.00043623801320791245
1772699612767883500,7.024883544921875,0.0009535015560686588,0.0016450416296720505,-0.0015652203001081944
1772699612777840400,7.03484033203125,0.0018030498176813126,0.000007197726517915726,-0.003797748126089573
1772699612787797500,7.044797607421875,-0.0006826410535722971,0.003543250262737274,-0.001118578715249896
1772699612797754600,7.054754638671875,0.0025978407356888056,0.00047928327694535255,-0.002059207297861576
1772699612807712500,7.06471240234375,0.0007949385326355696,0.0010447078384459019,-0.00043188873678445816
1772699612817669400,7.07466943359375,0.000980827258899808,-0.0010719727724790573,-0.0010127241257578135
1772699612827626500,7.08462646484375,0.0010084409732371569,0.00029724836349487305,-0.0020564375445246696
1772699612837583600,7.09458349609375,0.0018705062102526426,0.00032973894849419594,0.002563348039984703
1772699612847540500,7.10454052734375,-0.0004497652407735586,-0.0027739459183067083,0.0007600476965308189
1772699612857497300,7.114497314453125,0.0039673540741205215,0.00071293069049716,-0.00028151459991931915
1772699612867454500,7.124454345703125,-0.0027518102433532476,0.001835628878325224,-0.0008970559574663639
1772699612877412600,7.13441259765625,0.0006977824959903955,0.0009376108646392822,-0.000882941298186779
1772699612887369500,7.144369384765625,0.00039713061414659023,-0.0014366335235536098,-0.0008096266537904739
1772699612897326600,7.15432666015625,0.0010522683151066303,-0.0022169393487274647,-0.0011222816538065672
1772699612907283500,7.164283447265625,-0.0006947743240743876,-0.0015434101223945618,-0.0009399720001965761
1772699612917240300,7.174240234375,-0.0005054236389696598,-0.0013556573539972305,-0.002751454245299101
1772699612927197400,7.184197509765625,0.0006238461937755346,-0.0006313608027994633,0.000027026981115341187
1772699612937154600,7.194154541015625,-0.000987366191111505,0.0014901133254170418,-0.0017261318862438202
1772699612947111700,7.204111572265625,0.0005691703408956528,0.000258089043200016,-0.0013826382346451283
1772699612957069300,7.2140693359375,-0.0017198164714500308,0.0011108331382274628,0.0006410977803170681
1772699612967026400,7.2240263671875,0.0008837871719151735,0.0006376178935170174,-0.0009211390279233456
1772699612976983600,7.233983642578125,-0.00006509711965918541,-0.00019461987540125847,-0.0010782654862850904
1772699612986940400,7.2439404296875,-0.0023961348924785852,0.0010204887948930264,-0.000566217815503478
1772699612996897500,7.2538974609375,0.00043427268974483013,0.0007698852568864822,-0.002080224920064211
1772699613006854700,7.263854736328125,-0.0015048850327730179,0.0004990859888494015,-0.0022390771191567183
1772699613016811500,7.2738115234375,-0.00009660539217293262,0.001665283925831318,-0.000301094725728035
1772699613026769400,7.283769287109375,-0.0007055689347907901,0.00031309807673096657,-0.0013072853907942772
1772699613036726500,7.2937265625,-0.0010168924927711487,0.0005543804727494717,-0.0000026025809347629547
1772699613046683600,7.30368359375,0.00012869946658611298,0.001136769074946642,0.001023605465888977
1772699613056640500,7.313640625,-0.0018119459273293614,0.0015402380377054214,-0.0005298166070133448
1772699613066597400,7.323597412109375,-0.002090619644150138,-0.001067652367055416,0.0001598736271262169
1772699613076554500,7.333554443359375,0.000884397653862834,-0.0008942806161940098,-0.0007261601276695728
1772699613086511400,7.343511474609375,-0.002219083020463586,0.00015802960842847824,-0.0013877085875719786
1772699613096468500,7.353468505859375,0.0002837558276951313,0.00006268825381994247,-0.00024015270173549652
1772699613106426400,7.36342626953125,-0.0009023846359923482,-0.0004746159538626671,-0.0017803562805056572
1772699613116383500,7.373383544921875,0.0007802005857229233,0.0009877257980406284,-0.0007731488440185785
1772699613126340400,7.38334033203125,-0.0010470077395439148,-0.001548717264086008,-0.00045502232387661934
1772699613136297500,7.39329736328125,-0.0016347672790288925,-0.0010839956812560558,-0.0014925897121429443
1772699613146254600,7.403254638671875,0.0015037229750305414,0.0027153710834681988,-0.0007226844318211079
1772699613156211500,7.41321142578125,0.0017183737363666296,0.001621078234165907,-0.0005349316634237766
1772699613166168600,7.42316845703125,0.000052036717534065247,0.0015186285600066185,0.0015883957967162132
1772699613176126500,7.43312646484375,0.0001652210485190153,-0.000052636489272117615,-0.000047583598643541336
1772699613186083600,7.44308349609375,0.0001362524926662445,-0.0018824818544089794,0.0016378308646380901
1772699613196040400,7.45304052734375,-0.0008605686016380787,-0.0005069593898952007,-0.00033530546352267265
1772699613205997600,7.46299755859375,0.00019151880405843258,-0.0004177526570856571,-0.0022023029159754515
1772699613215954400,7.472954345703125,0.00020217150449752808,-0.00019937334582209587,-0.0022169502917677164
1772699613225911300,7.482911376953125,0.0003808417823165655,-0.0002848631702363491,0.0010403315536677837
1772699613235868400,7.492868408203125,-0.00021410826593637466,0.0007234099321067333,0.0026970840990543365
1772699613245826600,7.50282666015625,0.0009008953347802162,0.001999738160520792,-0.0008818169590085745
1772699613255783700,7.51278369140625,0.001887596445158124,-0.001357442233711481,-0.0015300302766263485
1772699613265740300,7.522740234375,0.0012270237784832716,0.001604603137820959,0.0006786622107028961
1772699613275697400,7.532697509765625,0.0006957231089472771,0.00248291390016675,0.002225159667432308
1772699613285654500,7.542654541015625,-0.0006165786180645227,-0.0002402844838798046,0.0005920697003602982
1772699613295611400,7.552611328125,0.0006327102892100811,0.0015320493839681149,-0.0008889141026884317
1772699613305568500,7.562568603515625,0.0018473234958946705,0.000567073468118906,-0.00009728362783789635
1772699613315525600,7.572525634765625,0.0017583738081157207,0.001976685132831335,-0.0010323193855583668
1772699613325483500,7.5824833984375,0.0028003170154988766,0.0005287830717861652,0.0016075014136731625
1772699613335440400,7.5924404296875,0.0012775212526321411,0.0004451596178114414,-0.0012519347947090864
1772699613345397500,7.6023974609375,-0.0016966008115559816,-0.00028450461104512215,-0.0016298431437462568
1772699613355354600,7.612354736328125,0.001297857379540801,-0.0020459191873669624,-0.003302840981632471
1772699613365311500,7.6223115234375,0.0019586612470448017,-0.0005708830431103706,0.0016047260724008083
1772699613375268400,7.632268310546875,-0.0021340844687074423,-0.0007101665250957012,0.0009599747136235237
1772699613385225500,7.6422255859375,-0.000985616003163159,0.0006531290709972382,0.0014908998273313046
1772699613395183600,7.65218359375,-0.000831152661703527,-0.00016179820522665977,0.0010115308687090874
1772699613405140500,7.662140380859375,-0.0020558545365929604,-0.0002619135193526745,-0.0008353437297046185
1772699613415097600,7.67209765625,0.001637950073927641,0.0013477010652422905,0.0016182265244424343
1772699613425054500,7.682054443359375,-0.00004494795575737953,-0.001676770392805338,0.0001710904762148857
1772699613435011300,7.69201123046875,0.00189276784658432,-0.0008780881762504578,0.00001636054366827011
1772699613444968400,7.701968505859375,-0.0014562594005838037,0.0011325604282319546,-0.002346239984035492
1772699613454925600,7.711925537109375,0.0005467040464282036,-0.001974815968424082,0.0007321080192923546
1772699613464882400,7.72188232421875,0.0007760929875075817,-0.0010106014087796211,0.0006158133037388325
1772699613474840300,7.73184033203125,-0.0018841384444385767,-0.0006870273500680923,0.0015556425787508488
1772699613484797400,7.74179736328125,0.0020340546034276485,-0.00006615882739424706,0.0015719574876129627
1772699613494754600,7.751754638671875,-0.001659749774262309,0.00018737372010946274,0.0018934011459350586
1772699613504711400,7.76171142578125,-0.0007852030685171485,0.0005198279395699501,-0.00369860022328794
1772699613514668500,7.77166845703125,0.0005714111030101776,-0.0015241485089063644,-0.00016005802899599075
1772699613524625700,7.781625732421875,0.00037935073487460613,0.000602194108068943,0.0010602264665067196
1772699613534582300,7.791582275390625,-0.0010342552559450269,-0.002567500341683626,0.000455689150840044
1772699613544540400,7.80154052734375,0.00047462712973356247,-0.0007795821875333786,-0.0008924396242946386
1772699613554497500,7.81149755859375,0.0011084594298154116,-0.0007851747795939445,-0.000783249968662858
1772699613564454700,7.82145458984375,-0.00042147235944867134,0.0012101433239877224,-0.000485818600282073
1772699613574411500,7.83141162109375,0.0006696246564388275,-0.0012772493064403534,0.0008683986961841583
1772699613584368400,7.841368408203125,-0.0018575622234493494,0.0017000865191221237,0.0027077863924205303
1772699613594325500,7.851325439453125,0.001960345543920994,0.0005141813308000565,-0.00026723090559244156
1772699613604282400,7.861282470703125,-0.000937666860409081,0.0006058467552065849,0.0016454034484922886
1772699613614239500,7.871239501953125,0.0009236163459718227,-0.0010354593396186829,-0.0002542296424508095
1772699613624197400,7.881197265625,0.0018176476005464792,-0.0014458154328167439,0.0010101697407662868
1772699613634154500,7.891154541015625,0.0001984455157071352,0.0002876357175409794,-0.0015312850009649992
1772699613644111400,7.901111328125,0.0003014195244759321,-0.000006625894457101822,-0.002149619860574603
1772699613654068500,7.911068359375,0.002248722594231367,0.00003491947427392006,-0.0009448057971894741
1772699613664025600,7.921025634765625,-0.002109876135364175,0.00040609482675790787,-0.003491208888590336
1772699613673982700,7.930982666015625,0.0026691663078963757,-0.0014783581718802452,-0.0011002228129655123
1772699613683939600,7.940939697265625,-0.0021694647148251534,0.0010099518112838268,0.0018943967297673225
1772699613693897700,7.950897705078125,-0.00033055199310183525,-0.0011690463870763779,-0.0007338770665228367
1772699613703854600,7.9608544921875,-0.001329129096120596,-0.00008089514449238777,-0.0012514435220509768
1772699613713811700,7.970811767578125,-0.0007315156981348991,-0.001334178727120161,0.003388581797480583
1772699613723768800,7.980768798828125,0.001529298024252057,-0.0005380427464842796,-0.002593924757093191
1772699613733725400,7.990725341796875,-0.0016044435324147344,-0.00038943812251091003,-0.0007113362662494183
1772699613743682600,8.0006826171875,-0.001097110565751791,-0.0013869409449398518,-0.0012021365109831095
1772699613753639700,8.0106396484375,0.001062979456037283,0.0008152266964316368,-0.0006862822920084
1772699613763596500,8.020596435546874,0.0016389249358326197,0.0005571292713284492,-0.0030011748895049095
1772699613773554700,8.0305546875,0.0003994898870587349,0.000956870149821043,0.0037166490219533443
1772699613783511600,8.040511474609374,0.0013114949688315392,0.0006037913262844086,-0.0012978790327906609
1772699613793468700,8.05046875,0.0010907186660915613,0.0010765022598206997,0.0042199245654046535
1772699613803425500,8.060425537109374,0.0004985518753528595,0.00016042403876781464,-0.0004857238382101059
1772699613813382700,8.070382568359374,0.0009302501566708088,0.0004621604457497597,0.00455803656950593
1772699613823339800,8.08033984375,0.0027202588971704245,-0.0012727049179375172,-0.0010425476357340813
1772699613833296600,8.090296630859376,-0.002154923975467682,-0.0014788336120545864,0.00004615262150764465
1772699613843254500,8.100254638671874,0.0001200670376420021,0.0011687390506267548,-0.0010616823565214872
1772699613853211600,8.110211669921876,-0.00045624119229614735,0.0007072133012115955,0.000571634154766798
1772699613863168800,8.120168701171876,0.0009966089855879545,-0.0004143323749303818,0.001973483245819807
1772699613873125600,8.130125732421876,0.0021476270630955696,0.0007167118601500988,0.0011497675441205502
1772699613883082800,8.140082763671876,-0.0018084966577589512,0.0000028153881430625916,0.001126850489526987
1772699613893039600,8.15003955078125,0.0009465434122830629,-0.002256876789033413,0.0015010247007012367
1772699613902996500,8.15999658203125,-0.0015190537087619305,-0.00030864495784044266,0.0014933445490896702
1772699613912954600,8.16995458984375,-0.0018815100193023682,-0.001742224209010601,0.0015327595174312592
1772699613922911700,8.179911865234375,-0.0015957924770191312,-0.0002875467762351036,-0.0005435748025774956
1772699613932868600,8.18986865234375,-0.0007361241150647402,0.002483206335455179,0.0007611075416207314
1772699613942825500,8.199825439453125,-0.0010788936633616686,0.00008943676948547363,-0.0003851607907563448
1772699613952782600,8.209782470703125,0.0012433826923370361,-0.0012477366253733635,-0.0003276364877820015
1772699613962739700,8.21973974609375,0.0011272821575403214,-0.0010372363030910492,0.001232717651873827
1772699613972696600,8.229696533203125,-0.00020776037126779556,-0.001641241367906332,0.00017624208703637123
1772699613982653700,8.23965380859375,0.00134707847610116,0.0004997681826353073,0.0018691010773181915
1772699613992611600,8.249611572265625,0.00043334788642823696,0.00004063919186592102,-0.0011953981593251228
1772699614002568700,8.259568603515625,-0.0006239169742912054,-0.0015154052525758743,0.00031000934541225433
1772699614012525600,8.269525634765625,0.000855202553793788,0.00038955360651016235,0.001701244618743658
1772699614022482700,8.279482666015625,-0.0008259695023298264,-0.002385583706200123,0.000462469644844532
1772699614032439800,8.289439697265625,0.0001913581509143114,-0.0011706496588885784,-0.0017466226126998663
1772699614042396700,8.299396728515624,-0.0004017469473183155,-0.00007506832480430603,-0.0012285360135138035
1772699614052353500,8.309353515625,-0.0016726073808968067,-0.0012604412622749805,-0.0010317284613847733
1772699614062311700,8.319311767578125,-0.0006033792160451412,0.004627635236829519,0.0002888701856136322
1772699614072268800,8.329268798828124,-0.00035943370312452316,-0.0002230461686849594,-0.0040448918007314205
1772699614082225700,8.3392255859375,0.002467215061187744,-0.0005481261759996414,0.0002707401290535927
1772699614092182500,8.3491826171875,0.0007824995554983616,0.0016849348321557045,-0.00022567342966794968
1772699614102139600,8.3591396484375,0.0007147868163883686,0.001421088818460703,0.0038617057725787163
1772699614112096500,8.369096435546876,-0.000340624013915658,0.0024978043511509895,-0.00017697783187031746
1772699614122053600,8.3790537109375,-0.000007927650585770607,-0.001407870091497898,0.0029008854180574417
1772699614132010800,8.3890107421875,0.0009356301743537188,0.000714136753231287,-0.0021671103313565254
1772699614141968600,8.39896875,-0.0008284386713057756,-0.0032846129033714533,0.004904052708297968
1772699614151925500,8.408925537109376,-0.0018934367690235376,0.0003439439460635185,-0.0003378475084900856
1772699614161882600,8.418882568359376,-0.0001495287287980318,0.003126690164208412,0.0009439690038561821
1772699614171839700,8.42883984375,0.0010707315523177385,0.0014166748151183128,-0.0011135893873870373
1772699614181796600,8.438796630859375,-0.0009249425493180752,-0.00023252423852682114,0.00040070991963148117
1772699614191753700,8.448753662109375,0.00017494289204478264,-0.0026133900973945856,-0.002378298668190837
1772699614201710600,8.458710693359375,0.0005726332310587168,0.0004104515537619591,0.0024026650935411453
1772699614211667500,8.46866748046875,-0.000548024894669652,-0.00014801323413848877,0.0012822733260691166
1772699614221625600,8.47862548828125,0.0001709295902401209,-0.0008345167152583599,-0.00021303491666913033
1772699614231582700,8.488582763671875,0.000814349390566349,-0.0022577098570764065,-0.0005366089753806591
1772699614241539800,8.498539794921875,0.0003179800696671009,0.0011639054864645004,-0.001066549215465784
1772699614251496400,8.508496337890625,0.0038280263543128967,-0.001411637756973505,0.0036038365215063095
1772699614261453600,8.51845361328125,0.0013827229849994183,-0.0007633590139448643,0.0033811964094638824
1772699614271410700,8.52841064453125,0.001690051518380642,0.0003431844525039196,0.0012437431141734123
1772699614281367600,8.538367431640625,-0.00046398909762501717,0.00006958702579140663,-0.0017599125858396292
1772699614291325700,8.54832568359375,-0.0020176772959530354,-0.0012145889922976494,0.0018430780619382858
1772699614301282600,8.558282470703125,-0.0009502231841906905,-0.0011737272143363953,-0.0010359801817685366
1772699614311239700,8.56823974609375,0.001011727610602975,0.000034549273550510406,-0.002108168788254261
1772699614321196500,8.578196533203124,0.0007058214396238327,0.00029249396175146103,-0.00003363192081451416
1772699614331153700,8.588153564453124,0.00011167023330926895,-0.0014068689197301865,-0.0016491056885570288
