time,seconds_elapsed,z,y,x
1772614939462156500,0.074156494140625,-0.015644728377461434,0.07153437338173389,-0.1244424452919513
1772614939472224500,0.084224609375,0.03802227214127779,0.07014613389372826,-0.17648253872860223
1772614939482291500,0.09429150390625,-0.03676818042695522,0.05899170267283916,-0.14448445878028868
1772614939492359400,0.104359375,-0.039108313812315464,0.13632979389727115,-0.0515376238072291
1772614939502426400,0.11442626953125,-0.04502893603295088,0.24582126522958278,0.09079320060312747
1772614939512494600,0.12449462890625,-0.014942425327003002,0.31438451384603977,0.177080650752224
1772614939522561500,0.1345615234375,0.03291267404258251,0.3162380327582359,0.18832272372394798
1772614939532629200,0.144629150390625,0.06862433115392923,0.2665402281314134,0.14030129134412855
1772614939542697200,0.154697265625,0.04967734636068344,0.21861995457112787,0.1426062803508714
1772614939552764200,0.16476416015625,-0.016124620848894117,0.19573826067745684,0.09546418808884918
1772614939562832100,0.17483203125,-0.08836743476092815,0.15049042119681835,0.03894694923814386
1772614939572899000,0.184899169921875,-0.14736761300116777,0.1313122579962015,0.03096559509541839
1772614939582967000,0.194967041015625,-0.20383885728567838,0.1407552091240883,0.021396642967686057
1772614939593034200,0.2050341796875,-0.21680238375514743,0.12081482937932014,-0.006259900644980371
1772614939603102200,0.215102294921875,-0.18676731097549198,0.12798106774687767,0.01582739146798849
1772614939613169200,0.225169189453125,-0.1943114427447319,0.11239771416783333,0.00645648266300559
1772614939623237000,0.235237060546875,-0.22073680059462786,0.12543956657052038,0.08054441298507153
1772614939633304000,0.245303955078125,-0.25310470023602244,0.16784604514539242,0.14084591961484402
1772614939643372000,0.2553720703125,-0.2546203654959798,0.17342998275756835,0.06517283899318427
1772614939653439000,0.26543896484375,-0.23081688058227298,0.089898882111907,-0.10452449657469988
1772614939663507200,0.275507080078125,-0.17107260597646234,0.0030862755775451656,-0.2775918565649539
1772614939673575200,0.2855751953125,-0.08949059357196092,-0.07198328619301318,-0.3530687570273876
1772614939683642000,0.29564208984375,-0.057279053536057466,-0.09842647196054458,-0.2759812064979225
1772614939693710000,0.3057099609375,-0.055845805862545964,-0.08345394375622273,-0.0857599922088906
1772614939703777000,0.315777099609375,-0.05232026208490133,-0.061735448423027986,0.05584503867756575
1772614939713845200,0.32584521484375,-0.03359422656595707,-0.008800561571121215,0.140346847518906
1772614939723912200,0.335912109375,-0.07771598462611437,0.013866028267145156,0.13189772973395883
1772614939733980200,0.345980224609375,-0.14490005384385585,0.040002340042591095,0.05897027629232034
1772614939744047000,0.356047119140625,-0.16746610591709613,0.0555740031838417,-0.07941486096587032
1772614939754115000,0.366114990234375,-0.18568477643579243,-0.011357844838500022,-0.18721662564557046
1772614939764182000,0.37618212890625,-0.20942104133218525,-0.054603112325072284,-0.09831575986137613
1772614939774250200,0.386250244140625,-0.18797142606824635,-0.021416297516226767,-0.04656538835261017
1772614939784317200,0.396317138671875,-0.2028033767580986,0.001488192731142044,-0.04803500424744561
1772614939794385200,0.40638525390625,-0.21785043150335548,0.0070113400667905805,-0.07128237138204276
1772614939804453000,0.416453125,-0.18526041354387998,0.0044803602844476695,-0.022526395916286853
1772614939814520000,0.42652001953125,-0.17166326534599063,-0.026572365105152127,-0.1295647750080563
1772614939824588000,0.436588134765625,-0.18615736238360403,-0.08962941752076148,-0.21135345243318004
1772614939834655000,0.446655029296875,-0.19928455498218536,-0.10650982517302035,-0.17512387239495292
1772614939844723200,0.45672314453125,-0.21063070938289163,-0.12583879502117634,-0.18908083034856243
1772614939854790100,0.4667900390625,-0.2311795764148235,-0.11576514477431774,-0.1784685249140486
1772614939864858000,0.476858154296875,-0.23168840271979568,-0.052936055895686146,-0.07993481145305559
1772614939874925000,0.486925048828125,-0.24082681794315575,0.0022767127603292464,-0.01651409509051591
1772614939884993000,0.496992919921875,-0.24606004242151974,0.06619827305078506,-0.0161737572202459
1772614939895060000,0.50706005859375,-0.22903993403762576,0.09164718708395958,-0.05598472114289179
1772614939905128200,0.517128173828125,-0.15509119299054144,0.08848083200752735,-0.11089472572635858
1772614939915196200,0.527196044921875,-0.12199322550892829,0.06498539012968539,-0.20934428630154578
1772614939925263000,0.53726318359375,-0.08059738528132439,0.060953358134627336,-0.17933615632774308
1772614939935331000,0.5473310546875,-0.057172670552134514,0.0669721800327301,-0.06533708964418619
1772614939945398000,0.55739794921875,-0.01970949359834194,0.05400339286625385,-0.09730194317633285
1772614939955466200,0.56746630859375,0.010176818360388279,0.04692717086970806,-0.1617258269657381
1772614939965533200,0.577533203125,-0.0064805941909551615,0.07361351774334907,-0.10960874103643
1772614939975601200,0.58760107421875,-0.043001229597628116,0.10326222155392169,-0.05023189323721453
1772614939985668000,0.597668212890625,-0.053689504611492155,0.1257481941282749,0.03676660952437669
1772614939995736000,0.607736083984375,-0.04366787681281566,0.16510346843898296,0.08316495248069986
1772614940005803000,0.617802978515625,-0.03166764241755009,0.15077216074764727,0.07633271357417107
1772614940015871000,0.62787109375,0.013062602929770946,0.10880465811192988,0.006052705901395529
1772614940025938200,0.637938232421875,0.04562281027287245,0.09214052355885505,-0.05467500851750374
1772614940036006100,0.648006103515625,0.06722235540151596,0.07208499300181866,-0.08476800376316532
1772614940046074000,0.65807421875,0.08812076652348041,0.00005085340440273285,-0.1263009691728279
1772614940056141000,0.66814111328125,0.060498307843506335,-0.04556114321351051,-0.1318682296448387
1772614940066209000,0.678208984375,0.010935235512256622,-0.035161914274096484,-0.07417204667525365
1772614940076276000,0.68827587890625,-0.03963087638169527,0.007297755792737007,-0.0029952728258445856
1772614940086344200,0.69834423828125,-0.05061871886402368,0.0028039515048265454,-0.020837054589856414
1772614940096411100,0.7084111328125,-0.08514058166891336,-0.004965513452887535,-0.03165692009413615
1772614940106479000,0.71847900390625,-0.08646013983488082,0.028446926805377006,0.004924779583700001
1772614940116546000,0.728546142578125,-0.07294803957194089,0.08527005326747894,0.09112226816071196
1772614940126614000,0.738614013671875,-0.03972790701538324,0.06928747123777866,-0.0001632277376949787
1772614940136681000,0.748680908203125,-0.07016863798648118,-0.0817512314915657,-0.2292210627581924
1772614940146749200,0.758749267578125,-0.0770519677594304,-0.1451373697310686,-0.32380799308847635
1772614940156817200,0.768817138671875,-0.06304419293403625,-0.10353986945152283,-0.19508222618782892
1772614940166884000,0.778884033203125,-0.08277852871268987,-0.058175125592947005,0.03619807065511122
1772614940176952000,0.7889521484375,-0.11133096171915531,-0.015678630647063256,0.055351921398378905
1772614940187019000,0.79901904296875,-0.13212328211814164,-0.0023790040910243986,-0.07055577414054423
1772614940197087000,0.8090869140625,-0.11137012468576431,0.018416531178355216,-0.11164802831169217
1772614940207154200,0.819154296875,-0.07285188572108744,0.06609364363253116,0.055591630172077564
1772614940217222100,0.82922216796875,-0.0515396331012249,0.07197334932088852,0.12792904529869556
1772614940227289000,0.8392890625,-0.07040712291747331,0.08046060715913772,0.08600165547765791
1772614940237357000,0.849357177734375,-0.03528086447864771,0.06636953796446322,0.019049495319649577
1772614940247424000,0.859424072265625,-0.009854162277281284,-0.012684125006198883,-0.15265532587943598
1772614940257492000,0.869491943359375,0.014147183296084402,-0.06845452754497527,-0.21260188159169627
1772614940267559200,0.87955908203125,0.05874912608861923,-0.06647416738271712,-0.13544820702346042
1772614940277627100,0.889627197265625,0.01040156702697277,-0.03727496090531349,-0.05449428165573626
1772614940287695000,0.899695068359375,-0.08491787882894276,0.01802723959982395,-0.04178816401343793
1772614940297762000,0.909761962890625,-0.21592413961589335,0.04368775055706501,-0.04583981402441859
1772614940307830000,0.919830078125,-0.35365444796085355,0.06224105985760688,-0.060390646217949685
1772614940317897000,0.92989697265625,-0.4132362254813313,0.08780687826871872,-0.0736430178324692
1772614940327965200,0.939965087890625,-0.3937286841958761,0.10940379304885864,-0.06206088098511099
1772614940338032000,0.9500322265625,-0.32130817562937736,0.09799567932784557,-0.05456568465782329
1772614940348100000,0.96010009765625,-0.2176715678051114,0.07060264548957347,-0.09533663445273413
1772614940358167300,0.970167236328125,-0.10665478660166262,0.05195055198967456,-0.18067377987336367
1772614940368235000,0.980235107421875,-0.028593641799688336,0.04306815735399723,-0.17287883341452107
1772614940378302200,0.99030224609375,0.0019017419680953025,0.03377309026420116,-0.15460152804376556
1772614940388370200,1.0003701171875,-0.032521336637437344,0.028104396978020665,-0.13802806744882837
1772614940398438100,1.010438232421875,-0.06912263606488704,0.0388473247885704,-0.05437392494538799
1772614940408505000,1.020505126953125,-0.08804682450443506,0.06086743341684341,-0.031548564348835496
1772614940418573000,1.030572998046875,-0.10936989077925681,0.08421499125659465,-0.06290335969123989
1772614940428640000,1.040639892578125,-0.11227905622422694,0.10163549713492392,-0.055495384989678855
1772614940438708000,1.0507080078125,-0.0758536978855729,0.11742343337535857,-0.0010609620287083089
1772614940448775200,1.060775146484375,-0.10488836145102977,0.07317161919474602,0.01991486171102151
1772614940458843100,1.070843017578125,-0.10528291372656821,0.02705167305469513,-0.021775796744693068
1772614940468910300,1.080910400390625,-0.08006254775226115,-0.03873977276086807,-0.12184064702941104
1772614940478978000,1.09097802734375,-0.06757628340572118,-0.1268067632704973,-0.20610324028739704
1772614940489045200,1.101045166015625,-0.05716098011434078,-0.15205577081739902,-0.21873948929756878
1772614940499113000,1.111113037109375,-0.04190291296690702,-0.15105740742981433,-0.14779975734073666
1772614940509181200,1.12118115234375,-0.030514380729198452,-0.13643442331552505,-0.1522520971070975
1772614940519248100,1.131248046875,-0.0970095908999443,-0.10259762016534804,-0.1248525787291117
1772614940529316400,1.14131640625,-0.111111473749578,-0.012668342915177344,0.003275551071949303
1772614940539383300,1.15138330078125,-0.09612170214951038,0.05644903245270252,0.1311912619650364
1772614940549451300,1.161451171875,-0.05751315455287694,0.07272270638346671,0.15414684307882562
1772614940559518500,1.1715185546875,-0.008824819229543208,0.08450140698254108,0.08254842801755294
1772614940569586200,1.181586181640625,0.017198679821193216,0.0924392142444849,0.04951810067836195
1772614940579653400,1.1916533203125,0.002571311792731285,0.06954232278168201,-0.038947387629561125
1772614940589721300,1.201721435546875,0.0012839023306965827,0.07589315311312675,-0.09151267398409545
1772614940599788500,1.21178857421875,-0.00787584794163704,0.08231178798377513,-0.055966929757874456
1772614940609856300,1.221856201171875,0.025818331867456433,0.06508242076337337,-0.03909450448267161
1772614940619923500,1.23192333984375,0.055982583984732624,0.057574237090349194,0.0010665697855874894
1772614940629991200,1.2419912109375,0.01555120487511158,0.06093816056549549,0.0765044534118846
1772614940640059400,1.252059326171875,-0.022824995270371434,0.07759352729022502,0.09668572924043983
1772614940650126300,1.262126220703125,-0.06491963141709566,0.07935469174385071,0.07607428183369339
1772614940660194300,1.2721943359375,-0.08188450248241425,0.05511398445665836,-0.014910915943887083
1772614940670261500,1.282261474609375,-0.1259641749665141,0.009191022193431854,-0.1646930062082596
1772614940680329200,1.2923291015625,-0.14122107307016848,-0.010423194336891173,-0.2867297968642786
1772614940690396400,1.302396484375,-0.15734481713622808,0.01632628090083599,-0.23324155044592915
1772614940700464400,1.31246435546875,-0.20187778634577988,0.04073357692658901,-0.11661955138025805
1772614940710531600,1.322531494140625,-0.2086611628755927,0.09457914888262749,-0.009559983369987457
1772614940720599300,1.332599365234375,-0.2093485606178641,0.13415654151141643,0.032160321305319664
1772614940730666500,1.34266650390625,-0.20848492952585218,0.13224457041025162,0.011331139494664966
1772614940740734500,1.352734375,-0.16679565930962562,0.10182020605206489,-0.03379734792262316
1772614940750802200,1.36280224609375,-0.13788579116761684,0.07489420520365238,-0.0612052322701551
1772614940760869400,1.372869384765625,-0.08779840270131826,0.08617489315271377,-0.048035643568262454
1772614940770937300,1.382937255859375,-0.07032119819968938,0.10204466245770454,-0.038463714032154525
1772614940781004500,1.393004638671875,-0.06324526846408844,0.10671733044385909,-0.06974568160036579
1772614940791072300,1.403072265625,-0.050206923192739485,0.10452186622619629,-0.05536764869047329
1772614940801139500,1.413139404296875,-0.042181145386397834,0.09227087194025516,-0.05073821705784649
1772614940811207200,1.423207275390625,-0.06687982557415961,0.04708148464858532,-0.0968823660573922
1772614940821274400,1.4332744140625,-0.08259118944704533,0.04000760073959827,-0.047527182589471334
1772614940831342300,1.44334228515625,-0.08310176931768655,0.06946165876090526,0.06013531975001096
1772614940841409500,1.453409423828125,-0.11250614297837018,0.08360007422864436,0.10458809986282139
1772614940851477500,1.4634775390625,-0.1450184195265174,0.09300912308692931,0.11128385290810838
1772614940861545200,1.473545166015625,-0.16471739173084496,0.1065560024023056,0.10611680726744234
1772614940871612400,1.4836123046875,-0.16126432866752147,0.09615151276588439,0.0031583361667580903
1772614940881680100,1.49368017578125,-0.10629852050989866,0.022930209210515022,-0.138932834268827
1772614940891747600,1.50374755859375,-0.08868921406120062,-0.052637949731945986,-0.2260004384775646
1772614940901815300,1.513815185546875,-0.04325140496641397,-0.07629121252000332,-0.18102440167563036
1772614940911882500,1.523882568359375,-0.04473725960999727,-0.05442424862682819,-0.08471296737398952
1772614940921950500,1.533950439453125,-0.0691027623206377,-0.014283376896381378,-0.03409077791124582
1772614940932017400,1.544017333984375,-0.09280687851309775,0.03095978640913963,-0.019306684951111673
1772614940942085400,1.55408544921875,-0.10765139642357825,0.05297404981851577,0.018047442137636243
1772614940952152300,1.56415234375,-0.11530308022052049,0.06196808813512325,0.03974966218946501
1772614940962220500,1.574220458984375,-0.11439385642111301,0.06902560543119907,0.07195628858823329
1772614940972287500,1.58428759765625,-0.09438128822296857,0.0911754779189825,0.09031531742569059
1772614940982355500,1.59435546875,-0.08175649218857288,0.08256488596200942,0.035850079201348126
1772614940992423200,1.604423095703125,-0.0877311826840043,0.052477206212282176,-0.05863634989652782
1772614941002490400,1.614490478515625,-0.08834843779951333,0.04848433718383312,-0.1462271285959985
1772614941012558300,1.624558349609375,-0.09186725957542657,0.037900399327278136,-0.12763861098475754
1772614941022625500,1.63462548828125,-0.0930380569204688,0.011195932275056839,-0.06297384024471976
1772614941032693500,1.644693603515625,-0.08938362606614828,0.032030045989155764,-0.0723041795772966
1772614941042760400,1.654760498046875,-0.10416121622025966,0.03372165233790874,-0.07782016651979647
1772614941052828400,1.664828369140625,-0.12111118197739124,0.038435821378231046,-0.0873217433665879
1772614941062895400,1.674895263671875,-0.11552198366820811,0.04138239622414112,-0.07120583554711192
1772614941072963600,1.684963623046875,-0.0992184991210699,0.04844342065155506,-0.060762192077236245
1772614941083030500,1.695030517578125,-0.0715580465182662,0.08004968827068805,-0.07023104483135975
1772614941093098500,1.705098388671875,-0.05294657728970051,0.10458850172162056,-0.07178167180684394
1772614941103166500,1.71516650390625,-0.04068798421919346,0.10440671541392803,-0.03851759051070548
1772614941113233400,1.7252333984375,-0.03165215258747339,0.10820201604366302,-0.028883135398710146
1772614941123301400,1.73530126953125,-0.04450578894168138,0.10680208611786365,-0.06357899393048137
1772614941133368300,1.745368408203125,-0.04294570001810789,0.09396247828900814,-0.08598986457516439
1772614941143436500,1.7554365234375,-0.04322510148137808,0.05459492901861667,-0.07817616775007918
1772614941153503500,1.76550341796875,-0.053442836374044414,0.061847676625847815,-0.031917297196527944
1772614941163571500,1.775571533203125,-0.06821048965603113,0.08658931917250155,0.02647906079851091
1772614941173638400,1.785638427734375,-0.07408376560360193,0.07930442286133765,0.02104817658988759
1772614941183706400,1.795706298828125,-0.08846797252595424,0.04644143317937851,0.021247991744615138
1772614941193773300,1.805773193359375,-0.10637421609461307,0.055662850511074065,0.014001034557353704
1772614941203841500,1.815841552734375,-0.1252282619073987,0.038838556960225104,-0.0062997394650243215
1772614941213908500,1.825908447265625,-0.13132248712927103,0.003266308319568634,-0.06327536220825276
1772614941223976400,1.8359765625,-0.1164765079140663,-0.024072949504852295,-0.1324237811683677
1772614941234044400,1.84604443359375,-0.13450082490444182,-0.048586043992638585,-0.14385905689094214
1772614941244111400,1.856111328125,-0.10505962636470793,-0.03945113590061664,-0.13855535185909829
1772614941254179600,1.8661796875,-0.08276479244828223,-0.02289747598469257,-0.08899605152066796
1772614941264246500,1.87624658203125,-0.06950052946656941,-0.004205050474405289,-0.008283825954329221
1772614941274314500,1.886314453125,-0.0399497330725193,0.015322656816244125,0.06537301034093834
1772614941284381400,1.89638134765625,-0.04211655571758747,0.03761632168889045,0.03203680452350527
1772614941294449400,1.906449462890625,-0.06985796460211277,0.04198854542374611,-0.033840894803404804
1772614941304516400,1.916516357421875,-0.08229220650047063,0.03337210824787617,-0.04371408144156448
1772614941314584300,1.926584228515625,-0.11578618756234645,0.0343728097230196,-0.020355545550072563
1772614941324651500,1.936651611328125,-0.1492547419220209,0.045827100673317904,-0.014273613554192707
1772614941334719500,1.946719482421875,-0.1864317954108119,0.06182312670648098,-0.011851811501057817
1772614941344787500,1.956787353515625,-0.1778495527654886,0.05311433507204055,-0.009596607319638132
1772614941354854400,1.9668544921875,-0.10694120232760905,0.025291677644848822,-0.11322732425923458
1772614941364922400,1.97692236328125,-0.06758271314650774,0.004736380872130394,-0.15833549040770156
1772614941374989300,1.9869892578125,-0.09854103825092315,-0.025116321077942847,-0.13684948865612967
1772614941385057500,1.9970576171875,-0.0916223449036479,-0.006996142497658729,-0.15628661332018673
1772614941395124500,2.00712451171875,-0.09962707992196082,0.03852408418357372,-0.11742754329489544
1772614941405192400,2.0171923828125,-0.1415472362846136,0.06342237859666347,-0.05714995639682747
1772614941415259400,2.02725927734375,-0.15707973645925521,0.11709668563902377,-0.010190335429087281
1772614941425327400,2.037327392578125,-0.142991882134974,0.12198153507113456,0.0025870116853620854
1772614941435394300,2.047394287109375,-0.12999796052724122,0.11679624138772488,-0.018574342955416066
1772614941445462500,2.057462646484375,-0.10300590870529412,0.0845528449088335,-0.08608336067805067
1772614941455530500,2.067530517578125,-0.08491554074138402,0.024708909320831297,-0.11161716738254762
1772614941465597400,2.077597412109375,-0.044639352193474764,0.0086748893648386,-0.13735525535433551
1772614941475665400,2.08766552734375,-0.012979016299545764,-0.010738251635432242,-0.1374433446297422
1772614941485732400,2.097732421875,-0.007115969485044479,-0.004534720820188522,-0.11183361401166766
1772614941495800300,2.10780029296875,-0.019352350723743438,0.011232757154107093,-0.021638899891497566
1772614941505867500,2.117867431640625,-0.03931874169260263,0.003382628175616264,0.0170394250057172
1772614941515935500,2.127935546875,-0.06512070694714785,-0.005110474881529808,-0.16132384030241517
1772614941526002400,2.13800244140625,-0.11426321577876805,-0.010838789400458335,-0.14825868922253138
1772614941536070400,2.1480703125,-0.10418927327096461,0.006039864686131477,-0.04120515822740271
1772614941546137300,2.158137451171875,-0.10089987633675336,0.04557809434831142,0.04847320386846549
1772614941556205600,2.16820556640625,-0.06593582272231578,0.0696995591700077,0.11789495074409059
1772614941566272500,2.1782724609375,-0.017742869700491427,0.08442775722444057,0.10268064967314712
1772614941576340500,2.188340576171875,0.020688860024511813,0.06795593037307263,0.025960845610685644
1772614941586408400,2.198408447265625,0.04327946201711893,0.028897008660435673,-0.05045297037567943
1772614941596475400,2.208475341796875,0.02766249842941761,-0.010736498069763184,-0.10941598581015131
1772614941606543400,2.21854345703125,0.006893851166963577,-0.020571663385629654,-0.1267842043788172
1772614941616610600,2.228610595703125,-0.0305342544734478,-0.002909749966859817,-0.08046879046559334
1772614941626678500,2.238678466796875,-0.08011924637556075,0.016966916891932485,-0.028578288966929537
1772614941636745500,2.248745361328125,-0.12771569480895995,0.05678279445171356,-0.042234665671922265
1772614941646813400,2.2588134765625,-0.16388035638481377,0.04803600889444351,-0.08806020457581616
1772614941656880400,2.26888037109375,-0.18510376167744397,0.039946810463070866,-0.13261181455375626
1772614941666948400,2.2789482421875,-0.20426058982908724,0.06742401545345783,-0.09973556353142485
1772614941677015300,2.289015380859375,-0.21389058796167373,0.07216156536936759,-0.08819842573641799
1772614941687083500,2.29908349609375,-0.18398703260719776,0.0672287851423025,-0.06302211809954605
1772614941697151500,2.3091513671875,-0.13690788604617118,0.05805588312745094,-0.023476061323937026
1772614941707218400,2.319218505859375,-0.09867723185122013,0.060710781550407406,-0.03913300986215472
1772614941717286400,2.329286376953125,-0.09635171151310205,0.039109775117039676,-0.13050482320399023
1772614941727353300,2.339353271484375,-0.09677987379729747,0.036170799055695535,-0.1861286842783913
1772614941737421600,2.349421630859375,-0.11596358995586634,0.060063715818524356,-0.16678448032848536
1772614941747488500,2.359488525390625,-0.15783961491584778,0.07595102078020573,-0.08766430972656235
1772614941757556500,2.369556396484375,-0.13634674503207206,0.06747837598919867,-0.11257349999300204
1772614941767623400,2.37962353515625,-0.1132508238658309,0.05097907660901546,-0.09495819306178017
1772614941777691400,2.38969140625,-0.10106558829247951,0.033194413593411444,-0.07471133205057122
1772614941787758300,2.39975830078125,-0.10615063647180795,0.02929331450164318,-0.10078540137792005
1772614941797826600,2.40982666015625,-0.09407616779655217,0.06807809544801711,-0.08707876492356881
1772614941807894500,2.41989453125,-0.10582476551830768,0.06863514480888844,-0.06335797159094363
1772614941817961500,2.42996142578125,-0.1081836036041379,0.06463116986453533,-0.12815868020295165
1772614941828029400,2.440029541015625,-0.09667086046487093,0.08842880955934523,-0.08922534849820658
1772614941838096400,2.450096435546875,-0.08859569055885076,0.09136077135801315,0.01815756058176048
1772614941848164400,2.460164306640625,-0.06376403164118528,0.07732756983041762,0.05761383844837546
1772614941858231300,2.470231201171875,-0.061871642023324964,0.0728103846669197,0.010579873602790757
1772614941868299500,2.480299560546875,-0.045648236975073815,0.05210954194366932,-0.013670368697727099
1772614941878366500,2.490366455078125,-0.05445172115564346,0.013752046498656273,-0.06488270607334562
1772614941888434400,2.500434326171875,-0.045777416312694545,-0.004309679892659187,-0.18825820712037383
1772614941898501400,2.51050146484375,-0.04211714023947716,0.0013373860836029053,-0.2349825671606697
1772614941908569300,2.5205693359375,-0.029584990924596783,-0.012730302235484122,-0.1968159729115665
1772614941918636300,2.53063623046875,-0.03216623958945274,0.0011263736814260481,-0.10530083297574892
1772614941928704500,2.54070458984375,-0.05085281988084316,0.026007716959714888,-0.00002836757795885205
1772614941938772500,2.5507724609375,-0.07015577850490808,0.053421793586015696,0.10652923312638886
1772614941948839400,2.56083935546875,-0.0865612621217966,0.03509820138812065,0.10220227330536581
1772614941958907400,2.570907470703125,-0.12582885814905165,0.03242401374280453,0.03156937880800106
1772614941968974300,2.580974365234375,-0.13460779241025447,0.030370003822445868,-0.027334828244475647
1772614941979042300,2.591042236328125,-0.12222528069913387,0.015724807876348494,-0.10095073887431062
1772614941989109500,2.601109619140625,-0.13071779923439025,-0.011670564049482345,-0.16566249056123197
1772614941999177500,2.611177490234375,-0.13101941252946853,-0.022828502401709555,-0.2356039321957156
1772614942009244400,2.621244384765625,-0.11358604716956615,-0.020173603978753087,-0.19281334967408328
1772614942019312400,2.6313125,-0.1159606673464179,-0.006507482197880745,-0.11662447415054775
1772614942029379300,2.64137939453125,-0.1195049158245325,0.02299041496515274,-0.06690354437646456
1772614942039447300,2.651447265625,-0.11783552130758762,0.041323359513282774,-0.024740363905020057
1772614942049515500,2.661515625,-0.11616349644213914,0.044402036306262015,-0.0253170038823504
1772614942059582500,2.67158251953125,-0.1298196813508868,0.0705839407891035,-0.03905390761080198
1772614942069650400,2.681650390625,-0.10651567039191723,0.1151788693189621,-0.0032803094454575328
1772614942079717400,2.69171728515625,-0.07421557528972625,0.13318857326209543,0.049993015580577775
1772614942089785300,2.701785400390625,-0.04903758715242147,0.10813771863579749,0.04061915676668286
1772614942099852300,2.711852294921875,-0.03109364192187786,0.07471358793973923,-0.041246330488007514
1772614942109920500,2.72192041015625,-0.03361702291965484,0.042270869496464726,-0.1350565042921342
1772614942119987500,2.731987548828125,-0.03979571155458689,0.017189035210013387,-0.17292353107277303
1772614942130055400,2.742055419921875,-0.08489303664863108,0.005489829587936401,-0.10111419494086876
1772614942140122400,2.752122314453125,-0.1180824818059802,0.008091536518931389,-0.0702077004883904
1772614942150190300,2.7621904296875,-0.1381339207097888,0.0032931963264942166,-0.0704501948742196
1772614942160258300,2.77225830078125,-0.17306524109840393,0.006638999623060226,-0.041388862497545774
1772614942170325500,2.782325439453125,-0.19616174678653478,0.03016249855160713,-0.03386614797567017
1772614942180393500,2.7923935546875,-0.19412877965420483,0.02770516852736473,0.001897714246949181
1772614942190460400,2.80246044921875,-0.19537118093073366,0.03790449098050594,-0.0019459921017754823
1772614942200528400,2.8125283203125,-0.23408201985806226,0.003986439287662506,-0.04778126694839448
1772614942210595300,2.82259521484375,-0.19293021751940248,-0.027642624685168263,-0.04874837668118998
1772614942220663300,2.832663330078125,-0.1073491986066103,-0.021204700592160224,-0.07404756177905947
1772614942230730200,2.842730224609375,-0.07783376578688621,-0.04039046257734299,-0.09184615285531617
1772614942240798500,2.852798583984375,-0.028491350468993187,-0.03462181604802608,-0.06065929795834236
1772614942250865400,2.862865478515625,-0.027832009777426718,-0.01649754581451416,0.008542148096952588
1772614942260933400,2.872933349609375,-0.0510077181816101,-0.0033510639935731886,-0.06141907595023512
1772614942271001300,2.88300146484375,-0.08338672373890876,0.00044832828938961026,-0.13411919604255818
1772614942281068300,2.893068359375,-0.0989268226981163,0.0133107324719429,-0.0685555585003458
1772614942291136500,2.903136474609375,-0.10184577888473868,0.054855041259527205,-0.00324022403024137
1772614942301203500,2.913203369140625,-0.09858370834887027,0.07694061633944511,0.04055843042223714
1772614942311271400,2.923271484375,-0.07585019075423478,0.11287117689847946,0.0649651875918731
1772614942321338400,2.93333837890625,-0.07716419596225023,0.13264438338279724,0.07802057532956823
1772614942331406300,2.94340625,-0.07091404952630401,0.11704641675651073,-0.01299738307329826
1772614942341473300,2.953473388671875,-0.05877805992215872,0.12626841861009597,-0.08190707050724885
1772614942351541500,2.96354150390625,-0.017748714919388293,0.11370821224451065,-0.07470370586654171
1772614942361608400,2.9736083984375,-0.014158289211988449,0.10440437732636929,-0.06161965828994289
1772614942371676400,2.983676513671875,-0.026152970649302006,0.11922902149260044,-0.017180075585423036
1772614942381744400,2.993744384765625,-0.03339081294834614,0.12677753717601298,0.029729605293367056
1772614942391811300,3.003811279296875,-0.06606324849426747,0.12037819152772426,0.004234568829834461
1772614942401879300,3.01387939453125,-0.07424070973098278,0.12611819648444653,-0.03066003627758473
1772614942411946200,3.0239462890625,-0.07818301761597395,0.12441373065412044,-0.01380869945618324
1772614942422014500,3.034014404296875,-0.075655837225914,0.11228022526800632,0.04145630171056837
1772614942432081400,3.044081298828125,-0.05944529165923595,0.09954992303252219,0.05423219665344804
1772614942442149400,3.0541494140625,-0.05618745890706777,0.06668225717544556,-0.027591369421966373
1772614942452216300,3.06421630859375,-0.08835852080211043,0.034173487758636475,-0.09251679125903174
1772614942462284300,3.0742841796875,-0.0829454097121954,0.03233049024045467,-0.07326378185707144
1772614942472351200,3.084351318359375,-0.07167202828675508,0.02524257780611515,-0.04984205366941168
1772614942482419500,3.09441943359375,-0.057738487741351124,-0.016597499057650567,-0.0965640756221488
1772614942492487400,3.1044873046875,-0.023066987332701683,-0.034305005183815955,-0.10866403493168764
1772614942502554400,3.114554443359375,-0.015476386073231697,-0.047535073634982106,-0.09572192570958286
1772614942512622300,3.124622314453125,-0.027997867863625285,-0.048339375755190844,-0.06638995056482963
1772614942522689300,3.134689208984375,-0.04733867428004741,-0.03240238643288612,-0.04572819774295203
1772614942532757000,3.144757080078125,-0.061364861544966696,-0.02321779398024082,0.002075080107850954
1772614942542824000,3.154823974609375,-0.09373656057864427,-0.01438566822707653,-0.0016514387351460754
1772614942552892200,3.16489208984375,-0.10298033587262034,-0.008523498195409774,0.024260005642706528
1772614942562959000,3.174958984375,-0.09906476986408233,0.015005845952033995,0.06290212671537883
1772614942573027000,3.185027099609375,-0.0675372665695846,0.003841477859020233,0.031060269375238567
1772614942583094000,3.195093994140625,-0.04486497764289379,-0.01035012910068035,0.02059112613792531
1772614942593162000,3.205161865234375,-0.020254706390947102,-0.030531916385889053,-0.023316276785498483
1772614942603229000,3.21522900390625,-0.00298369198590517,-0.04821779520213604,-0.06644759903619997
1772614942613297200,3.225297119140625,0.005410334610939025,-0.044915831047296524,-0.04264487217431888
1772614942623365000,3.235365234375,-0.017346856120228765,-0.017857143729925154,-0.023621333279833196
1772614942633432000,3.24543212890625,-0.05724982744157314,0.0020364742636680604,-0.02200851865517907
1772614942643500000,3.2555,-0.1007780035227537,0.025869185271859167,0.03805839376742951
1772614942653567000,3.26556689453125,-0.11709200946390629,0.06359715064167976,0.0685623170346953
1772614942663635000,3.275635009765625,-0.1257441024750471,0.07809387802779674,0.04389236061791889
1772614942673702000,3.285701904296875,-0.13116072069630025,0.0730506231635809,0.01751725338422693
1772614942683770000,3.29577001953125,-0.12091302905678748,0.06701251204311848,-0.0071568586178589605
1772614942693837000,3.305837158203125,-0.10453165696784854,0.05677928732037544,-0.08236145407808944
1772614942703905000,3.315905029296875,-0.07616290996521712,0.022061609682440756,-0.15957089568786323
1772614942713972000,3.325971923828125,-0.08454027768820524,0.0230400993257761,-0.14066824322668833
1772614942724040000,3.3360400390625,-0.09610241292715072,0.06749357355833054,-0.09276223565377295
1772614942734108200,3.346108154296875,-0.07996990103274583,0.11789923419356345,0.020399686085898427
1772614942744175000,3.356175048828125,-0.08653262054920197,0.14718027373552323,0.09799809048064052
1772614942754243000,3.3662431640625,-0.10928221249580383,0.16419395237863063,0.12927573806676082
1772614942764310000,3.37631005859375,-0.13366481247171758,0.1406406428337097,0.06105527500598691
1772614942774378000,3.3863779296875,-0.1415291161060333,0.08745558061301707,-0.05923088172357529
1772614942784445000,3.39644482421875,-0.12364552276059984,0.027901567882299423,-0.1870784958165139
1772614942794513200,3.40651318359375,-0.088277272259444,-0.03660451429784298,-0.2517350923832506
1772614942804580000,3.416580078125,-0.046676410979032516,-0.035467034700512885,-0.2179963062474504
1772614942814648000,3.42664794921875,0.0005542728818953037,-0.018582535395026207,-0.17725359616633504
1772614942824715300,3.43671533203125,-0.018261048355698584,-0.0012140519648790359,-0.1292867526511196
1772614942834783000,3.446782958984375,-0.028342881909012792,0.04314940589666366,-0.03531293098418973
1772614942844851000,3.456850830078125,-0.05915799915045499,0.07827040363848209,0.06462815592354162
1772614942854918000,3.46691796875,-0.09215455208420753,0.07616670935750007,0.04407506937421858
1772614942864986000,3.476986083984375,-0.09344956033080816,0.0830979699254036,0.03653296516528353
1772614942875053000,3.487052978515625,-0.06860884132385253,0.06106266372799873,0.053729982752352946
1772614942885121000,3.49712109375,-0.02794409184977412,0.007573650124669075,-0.014635213408200069
1772614942895188000,3.50718798828125,0.015168343037366866,-0.036925416815280915,-0.07850616688942537
1772614942905256000,3.517255859375,0.03345043418109417,-0.06108662912547588,-0.0941925881172996
1772614942915323100,3.5273232421875,0.009221125070750713,-0.059519525939226145,-0.06135597498561255
1772614942925391000,3.53739111328125,-0.02173983038216829,-0.06420680697262286,-0.03655536879333667
1772614942935458300,3.547458251953125,-0.06133432027623057,-0.04582593162953853,-0.038422176445368675
1772614942945526000,3.557526123046875,-0.06126257021427154,-0.026480595168471333,-0.06583346745953894
1772614942955594000,3.567593994140625,-0.0673906977057457,-0.02709901932775974,-0.08654603715320117
1772614942965661000,3.577660888671875,-0.044074704048037525,-0.02120879224538803,-0.09184433535756542
1772614942975729200,3.587729248046875,-0.03111234662234783,-0.00274842192530632,-0.07202410226059146
1772614942985796000,3.597796142578125,-0.05227905329167842,-0.0016039280652999878,-0.04717867054590024
1772614942995864000,3.607864013671875,-0.08600041336864232,0.026889760491251944,0.010025838182913138
1772614943005931300,3.61793115234375,-0.11679390330016612,0.08103343861103057,0.013741525104641914
1772614943015999000,3.6279990234375,-0.1428311386153102,0.10669278052449226,0.03541580683677457
1772614943026066200,3.638066162109375,-0.14564181212186814,0.12084405547380447,0.048604118505446235
1772614943036134000,3.6481337890625,-0.135956138279289,0.11523673698604106,-0.021621026308089493
1772614943046202000,3.6582021484375,-0.09783347450345754,0.08295125493109226,-0.15741342539303005
1772614943056269000,3.66826904296875,-0.03750438574701547,0.038923897156119346,-0.24109167942441997
1772614943066337000,3.6783369140625,-0.00994973160624504,0.018369184905290603,-0.21906768007231875
1772614943076404000,3.688404052734375,0.00936287162899971,0.03948211556077003,-0.15823129938086494
1772614943086472000,3.698471923828125,0.0015647650986909865,0.06587327888011932,-0.0812153253834229
1772614943096539100,3.7085390625,-0.04452770851254463,0.09556582183241843,-0.011011871811887248
1772614943106607000,3.718607177734375,-0.09245411955267191,0.1387935536623001,0.052086782122589645
1772614943116674300,3.72867431640625,-0.12431845358610152,0.1957265702396631,0.06694422344672493
1772614943126742000,3.738741943359375,-0.11773761389106512,0.19619886392652988,0.06488506242721341
1772614943136809200,3.748809326171875,-0.06623962797448038,0.14284078322649002,-0.037630770339351145
1772614943146877000,3.758876953125,-0.01136661266684532,0.09734393742084503,-0.11202267031036317
1772614943156945200,3.768945068359375,0.04154752365797758,0.03933598508834839,-0.17252026576781646
1772614943167012000,3.77901220703125,0.037596155683696265,0.010634791260957717,-0.16680042681628837
1772614943177080000,3.789080078125,0.015109890848398208,-0.02006722099483013,-0.13895182209708726
1772614943187147300,3.799147216796875,-0.017726649218052625,-0.04064005342423915,-0.11602853581770323
1772614943197215000,3.809215087890625,-0.09310118528455495,-0.044562195304036135,-0.09053149006017483
1772614943207282200,3.8192822265625,-0.1717006747469306,-0.021114099699258804,-0.049779080568952486
1772614943217350000,3.829349853515625,-0.20806816541850565,0.005220949518680572,-0.02136545324497856
1772614943227417300,3.839417236328125,-0.20371172377467153,0.004447627058625221,-0.025982500320067627
1772614943237485000,3.849485107421875,-0.17169103013575077,-0.012956512206792831,-0.03880514788096771
1772614943247552300,3.85955224609375,-0.09503039978146552,-0.027117139506340024,-0.04214005532418377
1772614943257620200,3.8696201171875,0.02277370347455144,-0.040914194190502164,-0.0636399668700993
1772614943267688000,3.87968798828125,0.04395429253876209,-0.09821487503647804,-0.11540592867364174
1772614943277755100,3.889755126953125,0.09060001611858606,-0.07777063742280006,-0.14985217809220774
1772614943287823000,3.899822998046875,0.04705868829488754,-0.07444529239237307,-0.076382945924066
1772614943297890300,3.909890380859375,0.001928337714076042,-0.04514437910616398,-0.03871437345813028
1772614943307958000,3.9199580078125,-0.06319207697212696,0.019649287843704222,-0.029218468300299717
1772614943318025200,3.930025146484375,-0.12131854111775756,0.04878419691324234,-0.004366497246967628
1772614943328093000,3.940093017578125,-0.15725860015749932,0.04957563955187797,-0.014152270463155581
1772614943338160000,3.95016015625,-0.1513388547196984,0.050727147674560547,-0.033500282938499
1772614943348228000,3.96022802734375,-0.09325637584626674,0.08493336865901946,-0.03941123314849101
1772614943358295300,3.97029541015625,-0.036601591688394546,0.06199556066393852,-0.0442282963077072
1772614943368363300,3.98036328125,0.026624679814279077,0.05475859514772892,-0.08061723162611015
1772614943378431000,3.990430908203125,0.025663725827634334,0.056637833023071286,-0.07521961949942634
1772614943388498200,4.000498291015625,-0.004669745376706123,0.05230711034238338,-0.09658201313763856
1772614943398566000,4.01056591796875,-0.055224459093809124,0.06013385844528675,-0.07891335031767376
1772614943408633300,4.02063330078125,-0.10060498504340648,0.04882803605496883,-0.04658741752132773
1772614943418701000,4.030701171875,-0.14913900658786297,0.043509471380710596,-0.08441891633085906
1772614943428768300,4.040768310546875,-0.1730382069610059,0.05668167216479778,-0.1063822350042872
1772614943438836200,4.050836181640625,-0.17391630496978758,0.060659343624114986,-0.06405471255029552
1772614943448903200,4.060903076171875,-0.16879326286762952,0.06650923869609833,-0.013004954458400607
1772614943458971100,4.07097119140625,-0.1466413445532322,0.0930927097171545,-0.017825561281573025
1772614943469038000,4.0810380859375,-0.1485755274862051,0.10060556956529616,-0.009417122566886246
1772614943479106300,4.091106201171875,-0.15855360840409993,0.10934709442555904,-0.025976271508680655
1772614943489174000,4.101174072265625,-0.14271072710603475,0.1261924307644367,-0.04629980535213835
1772614943499241200,4.1112412109375,-0.1355307524740696,0.11124445247948168,-0.05757690397147089
1772614943509309000,4.121308837890625,-0.08883680583834648,0.054468087768554684,-0.09444919322687201
1772614943519376100,4.131376220703125,-0.030988720242679117,0.027733225578069686,-0.0890329403317999
1772614943529444400,4.1414443359375,0.02000876880586147,0.0382809230774641,0.004095370421698317
1772614943539511600,4.151511474609375,0.005890811604261398,0.043678398206830026,0.08347128761666826
1772614943549579300,4.161579345703125,-0.011050824715942143,0.029362872606515884,0.08295360215180553
1772614943559646700,4.171646728515625,-0.051393794889748094,0.020904840862751007,0.041137216690881176
1772614943569714400,4.18171435546875,-0.12195172445476055,0.004558686217665672,-0.0029257695198990404
1772614943579781600,4.19178173828125,-0.15117138919830322,0.006765840873122215,-0.0300772314209491
1772614943589849600,4.201849609375,-0.16713351296186446,0.001370119309425354,-0.037791121133370326
1772614943599917300,4.211917236328125,-0.1004106315150857,-0.011226911935210228,-0.04041000752802938
1772614943609984500,4.221984619140625,-0.05395078589618206,-0.03306932590901852,-0.17906534002972765
1772614943620052500,4.232052490234375,-0.07400602419227362,-0.053007952088117594,-0.19290237966440618
1772614943630119700,4.24211962890625,-0.07066138993948698,-0.024644027391076087,-0.13816662653614767
1772614943640187400,4.2521875,-0.0826518335931003,-0.014491466689109802,-0.08573206302234902
1772614943650254600,4.262254638671875,-0.08959609977304935,0.027140520381927487,-0.0006942202087026089
1772614943660322300,4.272322265625,-0.10723229422867298,0.05702186390459537,0.025017555144894867
1772614943670389500,4.282389404296875,-0.09273790493011475,0.06357493880987167,-0.041286068843351675
1772614943680457500,4.29245751953125,-0.0646694560483098,0.04806523498892784,-0.10648010588819161
1772614943690524700,4.302524658203125,-0.03836246388107538,0.03415186044871807,-0.1192955839227885
1772614943700592600,4.312592529296875,0.00390869787633419,0.025963293296098706,-0.11665784669718704
1772614943710660400,4.322660400390625,0.015634206983447075,0.027530981004238127,-0.09189437591121531
1772614943720727600,4.3327275390625,-0.005704056860506534,0.0451391184091568,-0.05432735499045811
1772614943730795300,4.342795166015625,-0.031085458615422248,0.07445698283016682,-0.039205070451367646
1772614943740862700,4.35286279296875,-0.051299832995980975,0.0889449423879385,-0.042045865101553496
1772614943750930400,4.362930419921875,-0.06253025206252932,0.09936287602782248,-0.02958289943221025
1772614943760997600,4.37299755859375,-0.058316433759778734,0.11727321124970912,0.01962320355437696
1772614943771065600,4.383065673828125,-0.06470102023035287,0.10447568899691104,-0.006637958443444222
1772614943781132500,4.393132568359375,-0.07815466830432415,0.06307517259418964,-0.044652019878802816
1772614943791200500,4.403200439453125,-0.08346358836740254,0.03164250797629356,-0.10140687601082027
1772614943801267500,4.413267333984375,-0.08212854037135839,0.015637714114785192,-0.10921142141507006
1772614943811335700,4.423335693359375,-0.0909770327374339,0.018750293177366255,-0.0504043363278266
1772614943821403400,4.4334033203125,-0.06418225705325603,0.030052023914456365,-0.015343096816074103
1772614943831470600,4.443470703125,-0.06867080064415931,0.019924597653746604,-0.017611452740011736
1772614943841538300,4.453538330078125,-0.08219283777922391,-0.014057166925072669,-0.07556016743225046
1772614943851605500,4.46360546875,-0.09630041971728205,-0.019947978529334068,-0.09478796019456348
1772614943861673500,4.473673583984375,-0.09429974741935729,-0.020473463708162307,-0.06506494903876446
1772614943871740700,4.48374072265625,-0.07903554279208183,-0.020352467676997183,-0.0938896870474331
1772614943881808600,4.49380859375,-0.06645356298610568,-0.022635025656223298,-0.0764334066028241
1772614943891875600,4.50387548828125,-0.06318082492575049,-0.003516483688354492,-0.04034937251512892
1772614943901943600,4.513943603515625,-0.04273761022537947,0.043406011006236075,0.005190070323226973
1772614943912011300,4.52401123046875,-0.028861645086109635,0.0660135641336441,0.06371861246372573
1772614943922078700,4.53407861328125,-0.021785130828619003,0.05893968022465706,0.03562348563754931
1772614943932146400,4.544146484375,-0.007408814951777458,0.051423313245177266,-0.03174581308714114
1772614943942213600,4.554213623046875,-0.015128595548868178,0.01931260323524475,-0.060438503947667775
1772614943952281600,4.564281494140625,-0.040707273441553116,-0.00950140331685543,-0.10990894782571121
1772614943962348500,4.5743486328125,-0.048294659830629826,-0.012525135052204131,-0.09348536229655147
1772614943972416500,4.58441650390625,-0.048416386514157056,0.016394085440039632,-0.06756664792769589
1772614943982483500,4.5944833984375,-0.08018880448043346,0.03250467776358128,-0.02472407949049957
1772614943992551700,4.6045517578125,-0.0964472808420658,0.05843523783385753,-0.005191120635997503
1772614944002618600,4.61461865234375,-0.10313698773905634,0.08785656262934208,-0.019733029737556352
1772614944012686600,4.6246865234375,-0.1129044946461916,0.08213409332931042,-0.09036651788996532
1772614944022754300,4.63475439453125,-0.07325520582497119,0.05353811344206333,-0.14276764492504299
1772614944032821500,4.644821533203125,-0.08357230943888426,0.040459436160326004,-0.1002010986839421
1772614944042889500,4.654889404296875,-0.0791892720490694,0.017163316246867177,-0.06474055765629745
1772614944052956700,4.664956787109375,-0.10829992346018552,0.01511632058918476,-0.057508204383123665
1772614944063024600,4.675024658203125,-0.12069953243657947,0.050606736165285104,-0.06504764171093702
1772614944073091600,4.685091552734375,-0.12422186134383081,0.057470192193984984,-0.05189210893386043
1772614944083159600,4.69515966796875,-0.11361556552499533,0.05216624056696891,-0.026227688986482096
1772614944093226500,4.7052265625,-0.07153671146929264,0.04072013292312622,-0.02652771311267279
1772614944103294700,4.715294677734375,-0.02522138888761401,0.032627427360415455,-0.03225289495959878
1772614944113361700,4.725361572265625,-0.027927286845445633,0.03663549395799637,-0.030837466070568188
1772614944123429600,4.7354296875,-0.032463176709413524,0.06231587865948677,0.006997311541438103
1772614944133497600,4.74549755859375,-0.03866086230576038,0.08471651103794574,0.05907101498674601
1772614944143564500,4.755564453125,-0.037725627282261844,0.08279460306465625,0.1126158047647681
1772614944153632500,4.765632568359375,-0.024502865354716775,0.06247253052592277,0.026554117062408476
1772614944163699500,4.775699462890625,-0.036258331208676095,0.02544774498939514,-0.08176985399364493
1772614944173767700,4.785767578125,-0.038772944378107785,-0.0028396073400974273,-0.16043489210605621
1772614944183834600,4.795834716796875,-0.03927694837749004,-0.03888005801439285,-0.18703069288572297
1772614944193902600,4.805902587890625,-0.030355390775203703,-0.06356617098152637,-0.14072311521908268
1772614944203969500,4.815969482421875,-0.04373655813485384,-0.05092530059516429,-0.08660074474881403
1772614944214037500,4.82603759765625,-0.08882833027094603,-0.013775427374243735,-0.005691434840951115
1772614944224104400,4.8361044921875,-0.14205927745997904,0.021353169152140618,0.056100858335848894
1772614944234172700,4.846172607421875,-0.16838585111051796,0.06595160481333733,0.08423332149772904
1772614944244240600,4.85624072265625,-0.17172814727574587,0.07703589340746403,0.026514570503309368
1772614944254307600,4.8663076171875,-0.1343050100713968,0.07329904496669769,-0.04190515058976598
1772614944264375600,4.87637548828125,-0.09976371191367506,0.07244739657342433,-0.08053873216295615
1772614944274442500,4.8864423828125,-0.03507657407820224,0.07358253808319568,-0.11707503092964179
1772614944284510700,4.8965107421875,0.04420271434187889,0.08316928159594536,-0.1267989635565318
1772614944294577700,4.90657763671875,0.08581716575622558,0.08909107286036014,-0.14686486024395562
1772614944304645600,4.916645751953125,0.08487681616619229,0.0648895285397768,-0.11237113668816164
1772614944314712600,4.926712646484375,0.07070201421082019,0.08166179964244365,-0.014397769656823947
1772614944324780500,4.936780517578125,0.04785729132667184,0.0923082813411951,0.1034784489873331
1772614944334848500,4.9468486328125,0.0049514849275350565,0.0765273593634367,0.15558599077016114
1772614944344915500,4.95691552734375,-0.06644757163673638,0.07257248425781726,0.09716515592099167
1772614944354983700,4.966983642578125,-0.1297688279464841,0.0542670122385025,-0.001930410940153524
1772614944365050600,4.977050537109375,-0.16187778439074754,0.024797172126173973,-0.12873043394261038
1772614944375118600,4.98711865234375,-0.17453823626041412,0.010776830080151557,-0.20908839357802644
1772614944385185500,4.997185546875,-0.16576631626188754,-0.02874035679399967,-0.2271788163408637
1772614944395253500,5.00725341796875,-0.13066460774242877,-0.02718962022066116,-0.1395913255770225
1772614944405320400,5.017320556640625,-0.08697919527292251,-0.0029489129334688184,-0.02554330518520437
1772614944415388700,5.027388671875,-0.06977905414700508,0.0018026655077934264,0.05540236381082795
1772614944425455600,5.03745556640625,-0.06785159321576356,0.015239070186018944,0.0736839526310563
1772614944435523600,5.047523681640625,-0.08433189563453197,0.026548399707674978,0.009702232251735403
1772614944445591600,5.057591552734375,-0.10284341161996126,-0.005182371073961258,-0.06281959953107871
1772614944455658500,5.067658447265625,-0.12474661587029695,-0.009952654215693474,-0.09095992633900604
1772614944465726500,5.0777265625,-0.1332455641463399,-0.010067220506072044,-0.07329705393901094
1772614944475793700,5.087793701171875,-0.13409049053788186,-0.013809329643845557,-0.032689943803148346
1772614944485861600,5.097861572265625,-0.12856179024428127,0.012436872246861456,0.03537994093894958
1772614944495928600,5.107928466796875,-0.0982248119086027,0.05766776059269905,0.06027303858711384
1772614944505996500,5.11799658203125,-0.04796177461445331,0.06657762775719166,0.06427760718651115
1772614944516063500,5.1280634765625,-0.0022226444855332375,0.053235915625095366,0.01826721323500387
1772614944526131500,5.13813134765625,0.03642696577385068,0.02399287000596523,-0.08129804436396806
1772614944536198700,5.14819873046875,0.05442322571352124,0.003927402576804161,-0.13788759039905854
1772614944546266600,5.1582666015625,0.0486550175756216,-0.01145429095029831,-0.10572394462549127
1772614944556334800,5.1683349609375,0.02643149532973766,0.010819500178098677,-0.03456341865798458
1772614944566401800,5.17840185546875,-0.028251111972332,0.012780571117997169,0.02182417506421916
1772614944576469800,5.1884697265625,-0.0818558609098196,0.027204233267903326,0.03837430958249606
1772614944586536700,5.19853662109375,-0.14477467389851809,0.053182724133133887,0.019485210722638292
1772614944596604700,5.208604736328125,-0.16983225052654743,0.05523556500971317,-0.027714593942835927
1772614944606671600,5.218671630859375,-0.15255729059875012,0.03238894242942333,-0.08658848805543966
1772614944616739800,5.22873974609375,-0.12304945656359195,0.012432780593633652,-0.11173243692582473
1772614944626806800,5.238806884765625,-0.07589490667879581,-0.001101239240169525,-0.14682788923443293
1772614944636874800,5.248874755859375,-0.011314005696773528,0.004037292692065239,-0.07601477019879967
1772614944646942700,5.258942626953125,-0.0034007483541965483,0.022849545189738273,-0.0036175877089612185
1772614944657009700,5.269009765625,-0.027294541899859904,0.05338847583830356,-0.01854330849633552
1772614944667078000,5.279077880859375,-0.06677958007007836,0.06807751092612743,-0.02341076840222813
1772614944677144800,5.289144775390625,-0.0836792769446969,0.08322656474113464,-0.021425421537598594
1772614944687212800,5.299212890625,-0.09722469495534897,0.08258359066247939,-0.03031963447523303
1772614944697279700,5.30927978515625,-0.09266776230335234,0.07487316241562365,-0.07253596077286638
1772614944707347700,5.31934765625,-0.047481882143020626,0.06182780288159847,-0.11286417176895774
1772614944717414700,5.32941455078125,-0.01800064385384321,0.03856266262829303,-0.0631774639248848
1772614944727481600,5.339481689453125,-0.0014693419001996517,0.052346273308992386,-0.022303903138870373
1772614944737549600,5.349549560546875,-0.007673603367805481,0.04805763620436191,0.0011017689631320536
1772614944747617800,5.35961767578125,-0.031164953592419622,0.05254091909825802,0.015538345393538475
1772614944757684700,5.369684814453125,-0.05516425333917141,0.06999240463674068,0.038620667292689904
1772614944767752700,5.379752685546875,-0.09617021746635436,0.07947919490635394,0.04448596086320467
1772614944777819600,5.389819580078125,-0.12431523871570825,0.049397360375523565,-0.028205802392726763
1772614944787887600,5.3998876953125,-0.10935790808051823,0.023052958807349203,-0.08077290624501184
1772614944797954600,5.40995458984375,-0.0846487064987421,0.0009638765960931778,-0.08782707167337649
1772614944808022800,5.420022705078125,-0.04368482794761658,-0.015549451309442519,-0.08695401516589335
1772614944818089700,5.43008984375,-0.016918986096978186,-0.022537410500645637,-0.07586581758162937
1772614944828157700,5.44015771484375,-0.01201280161589384,-0.014606617501378058,-0.054173488736152645
1772614944838224600,5.450224609375,-0.013726912057399749,-0.009819383224844932,-0.07078719000993296
1772614944848292600,5.460292724609375,-0.01886953564286232,-0.0021188918501138685,-0.042327321524592114
1772614944858360800,5.47036083984375,-0.037085575813055036,0.004779050970077514,-0.012690426882822067
1772614944868427800,5.480427734375,-0.0607984598338604,-0.0010094693034887314,-0.04522696108939126
1772614944878495700,5.490495849609375,-0.07279840196818113,0.018859598770737646,-0.0404537188055925
1772614944888562700,5.500562744140625,-0.07237053194493055,0.04778349543809891,0.002764633274590596
1772614944898630700,5.510630615234375,-0.039807986514270303,0.06104921972453594,0.022208580405078827
1772614944908697600,5.520697509765625,-0.006145078626275062,0.06303717867136001,0.012312341684894635
1772614944918765600,5.530765625,0.0010904255852103232,0.04720540328919887,-0.008999691739259286
1772614944928832800,5.540832763671875,-0.018490765458345413,0.02366962940096855,-0.056385109504172574
1772614944938900700,5.550900634765625,-0.04006196127533913,0.015396306574344635,-0.11536577019318937
1772614944948967700,5.5609677734375,-0.050588615986704825,0.014937456890940665,-0.1406006396168843
1772614944959035600,5.57103564453125,-0.06731237177252769,0.0035299276918172836,-0.08518291384014301
1772614944969103600,5.581103515625,-0.08779343426525592,0.011961071428656577,-0.051448557284288106
1772614944979170600,5.591170654296875,-0.10858049396723508,0.045131519624590874,-0.045398143804678694
1772614944989238800,5.60123876953125,-0.13380407481193543,0.06314823783040047,-0.08529189063995145
1772614944999305700,5.6113056640625,-0.12678864309191704,0.056580549877882,-0.07047834325646982
1772614945009373700,5.621373779296875,-0.10764058276861906,0.06326163507699967,-0.06755840068915858
1772614945019440600,5.631440673828125,-0.06347790817618369,0.06481880139112473,-0.08920736531694419
1772614945029508600,5.641508544921875,-0.007973755358159541,0.0402285500138998,-0.11325139012141153
1772614945039575600,5.651575439453125,0.04332739281207323,0.03129880910515785,-0.15426962920827791
1772614945049643800,5.661643798828125,0.07481295666098595,0.025729484540224074,-0.12160337680797093
1772614945059711700,5.671711669921875,0.07110124266147613,0.03372749755680561,-0.09073471188154071
1772614945069778700,5.68177880859375,0.021944413043558597,0.06714870564341545,-0.0402854221671354
1772614945079846700,5.6918466796875,-0.01768997046947479,0.09015957887470721,0.0058113714261911805
1772614945089913600,5.70191357421875,-0.04577098657190799,0.10480594386458396,0.05011952803707681
1772614945099981600,5.711981689453125,-0.05252016857117414,0.12316694546341896,0.1224832466487307
1772614945110048800,5.722048828125,-0.031491116806864734,0.10662672955095767,0.12010812414838
1772614945120116700,5.73211669921875,-0.008389642682671547,0.04374854083359241,0.03379079945082776
1772614945130183700,5.74218359375,0.012807166863977908,-0.02850771708190441,-0.09767980917855165
1772614945140252700,5.752252685546875,0.009888064546883105,-0.07687924154102801,-0.18884815410384906
1772614945150321000,5.76232080078125,-0.005081541047990322,-0.09566811316311359,-0.21682521664146331
1772614945160387800,5.772387939453125,-0.031134850715100762,-0.10587152726948261,-0.2048525461065583
1772614945170455800,5.782455810546875,-0.06914338659197092,-0.1165466505408287,-0.1660348310049623
1772614945180523500,5.7925234375,-0.11087971082031726,-0.10871756435036659,-0.10782440576977095
1772614945190590700,5.8025908203125,-0.15256781199276445,-0.06367021587789058,-0.023883107754867523
1772614945200658400,5.812658447265625,-0.20015870746821163,-0.006615618747472763,0.06634302441687323
1772614945210725600,5.8227255859375,-0.21781974410414695,0.04261223028004169,0.05962236525919288
1772614945220793600,5.832793701171875,-0.20033581760078667,0.08397942893505096,0.06366888243732974
1772614945230860800,5.84286083984375,-0.16822627663463352,0.10424363380670547,0.05847731427676044
1772614945240928800,5.8529287109375,-0.11331541353464127,0.07249298928081989,-0.04479759322879836
1772614945250995700,5.86299560546875,-0.022824995270371434,0.037467268607020376,-0.1145549744001124
1772614945261063700,5.873063720703125,0.03910363763719797,0.006146832191944122,-0.10638723997296765
1772614945271130600,5.883130615234375,0.050132396651804446,-0.0011819032609462737,-0.06437973412042483
1772614945281198800,5.89319873046875,0.018515315377712248,0.02847030768096447,-0.04138293508025817
1772614945291266600,5.9032666015625,-0.07013882737010717,0.057230538219213485,-0.009209224570402874
1772614945301333800,5.913333740234375,-0.12212649649977683,0.08743453782498836,0.01810937405847944
1772614945311401700,5.923401611328125,-0.17847499118745325,0.11434709466993809,0.005819691729964688
1772614945321468700,5.93346875,-0.18879852454215287,0.11205752242803572,-0.04327961728074588
1772614945331537000,5.943536865234375,-0.13893296213299036,0.0703098000228405,-0.11038444724981672
1772614945341603800,5.953603759765625,-0.07488309928774833,0.041536710003018375,-0.1341999239954166
1772614945351671800,5.963671875,0.018297580973803997,0.03478080600202083,-0.08013067195187322
1772614945361738800,5.97373876953125,0.05789338604211807,0.027038229051232335,-0.010980956083815545
1772614945371806700,5.983806640625,0.06236205588877201,0.012353285616636275,-0.0120446032599546
1772614945381874700,5.993874755859375,0.02070814924687147,0.024789573341608046,-0.043238655082695185
1772614945391941600,6.003941650390625,-0.04196136515587568,0.0283469735622406,-0.040661507204221556
1772614945402009600,6.014009521484375,-0.09187105896770953,0.013501871129870413,-0.08685991627480834
1772614945412076800,6.024076904296875,-0.10381810187101363,-0.008657938230037689,-0.1325203642774839
1772614945422144800,6.034144775390625,-0.08135434112846851,-0.00937806919813156,-0.12382519930959679
1772614945432211700,6.044211669921875,-0.030716917563974856,-0.01007657285630703,-0.11027481286288239
1772614945442279700,6.05427978515625,0.021372750635445116,0.006025251638889313,-0.0817971529925242
1772614945452346600,6.0643466796875,0.051209962755441665,0.01941314100027084,-0.03693343572495505
1772614945462414800,6.074414794921875,0.049287177999317644,0.04396306036710739,0.019136643880140036
1772614945472481800,6.084481689453125,0.014247721061110497,0.07010287927389144,0.05844578662733547
1772614945482549800,6.0945498046875,-0.016179273645579813,0.0879559313505888,0.05097358758314512
1772614945492617700,6.10461767578125,-0.046617082007229325,0.07311725865900516,-0.017529838871164247
1772614945502684700,6.1146845703125,-0.0650967415496707,0.06580313625335693,-0.011611865265341475
1772614945512753000,6.1247529296875,-0.06875526405721902,0.0665711980164051,-0.003385002795793116
1772614945522819800,6.13481982421875,-0.06483633704781532,0.05964578266739845,-0.007459988016588613
1772614945532886800,6.14488671875,-0.06955225965380668,0.013425298762321472,-0.02983231674917042
1772614945542953700,6.15495361328125,-0.06803045691400766,-0.007768295913934707,-0.07265169610702432
1772614945553021700,6.165021728515625,-0.08752806132733822,-0.025368250012397765,-0.11905821323664859
1772614945563089000,6.1750888671875,-0.11867577152401208,-0.016911387312412263,-0.07786278181881644
1772614945573156900,6.185156982421875,-0.14552490774393081,-0.007548515683412552,-0.06756896774894558
1772614945583224800,6.195224853515625,-0.17436434099823236,-0.0006727846950292587,-0.04775250664479099
1772614945593291800,6.205291748046875,-0.1881403528943658,0.009867898541688918,-0.009485959152551368
1772614945603359700,6.21535986328125,-0.1748635226920247,0.00828793587386608,-0.009343628072412683
1772614945613426700,6.2254267578125,-0.16057546962052582,-0.014176409390568733,-0.04026964920926839
1772614945623495000,6.235494873046875,-0.07402648245841265,-0.04392974261939525,-0.1387634690512903
1772614945633561900,6.245561767578125,-0.01071750110834837,-0.12254501417279243,-0.25199728698339313
1772614945643629800,6.2556298828125,0.0372831442117691,-0.13709201044142244,-0.22701834681583566
1772614945653696800,6.26569677734375,0.09575345335900783,-0.07979074507355689,-0.09240601522778161
1772614945663764700,6.2757646484375,0.11723784767538309,-0.05286182161569595,0.010064215698232874
1772614945673833000,6.2858330078125,0.12484978398382662,-0.0027168577432632444,-0.0013166081570554523
1772614945683900000,6.29589990234375,0.12669278150200844,0.04328559949696064,-0.02801213385099545
1772614945693968000,6.3059677734375,0.1177314764112234,0.08551496793925761,-0.006112619395088404
1772614945704034800,6.316034912109375,0.08505670277774334,0.12455109329819679,0.020110658277757466
1772614945714102800,6.326102783203125,0.035493922707438466,0.1595201153486967,0.03661593074100092
1772614945724169700,6.336169677734375,-0.006186871941387653,0.16111644462943076,0.023793191848555578
1772614945734237700,6.34623779296875,-0.01206423954218626,0.16069441982507704,-0.022236664855247362
1772614945744305000,6.356304931640625,-0.04144143293499946,0.16248481037318704,-0.053586647025216365
1772614945754372900,6.366372802734375,-0.03380553122907877,0.11528057612776756,-0.08568258872427977
1772614945764440800,6.37644091796875,0.004440320535004138,0.08292495144605636,-0.0373239694125019
1772614945774507800,6.3865078125,0.024115619602799416,0.05037409645318985,0.01585759481000714
1772614945784575700,6.39657568359375,-0.020382570554316044,0.01708265222609043,-0.036385181591892614
1772614945794642700,6.406642578125,-0.09751169520318508,0.019166472762823104,-0.08851834187316708
1772614945804711000,6.4167109375,-0.17955840250998734,0.03090542587339878,-0.050623093645041806
1772614945814777900,6.42677783203125,-0.2470481766760349,0.04349076668024063,0.005393164280429482
1772614945824845800,6.436845703125,-0.27456775950342416,0.05613982037305831,0.01158891364801675
1772614945834912800,6.446912841796875,-0.2540112936869264,0.05533318016529083,0.0071745495381765065
1772614945844980700,6.456980712890625,-0.19178017070144412,0.026904958060383795,0.01661724493773654
1772614945855047700,6.467047607421875,-0.11332739623337984,0.018292028015851974,0.023785766593925655
1772614945865116000,6.477115966796875,-0.041756490233540534,0.012774141377210616,0.034870484446315096
1772614945875183900,6.487183837890625,0.023881518585979936,-0.019551088166236876,0.03605463446327485
1772614945885250800,6.497250732421875,0.04926116677522659,-0.05581716428995132,-0.018498775234865025
1772614945895318800,6.50731884765625,0.039655426301062106,-0.08860825777947902,-0.1427151475528255
1772614945905385700,6.5173857421875,0.0040814240947365755,-0.05635024825334549,-0.17341913256999103
1772614945915453700,6.52745361328125,-0.03772942667454481,0.01202887596786022,-0.11316205873698927
1772614945925521000,6.53752099609375,-0.07926438311189413,0.06300152283608913,-0.021662837889511136
1772614945935588900,6.5475888671875,-0.1018418333619833,0.12860533712506295,0.05081501775425858
1772614945945655800,6.55765576171875,-0.08702887963354587,0.15683248369991779,0.08310839998787269
1772614945955723800,6.567723876953125,-0.04994827225655317,0.16118658725619314,0.09955141173670999
1772614945965791700,6.577791748046875,0.0045353053420782085,0.15316460884213445,0.08037211602493188
1772614945975858700,6.587858642578125,0.025158698914945123,0.11002513981759547,0.012577541092876345
1772614945985927000,6.597927001953125,0.031601006922125814,0.06592354776263237,-0.03503107270235196
1772614945995993900,6.607993896484375,0.04776712882518768,0.0312619842261076,-0.09170769423269666
1772614946006061800,6.618061767578125,0.002244271795451641,0.004034954604506492,-0.08316070556384511
1772614946016128800,6.628128662109375,-0.03917173443734646,-0.02191197207868099,-0.04508475787341595
1772614946026196700,6.63819677734375,-0.09389496601074933,-0.0066822542428970335,-0.05372010067915543
1772614946036263700,6.648263671875,-0.14137684815376997,-0.007326981887221336,-0.056589071111055086
1772614946046332000,6.658331787109375,-0.1769786151498556,-0.01197451543211937,-0.07532473297487012
1772614946056398800,6.66839892578125,-0.1871744304716587,-0.010129764348268509,-0.12351317421835846
1772614946066466800,6.678466796875,-0.1911728524580598,0.007673018845915794,-0.1432254442956764
1772614946076534800,6.68853466796875,-0.15873714827746152,0.03051028907597065,-0.07747712523578666
1772614946086601700,6.698601806640625,-0.1424693195655942,0.05903261920511722,-0.040477035749098285
1772614946096669700,6.708669677734375,-0.15973317357748745,0.08801905971467494,-0.004954042210802436
1772614946106737000,6.71873681640625,-0.1588917543172836,0.08563888657987118,0.06120760689033195
1772614946116804900,6.728804931640625,-0.10663754320591688,0.0969394482731819,0.0387863975147251
1772614946126871800,6.738871826171875,-0.09611819501817226,0.06529577125310898,0.023643070187605916
1772614946136939800,6.748939697265625,-0.07919336370229721,0.027750761234760283,-0.03169934359691105
1772614946147006700,6.7590068359375,-0.034331308668851854,0.009958499434590339,-0.1049620203422848
1772614946157074700,6.76907470703125,0.006126958447694778,-0.008880641070008277,-0.11283446161728351
1772614946167143000,6.779142822265625,0.013537819226086139,-0.022128829699754715,-0.10692914656363427
1772614946177209900,6.7892099609375,0.030997488071024416,-0.02925707414448261,-0.06284962934316135
1772614946187277800,6.79927783203125,0.03778115686178207,-0.016325696378946302,-0.015126403591781854
1772614946197344800,6.8093447265625,0.0475984942600131,-0.016610943061113357,0.032127542413724584
1772614946207412700,6.819412841796875,0.06367723014056682,-0.0246346750408411,0.028415545286424457
1772614946217479700,6.829479736328125,0.06535305439829826,-0.020866846939921378,-0.004921957438951358
1772614946227548000,6.8395478515625,0.021199732156097887,-0.007891630032658576,-0.030426474116882308
1772614946237614800,6.84961474609375,-0.017289572975039483,0.0035176527321338653,-0.030205533975735305
1772614946247682800,6.859682861328125,-0.048723698897659776,0.02540332132577896,-0.011156970237847418
1772614946257750800,6.869750732421875,-0.05894640222638845,0.019090484917163846,-0.042830183879658576
1772614946267817700,6.879817626953125,-0.04315291302800178,0.002072130098938942,-0.11526325053363107
1772614946277885700,6.8898857421875,-0.02239566394239664,-0.013504209217429161,-0.11307399686104617
1772614946287953000,6.899952880859375,-0.0064151277393102646,-0.021162030494213103,-0.058328781784698365
1772614946298020900,6.910020751953125,0.0011430325552821159,-0.013733926320075989,-0.006334920376259833
1772614946308087800,6.920087890625,-0.010387538501620292,-0.01222936697602272,-0.0023252463434822856
1772614946318155800,6.93015576171875,-0.04747311431467533,0.0048608840346336364,-0.02555667612343095
1772614946328222700,6.94022265625,-0.08921002306491135,0.04168167143166065,0.010777168006869032
1772614946338290700,6.950290771484375,-0.12516308771669865,0.047642041140794754,0.0010985906253568828
1772614946348357600,6.960357666015625,-0.1415729552477598,0.026766426372528074,-0.10046083646551705
1772614946358425900,6.97042578125,-0.1185685117572546,-0.005281155273318291,-0.17960775807704776
1772614946368493800,6.980493896484375,-0.07478489961028098,-0.04396306036710739,-0.187386977243796
1772614946378560800,6.990560791015625,-0.05046002117097378,-0.054522448304295534,-0.13213140149251557
1772614946388628700,7.000628662109375,-0.02542640994042158,-0.013971242207288742,-0.02089223710950464
1772614946398695700,7.01069580078125,-0.012294541166722774,0.05440905105769634,0.07954148302022367
1772614946408764000,7.020763916015625,-0.009001052579283714,0.09104279145002364,0.10705485530253499
1772614946418830800,7.030830810546875,-0.007480711144208908,0.10265139617919922,0.023800991562521082
1772614946428898800,7.04089892578125,-0.019022680377960205,0.09796879132091998,-0.027907741894759235
1772614946438965800,7.0509658203125,-0.012948621161282061,0.10777005436718463,-0.0717960382589139
1772614946449033700,7.06103369140625,-0.008676350669562816,0.10402502261996269,-0.08643281343653797
1772614946459101700,7.071101806640625,-0.007576280473172665,0.09220014479160309,-0.06463061274210923
1772614946469169000,7.0811689453125,-0.027531857787072657,0.08429390171170234,-0.05961053782408125
1772614946479236900,7.09123681640625,-0.04646656762063503,0.06397416726052761,-0.04962081213416531
1772614946489303800,7.1013037109375,-0.04203939882814884,0.046152679365873334,-0.055069478594651444
1772614946499371800,7.111371826171875,-0.03983078286796808,0.01751402938067913,-0.07207424327894113
1772614946509438700,7.121438720703125,-0.03303863850980997,0.00815291131734848,-0.059433820417150854
1772614946519506700,7.131506591796875,-0.03304331468492746,0.012716273710131645,-0.06663478303821757
1772614946529573600,7.14157373046875,-0.03204407451450825,0.05715864202678203,-0.04524399442258291
1772614946539642400,7.151642333984375,-0.044720892997086044,0.09084697661697864,0.03532678597960621
1772614946549710300,7.16171044921875,-0.04981733935326337,0.10570376948714255,0.0639180166264996
1772614946559777300,7.17177734375,-0.04700198967158794,0.1279834058344364,0.06281843048729933
1772614946569845500,7.181845458984375,-0.037680034574866295,0.14060323343276976,0.0790277704775799
1772614946579912400,7.191912353515625,-0.04290975192189216,0.13244798402786254,0.08084242781726643
1772614946589980400,7.20198046875,-0.06638415101170539,0.15209259569644928,0.07930071480059996
1772614946600047400,7.21204736328125,0.006144201843440532,0.12429156557917594,0.0811929765542969
1772614946610115300,7.222115234375,0.18849544994235037,0.09194587776958942,-0.06177365240841172
1772614946620182300,7.232182373046875,0.2362614097237587,0.006224573603272438,-0.1516179821883328
1772614946630250500,7.24225048828125,0.23595190538316962,-0.04619710302948951,-0.20025986628774553
1772614946640318500,7.252318359375,0.21193506997972725,-0.08869652058482169,-0.18582392917815596
1772614946650385400,7.262385498046875,0.1063163484275341,-0.04746200839877128,-0.11881383742098696
1772614946660453400,7.272453369140625,-0.047637072704732414,-0.023790625432133672,-0.005183969376003369
1772614946670520300,7.282520263671875,-0.18670301356762647,-0.0463414799362421,0.0003135868606623262
1772614946680588500,7.292588623046875,-0.2616983410581946,-0.062355626147985455,-0.09081658147871494
1772614946690655500,7.302655517578125,-0.31368454888314007,-0.11720073053538799,-0.2110241291472688
1772614946700723500,7.312723388671875,-0.34668957738429307,-0.16328618988394736,-0.13802729113069362
1772614946710790400,7.322790283203125,-0.3293555807456374,-0.07745850273370743,-0.028832026265980675
1772614946720858400,7.3328583984375,-0.3384691537886858,-0.06517652878761292,0.03690115002370439
