time,seconds_elapsed,z,y,x
1772614939462156500,0.074156494140625,0.003715026890859008,0.01016923412680626,0.12861168384552002
1772614939472224500,0.084224609375,-0.003633699845522642,0.013893665745854378,0.11582904309034348
1772614939482291500,0.09429150390625,-0.01229875534772873,0.028258338570594788,0.10601844638586044
1772614939492359400,0.104359375,-0.002073549199849367,0.029883932322263718,0.09806358814239502
1772614939502426400,0.11442626953125,0.012343302369117737,0.045077886432409286,0.08429256081581116
1772614939512494600,0.12449462890625,0.033514104783535004,0.059041641652584076,0.06704140454530716
1772614939522561500,0.1345615234375,0.051348406821489334,0.06099256873130798,0.0372362956404686
1772614939532629200,0.144629150390625,0.06260133534669876,0.04483383893966675,0.011949851177632809
1772614939542697200,0.154697265625,0.07592449337244034,0.01304069347679615,-0.003911265172064304
1772614939552764200,0.16476416015625,0.07748590409755707,-0.0013821879401803017,-0.0015887224581092596
1772614939562832100,0.17483203125,0.0791073739528656,-0.00022982177324593067,-0.008017042651772499
1772614939572899000,0.184899169921875,0.09104206413030624,0.01494966447353363,-0.0016121406806632876
1772614939582967000,0.194967041015625,0.09397950768470764,0.038517583161592484,0.01266549900174141
1772614939593034200,0.2050341796875,0.1021796464920044,0.06384903937578201,0.018254144117236137
1772614939603102200,0.215102294921875,0.11021239310503006,0.09475427865982056,0.011020160280168056
1772614939613169200,0.225169189453125,0.12525366246700287,0.12700356543064117,0.006062153726816177
1772614939623237000,0.235237060546875,0.14864426851272583,0.15705229341983795,0.008969753980636597
1772614939633304000,0.245303955078125,0.17504951357841492,0.17157743871212006,0.018104927614331245
1772614939643372000,0.2553720703125,0.18266314268112183,0.13967208564281464,0.045160774141550064
1772614939653439000,0.26543896484375,0.16376428306102753,0.07987293601036072,0.08182957023382187
1772614939663507200,0.275507080078125,0.13312259316444397,0.0066441879607737064,0.10119492560625076
1772614939673575200,0.2855751953125,0.10056333243846893,-0.029434187337756157,0.09993445128202438
1772614939683642000,0.29564208984375,0.08814214915037155,-0.020450839772820473,0.07269325852394104
1772614939693710000,0.3057099609375,0.10143531858921051,0.018414800986647606,0.0418408066034317
1772614939703777000,0.315777099609375,0.12137312442064285,0.06930715590715408,0.002881059655919671
1772614939713845200,0.32584521484375,0.143507182598114,0.08596709370613098,-0.022346267476677895
1772614939723912200,0.335912109375,0.14832396805286407,0.09255924075841904,-0.02794078178703785
1772614939733980200,0.345980224609375,0.14889255166053772,0.10155566781759262,-0.019979529082775116
1772614939744047000,0.356047119140625,0.1368599832057953,0.09355772286653519,-0.007673099637031555
1772614939754115000,0.366114990234375,0.11841359734535217,0.070726178586483,0.014790130779147148
1772614939764182000,0.37618212890625,0.10879155993461609,0.04067378118634224,0.029122838750481606
1772614939774250200,0.386250244140625,0.09869471937417984,0.02640749141573906,0.04183037951588631
1772614939784317200,0.396317138671875,0.08730091154575348,0.03441082313656807,0.046329524368047714
1772614939794385200,0.40638525390625,0.084579698741436,0.05685275048017502,0.04033474624156952
1772614939804453000,0.416453125,0.08323154598474503,0.06997083872556686,0.02777291275560856
1772614939814520000,0.42652001953125,0.06896312534809113,0.07829561084508896,0.022946199402213097
1772614939824588000,0.436588134765625,0.056770939379930496,0.08305457979440689,0.020219720900058746
1772614939834655000,0.446655029296875,0.05169282481074333,0.07157635688781738,0.01699543371796608
1772614939844723200,0.45672314453125,0.03493335843086243,0.06685563176870346,0.023508530110120773
1772614939854790100,0.4667900390625,0.031669389456510544,0.06787269562482834,0.0259541105479002
1772614939864858000,0.476858154296875,0.03664978966116905,0.06407085061073303,0.028315380215644836
1772614939874925000,0.486925048828125,0.042575325816869736,0.05256626382470131,0.03900770843029022
1772614939884993000,0.496992919921875,0.04149528592824936,0.048308517783880234,0.05200502276420593
1772614939895060000,0.50706005859375,0.04124042019248009,0.0501551516354084,0.058816857635974884
1772614939905128200,0.517128173828125,0.027317633852362633,0.054714836180210114,0.05203276872634888
1772614939915196200,0.527196044921875,0.014125133864581585,0.07382088899612427,0.036619722843170166
1772614939925263000,0.53726318359375,0.02258468233048916,0.0990506038069725,0.02173861488699913
1772614939935331000,0.5473310546875,0.0308239683508873,0.11314698308706284,0.002658664248883724
1772614939945398000,0.55739794921875,0.023341625928878784,0.11009976267814636,-0.01513416226953268
1772614939955466200,0.56746630859375,0.011782973073422909,0.11127794533967972,-0.024775870144367218
1772614939965533200,0.577533203125,0.01169977430254221,0.10083656013011932,-0.02938944473862648
1772614939975601200,0.58760107421875,0.011692318134009838,0.07390215992927551,-0.019436679780483246
1772614939985668000,0.597668212890625,0.0178671907633543,0.04484640806913376,-0.004181280732154846
1772614939995736000,0.607736083984375,0.030567271634936333,0.027324937283992767,0.007845554500818253
1772614940005803000,0.617802978515625,0.04074826464056969,0.021882671862840652,0.011029352433979511
1772614940015871000,0.62787109375,0.03902679681777954,0.029589593410491943,-0.002996718045324087
1772614940025938200,0.637938232421875,0.03717368468642235,0.04211217910051346,-0.017112117260694504
1772614940036006100,0.648006103515625,0.031611938029527664,0.04758124798536301,-0.036318566650152206
1772614940046074000,0.65807421875,0.026231994852423668,0.04298122972249985,-0.053467266261577606
1772614940056141000,0.66814111328125,0.017006006091833115,0.03024333156645298,-0.0631614401936531
1772614940066209000,0.678208984375,0.016924014315009117,0.02138504758477211,-0.06460689008235931
1772614940076276000,0.68827587890625,0.023696964606642723,0.01080138050019741,-0.05976792424917221
1772614940086344200,0.69834423828125,0.024041371420025826,0.014059504494071007,-0.05100483447313309
1772614940096411100,0.7084111328125,0.020196832716464996,0.017375938594341278,-0.04108456149697304
1772614940106479000,0.71847900390625,0.029093429446220398,0.013634514063596725,-0.029917757958173752
1772614940116546000,0.728546142578125,0.04241855442523956,0.0040583196096122265,-0.02641490288078785
1772614940126614000,0.738614013671875,0.03696965426206589,-0.012544866651296616,-0.020351432263851166
1772614940136681000,0.748680908203125,0.00503142736852169,-0.021387094631791115,-0.020958103239536285
1772614940146749200,0.758749267578125,-0.022705361247062683,-0.016052592545747757,-0.023311425000429153
1772614940156817200,0.768817138671875,-0.020079484209418297,-0.006405556574463844,-0.03003430739045143
1772614940166884000,0.778884033203125,-0.002267789328470826,-0.00990496389567852,-0.032472122460603714
1772614940176952000,0.7889521484375,-0.0014696399448439479,-0.00614298228174448,-0.03456749767065048
1772614940187019000,0.79901904296875,-0.01653071492910385,0.007015899755060673,-0.03651732578873634
1772614940197087000,0.8090869140625,-0.019872982054948807,0.02369074895977974,-0.04069236293435097
1772614940207154200,0.819154296875,-0.0012636944884434342,0.010855809785425663,-0.04347357153892517
1772614940217222100,0.82922216796875,0.007456294260919094,-0.006881375797092915,-0.045236848294734955
1772614940227289000,0.8392890625,0.016062358394265175,-0.003133229911327362,-0.051429275423288345
1772614940237357000,0.849357177734375,0.013322231359779835,0.013149602338671684,-0.06834433972835541
1772614940247424000,0.859424072265625,-0.002316966187208891,0.03733627870678902,-0.09706351161003113
1772614940257492000,0.869491943359375,-0.011155465617775917,0.04865551367402077,-0.12374439090490341
1772614940267559200,0.87955908203125,-0.013990958221256733,0.04206889495253563,-0.15344327688217163
1772614940277627100,0.889627197265625,-0.008852122351527214,0.03051610291004181,-0.15754640102386475
1772614940287695000,0.899695068359375,-0.005954236723482609,0.013778464868664742,-0.14469066262245178
1772614940297762000,0.909761962890625,-0.0020590974017977715,-0.006156095303595066,-0.10169792920351028
1772614940307830000,0.919830078125,-0.0020469631999731064,-0.020215479657053947,-0.04822263494133949
1772614940317897000,0.92989697265625,0.0015661473153159022,-0.025095457211136818,0.0021164349745959044
1772614940327965200,0.939965087890625,0.009243607521057129,-0.025400059297680855,0.044144973158836365
1772614940338032000,0.9500322265625,0.015305760316550732,-0.027142032980918884,0.07219178229570389
1772614940348100000,0.96010009765625,0.0079111373052001,-0.023199185729026794,0.079136922955513
1772614940358167300,0.970167236328125,-0.0013396184658631682,-0.006379458121955395,0.06814206391572952
1772614940368235000,0.980235107421875,-0.003403300419449806,0.001522968988865614,0.04249400272965431
1772614940378302200,0.99030224609375,-0.0075325313955545425,0.005489481147378683,0.025348035618662834
1772614940388370200,1.0003701171875,-0.0073055000975728035,-0.0008350098505616188,0.02189762517809868
1772614940398438100,1.010438232421875,-0.00011656282003968954,-0.01604512333869934,0.020356720313429832
1772614940408505000,1.020505126953125,0.005134710110723972,-0.02075980231165886,0.027460919693112373
1772614940418573000,1.030572998046875,0.0048225875943899155,-0.01312052458524704,0.03105884976685047
1772614940428640000,1.040639892578125,0.010879604145884514,-0.015277422033250332,0.04425102472305298
1772614940438708000,1.0507080078125,0.019378017634153366,-0.033734194934368134,0.0549129880964756
1772614940448775200,1.060775146484375,0.021465670317411423,-0.041206225752830505,0.06875636428594589
1772614940458843100,1.070843017578125,0.022077132016420364,-0.0411047600209713,0.06971430778503418
1772614940468910300,1.080910400390625,0.008806167170405388,-0.03176125884056091,0.06399290263652802
1772614940478978000,1.09097802734375,-0.008444459177553654,-0.024563003331422806,0.05421110987663269
1772614940489045200,1.101045166015625,-0.02018859051167965,-0.012127257883548737,0.042077239602804184
1772614940499113000,1.111113037109375,-0.02367919497191906,-0.009874489158391953,0.0368337407708168
1772614940509181200,1.12118115234375,-0.03741667792201042,-0.024685988202691078,0.0376938171684742
1772614940519248100,1.131248046875,-0.04480988159775734,-0.030373437330126762,0.05226264148950577
1772614940529316400,1.14131640625,-0.03739351034164429,-0.027505477890372276,0.05858924612402916
1772614940539383300,1.15138330078125,-0.0213227067142725,-0.03119533881545067,0.07046172022819519
1772614940549451300,1.161451171875,-0.009337157942354679,-0.04199295863509178,0.07658617943525314
1772614940559518500,1.1715185546875,-0.005010852590203285,-0.05087832733988762,0.07268278300762177
1772614940569586200,1.181586181640625,-0.005317125469446182,-0.04964195191860199,0.0657353475689888
1772614940579653400,1.1916533203125,-0.011605648323893547,-0.04103727638721466,0.055044084787368774
1772614940589721300,1.201721435546875,-0.01947893388569355,-0.027172759175300598,0.04688582569360733
1772614940599788500,1.21178857421875,-0.02164328470826149,-0.030822087079286575,0.03489894047379494
1772614940609856300,1.221856201171875,-0.02681107074022293,-0.03877641633152962,0.02181968279182911
1772614940619923500,1.23192333984375,-0.023293567821383476,-0.05314922705292702,0.006385598331689835
1772614940629991200,1.2419912109375,-0.011080478318035603,-0.05644216388463974,-0.00965529028326273
1772614940640059400,1.252059326171875,0.001963418209925294,-0.04923698306083679,-0.02009221911430359
1772614940650126300,1.262126220703125,0.01384303905069828,-0.04427153244614601,-0.030270643532276154
1772614940660194300,1.2721943359375,0.0185906570404768,-0.042241405695676804,-0.04235633462667465
1772614940670261500,1.282261474609375,-0.0036868280731141567,-0.03268606960773468,-0.041187185794115067
1772614940680329200,1.2923291015625,-0.020065002143383026,-0.024643592536449432,-0.037985265254974365
1772614940690396400,1.302396484375,-0.027358204126358032,-0.026649234816432,-0.028898049145936966
1772614940700464400,1.31246435546875,-0.03034174256026745,-0.0318802148103714,-0.010173098184168339
1772614940710531600,1.322531494140625,-0.01819724403321743,-0.03798699378967285,0.0021305291447788477
1772614940720599300,1.332599365234375,-0.0068926578387618065,-0.03843599930405617,0.016927585005760193
1772614940730666500,1.34266650390625,0.003605753881856799,-0.03435119614005089,0.03160437196493149
1772614940740734500,1.352734375,0.0037109486293047667,-0.03266808018088341,0.03330133855342865
1772614940750802200,1.36280224609375,0.007276513613760471,-0.03253050521016121,0.03359212726354599
1772614940760869400,1.372869384765625,0.009544728323817253,-0.028239089995622635,0.03166985511779785
1772614940770937300,1.382937255859375,0.009423312731087208,-0.022914808243513107,0.020524105057120323
1772614940781004500,1.393004638671875,0.005507401190698147,-0.007991518825292587,0.008815517649054527
1772614940791072300,1.403072265625,0.006857007276266813,-0.0056594908237457275,0.0006163748912513256
1772614940801139500,1.413139404296875,0.0036644102074205875,-0.020128978416323662,-0.004939245525747538
1772614940811207200,1.423207275390625,-0.0035158051177859306,-0.027828847989439964,-0.004497172310948372
1772614940821274400,1.4332744140625,0.00034444662742316723,-0.028976403176784515,-0.0070343660190701485
1772614940831342300,1.44334228515625,0.017830388620495796,-0.01338911335915327,-0.013184851035475731
1772614940841409500,1.453409423828125,0.027806589379906654,-0.009575201198458672,-0.014272486791014671
1772614940851477500,1.4634775390625,0.03844719007611275,-0.02290060557425022,-0.001360108144581318
1772614940861545200,1.473545166015625,0.04320519417524338,-0.032799579203128815,0.016557106748223305
1772614940871612400,1.4836123046875,0.03679453954100609,-0.02536597102880478,0.021417556330561638
1772614940881680100,1.49368017578125,0.018865076825022697,-0.00261644902639091,0.011737232096493244
1772614940891747600,1.50374755859375,0.0005762004293501377,0.008117979392409325,-0.00011205277405679226
1772614940901815300,1.513815185546875,-0.012897264212369919,0.004199936520308256,-0.008746020495891571
1772614940911882500,1.523882568359375,-0.01356334425508976,0.00007248111069202423,-0.016944142058491707
1772614940921950500,1.533950439453125,-0.015688812360167503,0.005772710777819157,-0.02136285789310932
1772614940932017400,1.544017333984375,-0.014631377533078194,0.008016234263777733,-0.024317819625139236
1772614940942085400,1.55408544921875,-0.011807894334197044,0.00203663925640285,-0.015146159566938877
1772614940952152300,1.56415234375,0.000716341775842011,-0.011410169303417206,-0.0007075776811689138
1772614940962220500,1.574220458984375,0.0072986106388270855,-0.02733267843723297,0.01543410774320364
1772614940972287500,1.58428759765625,0.01475446205586195,-0.04135780781507492,0.019561488181352615
1772614940982355500,1.59435546875,0.01670868881046772,-0.03689141944050789,0.019745513796806335
1772614940992423200,1.604423095703125,0.012412319891154766,-0.021114397794008255,0.016515277326107025
1772614941002490400,1.614490478515625,0.004978638142347336,-0.005429444368928671,0.009638996794819832
1772614941012558300,1.624558349609375,0.004658834543079138,-0.0027872715145349503,0.005579175427556038
1772614941022625500,1.63462548828125,0.004104630555957556,-0.002659972757101059,0.003235593670979142
1772614941032693500,1.644693603515625,0.007049837149679661,-0.005352733191102743,0.0014300283510237932
1772614941042760400,1.654760498046875,0.010594770312309265,-0.0028791893273591995,0.007368611171841621
1772614941052828400,1.664828369140625,0.006142831407487392,-0.008024808019399643,0.014253693632781506
1772614941062895400,1.674895263671875,0.006992379203438759,-0.020381875336170197,0.022686325013637543
1772614941072963600,1.684963623046875,0.007691867649555206,-0.024616720154881477,0.02731918916106224
1772614941083030500,1.695030517578125,0.008608261123299599,-0.0145848598331213,0.02388344518840313
1772614941093098500,1.705098388671875,0.011384781450033188,-0.0006429078057408333,0.013787811622023582
1772614941103166500,1.71516650390625,0.02049226127564907,0.0011707046069204807,0.005204976536333561
1772614941113233400,1.7252333984375,0.022069284692406654,0.0004430660046637058,-0.00046901439782232046
1772614941123301400,1.73530126953125,0.020871127024292946,-0.0014211467932909727,-0.003862680634483695
1772614941133368300,1.745368408203125,0.0182968657463789,-0.0026138604152947664,-0.009164942428469658
1772614941143436500,1.7554365234375,0.011603277176618576,-0.007354287430644035,-0.013039308600127697
1772614941153503500,1.76550341796875,0.015075290575623512,-0.006079015322029591,-0.020150840282440186
1772614941163571500,1.775571533203125,0.020748356357216835,-0.005768490955233574,-0.018221113830804825
1772614941173638400,1.785638427734375,0.018548952415585518,-0.013936076313257217,-0.00969034992158413
1772614941183706400,1.795706298828125,0.02151012048125267,-0.021060563623905182,-0.004451112821698189
1772614941193773300,1.805773193359375,0.02905932441353798,-0.012130731716752052,0.0017453054897487164
1772614941203841500,1.815841552734375,0.03257203474640846,-0.009656655602157116,0.0043333652429282665
1772614941213908500,1.825908447265625,0.026882372796535492,-0.0075941383838653564,0.010463892482221127
1772614941223976400,1.8359765625,0.0169391930103302,-0.007246330380439758,0.01749543659389019
1772614941234044400,1.84604443359375,0.004873151890933514,-0.009045042097568512,0.021465985104441643
1772614941244111400,1.856111328125,-0.007261541672050953,-0.006130211520940065,0.018158605322241783
1772614941254179600,1.8661796875,-0.009912759996950626,0.0008469533640891314,0.015126693993806839
1772614941264246500,1.87624658203125,-0.0013506966643035412,-0.0028575039468705654,0.012054472230374813
1772614941274314500,1.886314453125,0.00014992000069469213,-0.019416479393839836,0.008761456236243248
1772614941284381400,1.89638134765625,0.00041650247294455767,-0.014367925003170967,0.0064343856647610664
1772614941294449400,1.906449462890625,0.0006242971867322922,-0.011549361050128937,0.01138228178024292
1772614941304516400,1.916516357421875,0.0017779786139726639,-0.014675912447273731,0.012007858604192734
1772614941314584300,1.926584228515625,0.0017718267627060413,-0.022042306140065193,0.02224360965192318
1772614941324651500,1.936651611328125,0.0027305646799504757,-0.024598941206932068,0.033538609743118286
1772614941334719500,1.946719482421875,0.006294156424701214,-0.019734982401132584,0.0508556067943573
1772614941344787500,1.956787353515625,0.004654981195926666,-0.014923715963959694,0.05146706849336624
1772614941354854400,1.9668544921875,-0.00234882440418005,-0.008872696198523045,0.04346150904893875
1772614941364922400,1.97692236328125,-0.006510546430945396,-0.00884872768074274,0.03495191037654877
1772614941374989300,1.9869892578125,-0.01542133092880249,-0.009871166199445724,0.028940383344888687
1772614941385057500,1.9970576171875,-0.014403204433619976,-0.007487903814762831,0.020185774192214012
1772614941395124500,2.00712451171875,-0.017020802944898605,0.0043201083317399025,0.021344363689422607
1772614941405192400,2.0171923828125,-0.008786042220890522,0.007661310024559498,0.02653726190328598
1772614941415259400,2.02725927734375,0.005764365196228027,0.007618145551532507,0.03634263202548027
1772614941425327400,2.037327392578125,0.014551730826497078,0.003111011814326048,0.04571855813264847
1772614941435394300,2.047394287109375,0.014736445620656013,-0.00583846727386117,0.05444502457976341
1772614941445462500,2.057462646484375,0.013866123743355274,-0.009946126490831375,0.0588296540081501
1772614941455530500,2.067530517578125,0.008162291720509529,-0.0010475809685885906,0.04972555860877037
1772614941465597400,2.077597412109375,0.007223527412861586,0.006255073007196188,0.031510334461927414
1772614941475665400,2.08766552734375,0.00126702431589365,0.015238738618791103,0.012892162427306175
1772614941485732400,2.097732421875,0.0011266758665442467,0.0189176294952631,-0.0030561774037778378
1772614941495800300,2.10780029296875,0.009723941795527935,0.018614474684000015,-0.010318662971258163
1772614941505867500,2.117867431640625,0.006965706590563059,0.006000944413244724,-0.013376770541071892
1772614941515935500,2.127935546875,-0.015341896563768387,0.003410284174606204,-0.005476376041769981
1772614941526002400,2.13800244140625,-0.021028542891144753,0.0036912476643919945,0.005419414956122637
1772614941536070400,2.1480703125,-0.020481588318943977,0.0121502336114645,0.011260832659900188
1772614941546137300,2.158137451171875,-0.008571932092308998,0.014032822102308273,0.01774749346077442
1772614941556205600,2.16820556640625,0.0001964927650988102,-0.001917864428833127,0.020073335617780685
1772614941566272500,2.1782724609375,0.004718540236353874,-0.007370952516794205,0.017788074910640717
1772614941576340500,2.188340576171875,0.0044508748687803745,-0.01029027160257101,0.005958259105682373
1772614941586408400,2.198408447265625,-0.004386825021356344,-0.008167199790477753,-0.013278552331030369
1772614941596475400,2.208475341796875,-0.014666044153273106,-0.004790133330971003,-0.02992202527821064
1772614941606543400,2.21854345703125,-0.016555557027459145,-0.0010782191529870033,-0.042165640741586685
1772614941616610600,2.228610595703125,-0.016398081555962563,-0.0048566097393631935,-0.04934358969330788
1772614941626678500,2.238678466796875,-0.015082212164998055,-0.006044913083314896,-0.04568547010421753
1772614941636745500,2.248745361328125,-0.0075971162877976894,-0.00037002190947532654,-0.0352570042014122
1772614941646813400,2.2588134765625,-0.01152154989540577,0.003606876591220498,-0.02431247942149639
1772614941656880400,2.26888037109375,-0.014371205121278763,0.002946944907307625,-0.010725898668169975
1772614941666948400,2.2789482421875,-0.010793514549732208,0.006899608299136162,0.00849653035402298
1772614941677015300,2.289015380859375,-0.008282970637083054,0.0018122096080332994,0.02624031901359558
1772614941687083500,2.29908349609375,-0.001001888420432806,-0.005844645202159882,0.03538987413048744
1772614941697151500,2.3091513671875,0.014419520273804665,-0.003035352099686861,0.0338376984000206
1772614941707218400,2.319218505859375,0.016569223254919052,-0.0009743319824337959,0.02661946788430214
1772614941717286400,2.329286376953125,0.010654808953404427,0.01120602898299694,0.01876339502632618
1772614941727353300,2.339353271484375,0.00331194163300097,0.018642373383045197,0.016042176634073257
1772614941737421600,2.349421630859375,0.0005719058681279421,0.010476551949977875,0.022104986011981964
1772614941747488500,2.359488525390625,0.005676653236150742,0.004347552545368671,0.032640986144542694
1772614941757556500,2.369556396484375,0.004562245216220617,-0.008092720061540604,0.03822161257266998
1772614941767623400,2.37962353515625,0.009313590824604034,-0.006618925835937262,0.03307132422924042
1772614941777691400,2.38969140625,0.009880736470222473,0.002201538532972336,0.021901046857237816
1772614941787758300,2.39975830078125,0.010668233036994934,0.013589215464890003,0.013785595074295998
1772614941797826600,2.40982666015625,0.014439860358834267,0.016918711364269257,0.00509779155254364
1772614941807894500,2.41989453125,0.006663695443421602,0.02061571180820465,0.008533269166946411
1772614941817961500,2.42996142578125,0.0028001894243061543,0.02593882568180561,0.008820397779345512
1772614941828029400,2.440029541015625,0.00402471050620079,0.0238780714571476,0.01110166311264038
1772614941838096400,2.450096435546875,0.012575388886034489,0.015473276376724243,0.011865468695759773
1772614941848164400,2.460164306640625,0.022351054474711418,0.008365298621356487,0.015521190129220486
1772614941858231300,2.470231201171875,0.02616463415324688,0.010261328890919685,0.010181007906794548
1772614941868299500,2.480299560546875,0.0314163900911808,0.002645753789693117,0.006110898684710264
1772614941878366500,2.490366455078125,0.018269967287778854,-0.009208912961184978,0.0008930182084441185
1772614941888434400,2.500434326171875,0.0003916358109563589,-0.0033443656284362078,-0.006733209826052189
1772614941898501400,2.51050146484375,-0.01453371811658144,0.011221107095479965,-0.015994388610124588
1772614941908569300,2.5205693359375,-0.02592538855969906,0.01744118519127369,-0.026557818055152893
1772614941918636300,2.53063623046875,-0.028643028810620308,0.015808988362550735,-0.033201105892658234
1772614941928704500,2.54070458984375,-0.016824452206492424,0.014159957878291607,-0.028639644384384155
1772614941938772500,2.5507724609375,-0.0011989132035523653,-0.004953106865286827,-0.025881249457597733
1772614941948839400,2.56083935546875,0.0059388913214206696,-0.022935569286346436,-0.015323148109018803
1772614941958907400,2.570907470703125,0.011454829946160316,-0.03217753767967224,-0.006496100220829248
1772614941968974300,2.580974365234375,0.012055372819304466,-0.017808984965085983,-0.005354137159883976
1772614941979042300,2.591042236328125,0.007425851188600063,-0.0009285127744078636,-0.007918576709926128
1772614941989109500,2.601109619140625,0.0025695764925330877,0.011600062251091003,-0.004795487970113754
1772614941999177500,2.611177490234375,-0.008378595113754272,0.017947541549801826,-0.0008819028735160828
1772614942009244400,2.621244384765625,-0.015514003112912178,0.017500929534435272,0.0014366451650857925
1772614942019312400,2.6313125,-0.01780145801603794,0.013721231371164322,0.007716631982475519
1772614942029379300,2.64137939453125,-0.016021933406591415,0.003259536111727357,0.01991523988544941
1772614942039447300,2.651447265625,-0.013795033097267151,-0.004226799588650465,0.027557333931326866
1772614942049515500,2.661515625,-0.011268224567174911,0.003784521482884884,0.03265728801488876
1772614942059582500,2.67158251953125,-0.003765384666621685,0.012609869241714478,0.03059380128979683
1772614942069650400,2.681650390625,0.007917103357613087,0.012924122624099255,0.034599728882312775
1772614942079717400,2.69171728515625,0.017266971990466118,0.00489873718470335,0.03455648571252823
1772614942089785300,2.701785400390625,0.022003136575222015,-0.012659482657909393,0.03135376796126366
1772614942099852300,2.711852294921875,0.01666295900940895,-0.01476137712597847,0.026682527735829353
1772614942109920500,2.72192041015625,0.003689370583742857,-0.012611672282218933,0.013750751502811909
1772614942119987500,2.731987548828125,-0.004574027378112078,-0.007419155910611153,0.003114857245236635
1772614942130055400,2.742055419921875,-0.0033100913278758526,-0.0008763021323829889,0.00021121278405189514
1772614942140122400,2.752122314453125,-0.008502290584146976,0.002866973401978612,-0.0014203654136508703
1772614942150190300,2.7621904296875,-0.0060892002657055855,0.005550640635192394,0.00392752792686224
1772614942160258300,2.77225830078125,-0.0049781883135437965,0.0006916909478604794,0.0210983008146286
1772614942170325500,2.782325439453125,-0.006893800105899572,-0.004165914840996265,0.03347694128751755
1772614942180393500,2.7923935546875,-0.0036409429740160704,-0.017519420012831688,0.04637324810028076
1772614942190460400,2.80246044921875,-0.005710485391318798,-0.03335404396057129,0.0647788941860199
1772614942200528400,2.8125283203125,-0.00936113577336073,-0.03248640149831772,0.08441875129938126
1772614942210595300,2.82259521484375,-0.01095956563949585,-0.02316666767001152,0.0805600956082344
1772614942220663300,2.832663330078125,-0.013122632168233395,-0.009810027666389942,0.07029951363801956
1772614942230730200,2.842730224609375,-0.01758955419063568,0.010818551294505596,0.051493868231773376
1772614942240798500,2.852798583984375,-0.009610390290617943,0.013548164628446102,0.0339156910777092
1772614942250865400,2.862865478515625,-0.014642166905105114,0.00911719724535942,0.024614065885543823
1772614942260933400,2.872933349609375,-0.02199847437441349,0.008629686199128628,0.01473216898739338
1772614942271001300,2.88300146484375,-0.03411239758133888,0.007858168333768845,0.02123614028096199
1772614942281068300,2.893068359375,-0.038189180195331573,0.006393734365701675,0.02188642881810665
1772614942291136500,2.903136474609375,-0.03246977552771568,-0.0022333096712827682,0.02681886963546276
1772614942301203500,2.913203369140625,-0.02947230450809002,-0.0016829990781843662,0.021900612860918045
1772614942311271400,2.923271484375,-0.012846455909311771,0.004208179656416178,0.018246488645672798
1772614942321338400,2.93333837890625,-0.007727623917162418,0.0008891336619853973,0.02096673846244812
1772614942331406300,2.94340625,-0.014913098886609077,-0.005759447813034058,0.026179078966379166
1772614942341473300,2.953473388671875,-0.019771277904510498,-0.007087617181241512,0.01874655857682228
1772614942351541500,2.96354150390625,-0.01881333999335766,-0.0021437248215079308,0.007149292156100273
1772614942361608400,2.9736083984375,-0.02326137013733387,0.005871362052857876,-0.003932442050427198
1772614942371676400,2.983676513671875,-0.013311000540852547,0.009864239022135735,-0.013530740514397621
1772614942381744400,2.993744384765625,-0.006537700537592173,0.010580997914075851,-0.014803661033511162
1772614942391811300,3.003811279296875,-0.003918215166777372,0.0019137398339807987,-0.014316835440695286
1772614942401879300,3.01387939453125,-0.0038097596261650324,-0.0076921433210372925,-0.0039667123928666115
1772614942411946200,3.0239462890625,0.004915821366012096,-0.005985856056213379,-0.00021138880401849747
1772614942422014500,3.034014404296875,0.02107108011841774,0.001793138450011611,0.00044906907714903355
1772614942432081400,3.044081298828125,0.029821429401636124,-0.006303936243057251,-0.0030348780564963818
1772614942442149400,3.0541494140625,0.02733982913196087,-0.011302031576633453,0.004286673851311207
1772614942452216300,3.06421630859375,0.020202023908495903,-0.012225349433720112,0.004675229080021381
1772614942462284300,3.0742841796875,0.023915577679872513,-0.011022083461284637,0.004467138089239597
1772614942472351200,3.084351318359375,0.02070966362953186,-0.005687770899385214,0.003425309434533119
1772614942482419500,3.09441943359375,0.015548327006399632,-0.006506440229713917,0.0017221923917531967
1772614942492487400,3.1044873046875,0.005808879621326923,-0.008321384899318218,-0.006840136833488941
1772614942502554400,3.114554443359375,-0.0031444355845451355,-0.01201963983476162,-0.012244069948792458
1772614942512622300,3.124622314453125,-0.006951690651476383,-0.014142711646854877,-0.014862490817904472
1772614942522689300,3.134689208984375,-0.00468866154551506,-0.010580619797110558,-0.013127412647008896
1772614942532757000,3.144757080078125,-0.00483300443738699,-0.008863946422934532,-0.013363368809223175
1772614942542824000,3.154823974609375,-0.005795571021735668,-0.006743866950273514,-0.0072470130398869514
1772614942552892200,3.16489208984375,-0.00503790145739913,-0.012253680266439915,0.01024516113102436
1772614942562959000,3.174958984375,-0.00412279786542058,-0.01838076487183571,0.01939515210688114
1772614942573027000,3.185027099609375,-0.0025920127518475056,-0.01399347372353077,0.024450097233057022
1772614942583094000,3.195093994140625,-0.0073917522095143795,-0.013808144256472588,0.019710220396518707
1772614942593162000,3.205161865234375,-0.00870522391051054,-0.008754795417189598,0.011312208138406277
1772614942603229000,3.21522900390625,-0.016419028863310814,-0.007730492390692234,0.001545498613268137
1772614942613297200,3.225297119140625,-0.02066251076757908,-0.015498667024075985,-0.00970449298620224
1772614942623365000,3.235365234375,-0.027754774317145348,-0.022288929671049118,-0.010493587702512741
1772614942633432000,3.24543212890625,-0.027304699644446373,-0.01899886131286621,-0.009051484987139702
1772614942643500000,3.2555,-0.020518183708190918,-0.01655483804643154,-0.007040855940431356
1772614942653567000,3.26556689453125,-0.015094920992851257,-0.020057428628206253,0.0012559557799249887
1772614942663635000,3.275635009765625,-0.013846980407834053,-0.021890975534915924,0.012238241732120514
1772614942673702000,3.285701904296875,-0.00920162908732891,-0.0252928975969553,0.019589630886912346
1772614942683770000,3.29577001953125,-0.007782255299389362,-0.0204568263143301,0.012675675563514233
1772614942693837000,3.305837158203125,-0.010211857035756111,-0.011930450797080994,0.006250533275306225
1772614942703905000,3.315905029296875,-0.0187643151730299,-0.002704232232645154,-0.005056926514953375
1772614942713972000,3.325971923828125,-0.01744338683784008,0.0126419672742486,-0.008749132975935936
1772614942724040000,3.3360400390625,-0.01566998101770878,0.019700534641742706,-0.008371973410248756
1772614942734108200,3.346108154296875,-0.00750978896394372,0.014250376261770725,-0.010994920507073402
1772614942744175000,3.356175048828125,0.009639238938689232,0.003702116198837757,-0.002146863378584385
1772614942754243000,3.3662431640625,0.025262940675020218,-0.011846217326819897,0.013866724446415901
1772614942764310000,3.37631005859375,0.033913999795913696,-0.024248648434877396,0.022230342030525208
1772614942774378000,3.3863779296875,0.031508900225162506,-0.030751023441553116,0.03134740889072418
1772614942784445000,3.39644482421875,0.024222999811172485,-0.025195224210619926,0.0300186425447464
1772614942794513200,3.40651318359375,0.013789532706141472,-0.012706861831247807,0.018082886934280396
1772614942804580000,3.416580078125,0.002766418270766735,0.0003952961415052414,0.0008074317593127489
1772614942814648000,3.42664794921875,-0.004334101919084787,0.003941561561077833,-0.011643112637102604
1772614942824715300,3.43671533203125,-0.00889831967651844,0.012232016772031784,-0.019935516640543938
1772614942834783000,3.446782958984375,-0.0014851449523121119,0.008929165080189705,-0.0150185227394104
1772614942844851000,3.456850830078125,0.0037436350248754025,0.002554357750341296,-0.00624401168897748
1772614942854918000,3.46691796875,0.00834770780056715,-0.01020671147853136,0.00950432475656271
1772614942864986000,3.476986083984375,0.014117849990725517,-0.015455663204193115,0.022575734183192253
1772614942875053000,3.487052978515625,0.020652448758482933,-0.017616817727684975,0.023738738149404526
1772614942885121000,3.49712109375,0.01278869342058897,-0.01928948611021042,0.015707768499851227
1772614942895188000,3.50718798828125,0.006537190172821283,-0.01520206592977047,0.0018859617412090302
1772614942905256000,3.517255859375,0.0004252821672707796,-0.010021775029599667,-0.00823276024311781
1772614942915323100,3.5273232421875,-0.0013755472609773278,-0.0065122609958052635,-0.020680375397205353
1772614942925391000,3.53739111328125,-0.004760034382343292,-0.011449076235294342,-0.018976779654622078
1772614942935458300,3.547458251953125,-0.012276006862521172,-0.01944654993712902,-0.016959700733423233
1772614942945526000,3.557526123046875,-0.013078417629003525,-0.019457468762993813,-0.01291569136083126
1772614942955594000,3.567593994140625,-0.01617008075118065,-0.009067412465810776,-0.01164456456899643
1772614942965661000,3.577660888671875,-0.020981937646865845,-0.0035996881779283285,-0.01918925903737545
1772614942975729200,3.587729248046875,-0.02426588162779808,-0.005658844485878944,-0.02273605577647686
1772614942985796000,3.597796142578125,-0.019940892234444618,-0.014016148634254932,-0.01849891059100628
1772614942995864000,3.607864013671875,-0.01922769658267498,-0.02101254090666771,-0.013199219480156898
1772614943005931300,3.61793115234375,-0.012683145701885223,-0.01905292272567749,-0.00020766037050634623
1772614943015999000,3.6279990234375,0.0006260015070438385,-0.009112406522035599,0.010116349905729294
1772614943026066200,3.638066162109375,0.013737436383962631,-0.008444143459200859,0.02149052731692791
1772614943036134000,3.6481337890625,0.01456727646291256,-0.007019085809588432,0.0321010947227478
1772614943046202000,3.6582021484375,0.005781565792858601,-0.00811147503554821,0.032386329025030136
1772614943056269000,3.66826904296875,-0.008693513460457325,-0.00907553918659687,0.02765468880534172
1772614943066337000,3.6783369140625,-0.017321987077593803,-0.006687573157250881,0.00922144390642643
1772614943076404000,3.688404052734375,-0.01705673709511757,0.002110445871949196,-0.003967063035815954
1772614943086472000,3.698471923828125,-0.006266434211283922,0.012215748429298401,-0.019708003848791122
1772614943096539100,3.7085390625,0.0031795320101082325,0.006429764442145824,-0.017359094694256783
1772614943106607000,3.718607177734375,0.015261918306350708,-0.008234856650233269,-0.00527331605553627
1772614943116674300,3.72867431640625,0.030667508020997047,-0.018379902467131615,0.014415699988603592
1772614943126742000,3.738741943359375,0.040003515779972076,-0.028585070744156837,0.02530648559331894
1772614943136809200,3.748809326171875,0.03586443141102791,-0.03217368200421333,0.021441437304019928
1772614943146877000,3.758876953125,0.028129706159234047,-0.03574661538004875,0.00858122855424881
1772614943156945200,3.768945068359375,0.01725122518837452,-0.024647358804941177,-0.017843719571828842
1772614943167012000,3.77901220703125,0.01302837673574686,-0.009720987640321255,-0.04096025228500366
1772614943177080000,3.789080078125,0.009705283679068089,-0.0021988889202475548,-0.06007562577724457
1772614943187147300,3.799147216796875,0.005150387063622475,-0.003599942196160555,-0.06609848141670227
1772614943197215000,3.809215087890625,0.003886450780555606,-0.005886532831937075,-0.054704949259757996
1772614943207282200,3.8192822265625,0.0018439897103235126,-0.00725416699424386,-0.02981484867632389
1772614943217350000,3.829349853515625,0.004316734615713358,-0.016484949737787247,-0.003435173537582159
1772614943227417300,3.839417236328125,0.0011187634663656354,-0.024306565523147583,0.02226943150162697
1772614943237485000,3.849485107421875,0.0007440565386787057,-0.032868895679712296,0.043735843151807785
1772614943247552300,3.85955224609375,0.002392825670540333,-0.032367561012506485,0.032085370272397995
1772614943257620200,3.8696201171875,-0.0052637625485658646,-0.01728261634707451,0.014127406291663647
1772614943267688000,3.87968798828125,-0.013878194615244865,-0.007002078928053379,-0.01498913113027811
1772614943277755100,3.889755126953125,-0.01913420855998993,-0.0013433943968266249,-0.03272312134504318
1772614943287823000,3.899822998046875,-0.023214874789118767,-0.0024802093394100666,-0.047806017100811005
1772614943297890300,3.909890380859375,-0.020669691264629364,-0.0007891017012298107,-0.04598920792341232
1772614943307958000,3.9199580078125,-0.015976909548044205,-0.0017512114718556404,-0.03295772150158882
1772614943318025200,3.930025146484375,-0.0104979882016778,-0.012374826706945896,-0.004066952038556337
1772614943328093000,3.940093017578125,-0.009036862291395664,-0.023775530979037285,0.020961623638868332
1772614943338160000,3.95016015625,-0.009767900221049786,-0.028893060982227325,0.0346452072262764
1772614943348228000,3.96022802734375,-0.007104014046490192,-0.021038837730884552,0.042415495961904526
1772614943358295300,3.97029541015625,-0.005442201159894466,-0.01656419411301613,0.02542426437139511
1772614943368363300,3.98036328125,-0.006253018509596586,-0.009396007284522057,0.007697117514908314
1772614943378431000,3.990430908203125,-0.010298892855644226,-0.008814905770123005,-0.010153784416615963
1772614943388498200,4.000498291015625,-0.013256524689495564,-0.005676129832863808,-0.02281523495912552
1772614943398566000,4.01056591796875,-0.00950253289192915,-0.010999789461493492,-0.02601076103746891
1772614943408633300,4.02063330078125,-0.009616171941161156,-0.019811948761343956,-0.02248392440378666
1772614943418701000,4.030701171875,-0.01442770566791296,-0.0206226147711277,-0.01713549718260765
1772614943428768300,4.040768310546875,-0.017790183424949646,-0.013451837003231049,-0.016556626185774803
1772614943438836200,4.050836181640625,-0.007877097465097904,-0.0007975611370056868,-0.011887837201356888
1772614943448903200,4.060903076171875,-0.00232078623957932,0.00780505733564496,-0.011714113876223564
1772614943458971100,4.07097119140625,0.0018071134109050035,0.015358847565948963,-0.014007894322276115
1772614943469038000,4.0810380859375,0.0058853719383478165,0.015777572989463806,-0.006137903779745102
1772614943479106300,4.091106201171875,0.006600697059184313,0.013067806139588356,-0.0001854723086580634
1772614943489174000,4.101174072265625,0.010031919926404953,0.014116419479250908,0.007981167174875736
1772614943499241200,4.1112412109375,0.011169621720910072,0.01768771931529045,0.01663031615316868
1772614943509309000,4.121308837890625,0.0015634007286280394,0.018236469477415085,0.014700600877404213
1772614943519376100,4.131376220703125,-0.002093119313940406,0.0227286908775568,0.005479937884956598
1772614943529444400,4.1414443359375,0.003322079312056303,0.02006632834672928,-0.006236440502107143
1772614943539511600,4.151511474609375,0.011226607486605644,0.01904314197599888,-0.012578226625919342
1772614943549579300,4.161579345703125,0.018692979589104652,0.011294027790427208,-0.017137520015239716
1772614943559646700,4.171646728515625,0.02350025065243244,0.0072367023676633835,-0.010724893771111965
1772614943569714400,4.18171435546875,0.022028928622603416,0.012059660628437996,-0.0008903548587113619
1772614943579781600,4.19178173828125,0.025999436154961586,0.01028013601899147,0.01239216048270464
1772614943589849600,4.201849609375,0.03024567849934101,0.008887100033462048,0.02103317901492119
1772614943599917300,4.211917236328125,0.018546145409345627,-0.00432058097794652,0.021808691322803497
1772614943609984500,4.221984619140625,0.002164267934858799,0.0027544614858925343,0.014697364531457424
1772614943620052500,4.232052490234375,-0.005822019651532173,0.015181835740804672,0.008800060488283634
1772614943630119700,4.24211962890625,-0.01599116437137127,0.027141815051436424,0.0008491657208651304
1772614943640187400,4.2521875,-0.013619620352983475,0.03200394660234451,-0.001082957605831325
1772614943650254600,4.262254638671875,-0.007115647662431002,0.027765527367591858,0.005339788272976875
1772614943660322300,4.272322265625,0.0007515961769968271,0.021373940631747246,0.01661880686879158
1772614943670389500,4.282389404296875,-0.005921521689742804,0.014937954023480415,0.022162597626447678
1772614943680457500,4.29245751953125,-0.009968993254005909,0.00792531855404377,0.0219346322119236
1772614943690524700,4.302524658203125,-0.014371589757502079,0.00763860996812582,0.01496809720993042
1772614943700592600,4.312592529296875,-0.01766805164515972,0.007706254255026579,0.0006277733482420444
1772614943710660400,4.322660400390625,-0.015863750129938126,0.01786234602332115,-0.014554055407643318
1772614943720727600,4.3327275390625,-0.012785136699676514,0.020523643121123314,-0.021288923919200897
1772614943730795300,4.342795166015625,-0.00979378167539835,0.019289737567305565,-0.0261139664798975
1772614943740862700,4.35286279296875,-0.006480809301137924,0.01684735156595707,-0.020198019221425056
1772614943750930400,4.362930419921875,0.0027301781810820103,0.013909125700592995,-0.016793832182884216
1772614943760997600,4.37299755859375,0.008611769415438175,0.005301523022353649,-0.011814785189926624
1772614943771065600,4.383065673828125,0.012468274682760239,-0.0033124343026429415,-0.005833645351231098
1772614943781132500,4.393132568359375,0.010522568598389626,-0.005175847560167313,-0.0027832607738673687
1772614943791200500,4.403200439453125,0.0064292545430362225,0.00402251910418272,0.0006582317873835564
1772614943801267500,4.413267333984375,0.004988750908523798,0.013957174494862556,-0.0004110274603590369
1772614943811335700,4.423335693359375,0.009725715033710003,0.013869823887944221,-0.004058759193867445
1772614943821403400,4.4334033203125,0.010330252349376678,0.017916230484843254,-0.0021854916121810675
1772614943831470600,4.443470703125,0.016451453790068626,0.014795830473303795,-0.0037386633921414614
1772614943841538300,4.453538330078125,0.011777871288359165,0.018752489238977432,0.004062534309923649
1772614943851605500,4.46360546875,0.009474621154367924,0.01061762124300003,0.008482500910758972
1772614943861673500,4.473673583984375,0.004316343925893307,0.0022073592990636826,0.011814114637672901
1772614943871740700,4.48374072265625,-0.0003765602596104145,0.00005981186404824257,0.012565573677420616
1772614943881808600,4.49380859375,-0.005136960651725531,0.006168304476886988,0.010349558666348457
1772614943891875600,4.50387548828125,-0.0065358951687812805,0.008679220452904701,0.010562457144260406
1772614943901943600,4.513943603515625,-0.0025472792331129313,0.007844053208827972,0.009906254708766937
1772614943912011300,4.52401123046875,0.003045957302674651,0.0028843223117291927,0.007982401177287102
1772614943922078700,4.53407861328125,0.007053215987980366,0.006305951625108719,0.001794279320165515
1772614943932146400,4.544146484375,0.005865105427801609,0.0002821744419634342,-0.0019783726893365383
1772614943942213600,4.554213623046875,-0.0033768624998629093,-0.012233084999024868,-0.0022699888795614243
1772614943952281600,4.564281494140625,-0.010907432995736599,-0.012273147702217102,-0.005745507776737213
1772614943962348500,4.5743486328125,-0.0169549398124218,-0.0073409732431173325,-0.018044518306851387
1772614943972416500,4.58441650390625,-0.009647367522120476,0.003029794432222843,-0.02432161755859852
1772614943982483500,4.5944833984375,-0.004318648017942905,0.009816328063607216,-0.024902187287807465
1772614943992551700,4.6045517578125,-0.00011015485506504774,0.0025969671551138163,-0.01905827224254608
1772614944002618600,4.61461865234375,-0.00044784368947148323,-0.0058662923984229565,-0.00881309062242508
1772614944012686600,4.6246865234375,-0.0070131574757397175,-0.0018483430612832308,-0.006867511663585901
1772614944022754300,4.63475439453125,-0.012415380217134953,0.0022635776549577713,-0.0067697735503315926
1772614944032821500,4.644821533203125,-0.010515390895307064,0.004453989211469889,-0.009696993976831436
1772614944042889500,4.654889404296875,-0.005500392988324165,-0.00017911195755004883,-0.0077470275573432446
1772614944052956700,4.664956787109375,-0.00597664900124073,-0.0003240893129259348,0.0003358623944222927
1772614944063024600,4.675024658203125,-0.0059811766259372234,0.0016764771426096559,0.005024624057114124
1772614944073091600,4.685091552734375,-0.0037574367597699165,0.004659484140574932,0.010187162086367607
1772614944083159600,4.69515966796875,-0.0007672397186979651,0.004041098058223724,0.015824541449546814
1772614944093226500,4.7052265625,0.0012519813608378172,0.0025735325179994106,0.010397283360362053
1772614944103294700,4.715294677734375,0.0010093674063682556,0.005699018482118845,0.005734354257583618
1772614944113361700,4.725361572265625,0.001603826298378408,0.004276408348232508,-0.0025566963013261557
1772614944123429600,4.7354296875,0.008646288886666298,0.000855311518535018,-0.002212349558249116
1772614944133497600,4.74549755859375,0.014900611713528633,-0.006820350885391235,0.002441132441163063
1772614944143564500,4.755564453125,0.0266206506639719,-0.016990428790450096,0.0031346194446086884
1772614944153632500,4.765632568359375,0.02728172391653061,-0.024708030745387077,0.001048048259690404
1772614944163699500,4.775699462890625,0.013729694299399853,-0.011087559163570404,-0.004801052622497082
1772614944173767700,4.785767578125,-0.00303969020023942,-0.0012971193064004183,-0.016445670276880264
1772614944183834600,4.795834716796875,-0.016177063807845116,0.008299848064780235,-0.028321770951151848
1772614944193902600,4.805902587890625,-0.026765858754515648,0.0036317193880677223,-0.030751917511224747
1772614944203969500,4.815969482421875,-0.02275354042649269,0.00023246044293045998,-0.031391341239213943
1772614944214037500,4.82603759765625,-0.01876181736588478,-0.006674675270915031,-0.02092737704515457
1772614944224104400,4.8361044921875,-0.007991461083292961,-0.016247142106294632,-0.0046834261156618595
1772614944234172700,4.846172607421875,0.0029100198298692703,-0.02107110247015953,0.01658901758491993
1772614944244240600,4.85624072265625,0.009060590527951717,-0.020423421636223793,0.031492866575717926
1772614944254307600,4.8663076171875,0.006860953290015459,-0.017692897468805313,0.04097875580191612
1772614944264375600,4.87637548828125,0.0008925426518544555,-0.008429888635873795,0.0384916290640831
1772614944274442500,4.8864423828125,-0.005758902058005333,-0.0017593302763998508,0.029428105801343918
1772614944284510700,4.8965107421875,-0.012862352654337883,-0.0019231145270168781,0.009271706454455853
1772614944294577700,4.90657763671875,-0.025353142991662025,-0.002723050070926547,-0.010921563021838665
1772614944304645600,4.916645751953125,-0.023888669908046722,-0.003475126577541232,-0.02896394580602646
1772614944314712600,4.926712646484375,-0.012761259451508522,-0.004665828309953213,-0.039990831166505814
1772614944324780500,4.936780517578125,0.003672308288514614,-0.007039770483970642,-0.04869457334280014
1772614944334848500,4.9468486328125,0.019678032025694847,-0.017791863530874252,-0.04855984449386597
1772614944344915500,4.95691552734375,0.03216692432761192,-0.026243938133120537,-0.03997381031513214
1772614944354983700,4.966983642578125,0.031087329611182213,-0.02629569172859192,-0.026158712804317474
1772614944365050600,4.977050537109375,0.024473369121551514,-0.022482844069600105,-0.013561959378421307
1772614944375118600,4.98711865234375,0.007993814535439014,-0.02184147760272026,0.0008944941218942404
1772614944385185500,4.997185546875,-0.006540919188410044,-0.014818456955254078,0.008076506666839123
1772614944395253500,5.00725341796875,-0.011772735975682735,-0.009464362636208534,0.008252165280282497
1772614944405320400,5.017320556640625,-0.00622989796102047,-0.007664066273719072,0.0013766821939498186
1772614944415388700,5.027388671875,0.005884940270334482,-0.0031124309170991182,-0.004784626420587301
1772614944425455600,5.03745556640625,0.012817148119211197,0.0035630485508590937,-0.007711173966526985
1772614944435523600,5.047523681640625,0.010729294270277023,0.002152777276933193,-0.006417927797883749
1772614944445591600,5.057591552734375,0.005191251635551453,0.0032015300821512938,-0.00112489506136626
1772614944455658500,5.067658447265625,0.0006992146372795105,0.007707763463258743,0.006042400375008583
1772614944465726500,5.0777265625,-0.003120024688541889,0.00699989590793848,0.01535520888864994
1772614944475793700,5.087793701171875,-0.004106068983674049,0.006856236606836319,0.025495698675513268
1772614944485861600,5.097861572265625,0.0006668483838438988,0.010313020087778568,0.0308087058365345
1772614944495928600,5.107928466796875,0.009420358575880527,0.008905882015824318,0.03431038185954094
1772614944505996500,5.11799658203125,0.012739988975226879,-0.00028814910911023617,0.03371649608016014
1772614944516063500,5.1280634765625,0.01014731079339981,-0.0054093701764941216,0.02202802523970604
1772614944526131500,5.13813134765625,0.00018655613530427217,-0.0042706020176410675,0.010719976387917995
1772614944536198700,5.14819873046875,-0.008415554650127888,-0.00040801730938255787,-0.008123345673084259
1772614944546266600,5.1582666015625,-0.014999154955148697,0.003521210514008999,-0.024512173607945442
1772614944556334800,5.1683349609375,-0.00799598265439272,0.009425591677427292,-0.03329956531524658
1772614944566401800,5.17840185546875,-0.002677649725228548,0.008932906202971935,-0.031771980226039886
1772614944576469800,5.1884697265625,0.0012286747805774212,0.00018442212603986263,-0.01926311105489731
1772614944586536700,5.19853662109375,0.005516896955668926,-0.003273958805948496,0.00333967013284564
1772614944596604700,5.208604736328125,0.0034146741963922977,-0.005128343123942614,0.017901847139000893
1772614944606671600,5.218671630859375,-0.0001811254769563675,-0.002037478145211935,0.031221648678183556
1772614944616739800,5.22873974609375,-0.005634911824017763,-0.003398289205506444,0.03254137188196182
1772614944626806800,5.238806884765625,-0.011185206472873688,0.0021781036630272865,0.022758513689041138
1772614944636874800,5.248874755859375,-0.007875707931816578,0.00792616792023182,0.008008863776922226
1772614944646942700,5.258942626953125,0.0005822257371619344,0.013068731874227524,-0.007551719434559345
1772614944657009700,5.269009765625,0.003182844026014209,0.012977968901395798,-0.01194123923778534
1772614944667078000,5.279077880859375,0.004576742649078369,0.011419752612709999,-0.00642556743696332
1772614944677144800,5.289144775390625,0.0066395103931427,0.008015677332878113,0.0013493457809090614
1772614944687212800,5.299212890625,0.009417986497282982,0.0032406290993094444,0.010717547498643398
1772614944697279700,5.30927978515625,0.0028402721509337425,0.006066571921110153,0.008871769532561302
1772614944707347700,5.31934765625,-0.0014652605168521404,0.0065254345536231995,0.011077133938670158
1772614944717414700,5.32941455078125,-0.0007339564617723227,0.00409343559294939,0.004975032992660999
1772614944727481600,5.339481689453125,-0.0008071933989413083,0.005130470730364323,-0.00363310263492167
1772614944737549600,5.349549560546875,0.007910729385912418,0.010056658647954464,-0.014566429890692234
1772614944747617800,5.35961767578125,0.012477784417569637,0.008224403485655785,-0.01733878068625927
1772614944757684700,5.369684814453125,0.01975698582828045,0.0008778460323810577,-0.00938850175589323
1772614944767752700,5.379752685546875,0.022988731041550636,-0.006884469650685787,0.002286796225234866
1772614944777819600,5.389819580078125,0.01733461581170559,-0.006695600692182779,0.008248716592788696
1772614944787887600,5.3998876953125,0.013779295608401299,-0.0023290817625820637,0.013709794729948044
1772614944797954600,5.40995458984375,0.009022286161780357,0.0052353618666529655,0.013374963775277138
1772614944808022800,5.420022705078125,0.006687759421765804,0.014072529040277004,0.006012388505041599
1772614944818089700,5.43008984375,0.003798987250775099,0.016758808866143227,-0.0017399759963154793
1772614944828157700,5.44015771484375,-0.0016961792716756463,0.015767047181725502,-0.009765678085386753
1772614944838224600,5.450224609375,-0.004474543035030365,0.016713319346308708,-0.013241661712527275
1772614944848292600,5.460292724609375,-0.0012001866707578301,0.01281764730811119,-0.011385438963770866
1772614944858360800,5.47036083984375,-0.0012259776704013348,0.006177371367812157,-0.008272834122180939
1772614944868427800,5.480427734375,-0.006912625394761562,-0.004447575658559799,0.003417377360165119
1772614944878495700,5.490495849609375,-0.010148532688617706,-0.004825947806239128,0.0076292939484119415
1772614944888562700,5.500562744140625,-0.003640832146629691,0.00041249021887779236,0.011323364451527596
1772614944898630700,5.510630615234375,0.002854825695976615,0.008086109533905983,0.00726767722517252
1772614944908697600,5.520697509765625,0.008008575066924095,0.0035672583617269993,-0.0025881491601467133
1772614944918765600,5.530765625,0.006733795627951622,-0.008689433336257935,-0.00710671953856945
1772614944928832800,5.540832763671875,0.0007131875026971102,-0.011809060350060463,-0.010707045905292034
1772614944938900700,5.550900634765625,-0.007119789253920317,-0.0084118926897645,-0.015506192110478878
1772614944948967700,5.5609677734375,-0.007887045852839947,-0.0009294750634580851,-0.017129920423030853
1772614944959035600,5.57103564453125,-0.007343880832195282,0.001479061204008758,-0.016619306057691574
1772614944969103600,5.581103515625,-0.0015970454551279545,-0.0038600440602749586,-0.010256748646497726
1772614944979170600,5.591170654296875,-0.002126848790794611,-0.004583954811096191,0.00011240947060286999
1772614944989238800,5.60123876953125,-0.0016746441833674908,-0.004377559758722782,0.007688303478062153
1772614944999305700,5.6113056640625,-0.0016775783151388168,-0.005639225244522095,0.018194148316979408
1772614945009373700,5.621373779296875,0.0010244649602100253,-0.009616123512387276,0.026599084958434105
1772614945019440600,5.631440673828125,-0.0008775600581429899,-0.01203521341085434,0.02821408584713936
1772614945029508600,5.641508544921875,-0.0030632163397967815,-0.014701304025948048,0.01630362868309021
1772614945039575600,5.651575439453125,-0.008604561910033226,-0.010260671377182007,-0.0003604853991419077
1772614945049643800,5.661643798828125,-0.010285548865795135,-0.007441982161253691,-0.023404818028211594
1772614945059711700,5.671711669921875,-0.007268678396940231,0.007431556470692158,-0.03424052149057388
1772614945069778700,5.68177880859375,-0.003398040309548378,0.005392906256020069,-0.0371076799929142
1772614945079846700,5.6918466796875,-0.0010253830114379525,-0.008831392042338848,-0.020373480394482613
1772614945089913600,5.70191357421875,0.0052998908795416355,-0.0201847143471241,-0.00456202682107687
1772614945099981600,5.711981689453125,0.022603139281272888,-0.028887581080198288,0.010377325117588043
1772614945110048800,5.722048828125,0.03352290019392967,-0.03455851599574089,0.017232300713658333
1772614945120116700,5.73211669921875,0.03410957381129265,-0.03234725445508957,0.011477688327431679
1772614945130183700,5.74218359375,0.027046075090765953,-0.03060821257531643,-0.0006439562421292067
1772614945140252700,5.752252685546875,0.011380544863641262,-0.02481367066502571,-0.015895934775471687
1772614945150321000,5.76232080078125,-0.002852453151717782,-0.02383895218372345,-0.02735072374343872
1772614945160387800,5.772387939453125,-0.013583418913185596,-0.017536137253046036,-0.033558931201696396
1772614945170455800,5.782455810546875,-0.02097049355506897,-0.018508989363908768,-0.039204299449920654
1772614945180523500,5.7925234375,-0.026798555627465248,-0.01256667822599411,-0.033377304673194885
1772614945190590700,5.8025908203125,-0.021533751860260963,-0.005656308960169554,-0.023865025490522385
1772614945200658400,5.812658447265625,-0.015392160043120384,-0.002618198748677969,-0.005272952374070883
1772614945210725600,5.8227255859375,-0.011313796043395996,-0.008098451420664787,0.01670105569064617
1772614945220793600,5.832793701171875,-0.004931641276925802,-0.014271557331085205,0.037220317870378494
1772614945230860800,5.84286083984375,-0.005795038305222988,-0.024397695437073708,0.05114279314875603
1772614945240928800,5.8529287109375,-0.013897289521992207,-0.01894691213965416,0.04104591906070709
1772614945250995700,5.86299560546875,-0.017158064991235733,-0.006627928465604782,0.0208013653755188
1772614945261063700,5.873063720703125,-0.02028847672045231,0.005689861252903938,-0.008028860203921795
1772614945271130600,5.883130615234375,-0.020209114998579025,0.013172544538974762,-0.030555473640561104
1772614945281198800,5.89319873046875,-0.013152660802006721,0.008885235525667667,-0.04534824192523956
1772614945291266600,5.9032666015625,-0.008564567193388939,0.005038033239543438,-0.040014997124671936
1772614945301333800,5.913333740234375,-0.0015022305306047201,0.00007996289059519768,-0.01730608008801937
1772614945311401700,5.923401611328125,0.0014626666670665145,-0.015170895494520664,0.009617147035896778
1772614945321468700,5.93346875,-0.00215213093906641,-0.022928379476070404,0.034597739577293396
1772614945331537000,5.943536865234375,-0.006389752961695194,-0.02019943855702877,0.0461883470416069
1772614945341603800,5.953603759765625,-0.013752871192991734,-0.0034035148564726114,0.03154522180557251
1772614945351671800,5.963671875,-0.009665451943874359,0.008725053630769253,0.002184403594583273
1772614945361738800,5.97373876953125,-0.0009355756337754428,0.011395328678190708,-0.014874893240630627
1772614945371806700,5.983806640625,0.0021451690699905157,0.007993939332664013,-0.030399523675441742
1772614945381874700,5.993874755859375,0.003037493908777833,0.0011447579599916935,-0.03445085138082504
1772614945391941600,6.003941650390625,0.006668980233371258,-0.002465689554810524,-0.02214944362640381
1772614945402009600,6.014009521484375,0.004039641469717026,-0.002702977042645216,-0.011825167573988438
1772614945412076800,6.024076904296875,-0.0034321234561502934,0.0019748653285205364,0.0008139281999319792
1772614945422144800,6.034144775390625,-0.009784827940165997,0.008541155606508255,0.001806754618883133
1772614945432211700,6.044211669921875,-0.008748858235776424,0.013316735625267029,0.0009582715574651957
1772614945442279700,6.05427978515625,-0.014319408684968948,0.011989188380539417,-0.006861891597509384
1772614945452346600,6.0643466796875,-0.013131905347108841,0.004564827773720026,-0.008387616835534573
1772614945462414800,6.074414794921875,-0.008024483919143677,-0.007286136969923973,-0.012291810475289822
1772614945472481800,6.084481689453125,0.0006984339561313391,-0.01676991954445839,-0.012301664799451828
1772614945482549800,6.0945498046875,0.0028584646061062813,-0.016058070585131645,-0.007079428993165493
1772614945492617700,6.10461767578125,0.0012395288795232773,-0.00988885760307312,-0.002725693630054593
1772614945502684700,6.1146845703125,0.005295256618410349,-0.007564982399344444,-0.004316133446991444
1772614945512753000,6.1247529296875,0.006124565377831459,-0.004300746135413647,-0.008947370573878288
1772614945522819800,6.13481982421875,0.006313099060207605,-0.009877101518213749,-0.008541827090084553
1772614945532886800,6.14488671875,0.0062470524571835995,-0.011216672137379646,-0.01709270477294922
1772614945542953700,6.15495361328125,-0.002895253710448742,-0.013727754354476929,-0.01817052811384201
1772614945553021700,6.165021728515625,-0.006925947964191437,-0.0030239762272685766,-0.02333572879433632
1772614945563089000,6.1750888671875,-0.005837739445269108,0.0036566134076565504,-0.028190236538648605
1772614945573156900,6.185156982421875,-0.009297185577452183,0.008936330676078796,-0.01991260051727295
1772614945583224800,6.195224853515625,-0.006312048062682152,0.010874845087528229,-0.012794502079486847
1772614945593291800,6.205291748046875,-0.0009274026961065829,0.010626105591654778,0.006167204584926367
1772614945603359700,6.21535986328125,0.004096935503184795,0.007043051533401012,0.024710051715373993
1772614945613426700,6.2254267578125,0.0005450773751363158,0.008346669375896454,0.03444842994213104
1772614945623495000,6.235494873046875,-0.012402507476508617,-0.0005580796860158443,0.03973127529025078
1772614945633561900,6.245561767578125,-0.032502181828022,0.0013367594219744205,0.040201589465141296
1772614945643629800,6.2556298828125,-0.04014507308602333,0.008837045170366764,0.03449941426515579
1772614945653696800,6.26569677734375,-0.0335894338786602,0.007042074576020241,0.02171623706817627
1772614945663764700,6.2757646484375,-0.0232345312833786,-0.000907195033505559,0.008269139565527439
1772614945673833000,6.2858330078125,-0.020687216892838478,0.00032691401429474354,-0.0035614212974905968
1772614945683900000,6.29589990234375,-0.021330559626221657,0.0034449188970029354,-0.011208676733076572
1772614945693968000,6.3059677734375,-0.015103556215763092,-0.005543516017496586,-0.01682102307677269
1772614945704034800,6.316034912109375,-0.011568618938326836,-0.019891943782567978,-0.017880454659461975
1772614945714102800,6.326102783203125,-0.006547228433191776,-0.03458353877067566,-0.007962309755384922
1772614945724169700,6.336169677734375,-0.006535013671964407,-0.03927328810095787,0.002786896424368024
1772614945734237700,6.34623779296875,-0.004224721342325211,-0.042970556765794754,0.008646383881568909
1772614945744305000,6.356304931640625,-0.0079901572316885,-0.03716393932700157,0.010515442118048668
1772614945754372900,6.366372802734375,-0.009936395101249218,-0.02066219225525856,0.002965914085507393
1772614945764440800,6.37644091796875,-0.0025943578220903873,-0.01703784614801407,-0.0178013164550066
1772614945774507800,6.3865078125,0.0006011691875755787,-0.022201983258128166,-0.03776836767792702
1772614945784575700,6.39657568359375,-0.006037036422640085,-0.01785394176840782,-0.04766334593296051
1772614945794642700,6.406642578125,-0.011664561927318573,-0.013568914495408535,-0.04499059170484543
1772614945804711000,6.4167109375,-0.009992293082177639,-0.02754080854356289,-0.02651761844754219
1772614945814777900,6.42677783203125,-0.006040162406861782,-0.02489122934639454,-0.007278144359588623
1772614945824845800,6.436845703125,-0.001600010204128921,-0.02034653350710869,0.013647407293319702
1772614945834912800,6.446912841796875,-0.004171025939285755,-0.011019077152013779,0.026779986917972565
1772614945844980700,6.456980712890625,-0.002918836660683155,-0.009407013654708862,0.03418819606304169
1772614945855047700,6.467047607421875,-0.0033681117929518223,-0.00516752852126956,0.02945602685213089
1772614945865116000,6.477115966796875,-0.0004324266919866204,-0.008778140880167484,0.020475119352340698
1772614945875183900,6.487183837890625,0.0035564559511840343,-0.015152418054640293,0.00872498657554388
1772614945885250800,6.497250732421875,-0.0018208749825134873,-0.017656968906521797,-0.008455359376966953
1772614945895318800,6.50731884765625,-0.015744147822260857,-0.010278414003551006,-0.017478149384260178
1772614945905385700,6.5173857421875,-0.020977836102247238,-0.0019452918786555529,-0.025570927187800407
1772614945915453700,6.52745361328125,-0.021962139755487442,0.004360274411737919,-0.014478328637778759
1772614945925521000,6.53752099609375,-0.017887402325868607,0.0042702071368694305,0.0027664138469845057
1772614945935588900,6.5475888671875,-0.008952232077717781,0.002829170785844326,0.017052408307790756
1772614945945655800,6.55765576171875,0.0016340437578037381,0.00009033712558448315,0.025545751675963402
1772614945955723800,6.567723876953125,0.010993456467986107,-0.007877041585743427,0.03165850415825844
1772614945965791700,6.577791748046875,0.017396219074726105,-0.020354585722088814,0.028813716024160385
1772614945975858700,6.587858642578125,0.017320584505796432,-0.021992430090904236,0.01880049705505371
1772614945985927000,6.597927001953125,0.014293195679783821,-0.020571431145071983,0.004261838272213936
1772614945995993900,6.607993896484375,0.011410323902964592,-0.016011832281947136,-0.01196267083287239
1772614946006061800,6.618061767578125,0.011369450949132442,-0.01176303531974554,-0.02094501629471779
1772614946016128800,6.628128662109375,0.012660285457968712,-0.0015338335651904345,-0.02888523042201996
1772614946026196700,6.63819677734375,0.013197370804846287,0.010943491011857986,-0.030499856919050217
1772614946036263700,6.648263671875,0.011208522133529186,0.006759664975106716,-0.01793932355940342
1772614946046332000,6.658331787109375,0.0051247915253043175,-0.005870501510798931,-0.005323986988514662
1772614946056398800,6.66839892578125,-0.00384153937920928,-0.00511389784514904,0.0077271005138754845
1772614946066466800,6.678466796875,-0.008568485267460346,0.004053703974932432,0.015317782759666443
1772614946076534800,6.68853466796875,-0.00734103424474597,0.014532176777720451,0.014673031866550446
1772614946086601700,6.698601806640625,-0.006688049528747797,0.018021095544099808,0.01693926751613617
1772614946096669700,6.708669677734375,-0.0014054032508283854,0.00985131785273552,0.029370903968811035
1772614946106737000,6.71873681640625,0.009304219856858253,0.007337990216910839,0.033417049795389175
1772614946116804900,6.728804931640625,0.01759650558233261,0.014153019525110722,0.03249559551477432
1772614946126871800,6.738871826171875,0.017578085884451866,0.013462943024933338,0.03741934150457382
1772614946136939800,6.748939697265625,0.013174550607800484,0.010389655828475952,0.04092193394899368
1772614946147006700,6.7590068359375,0.007390507962554693,0.015286650508642197,0.03499641269445419
1772614946157074700,6.76907470703125,-0.0012162962229922414,0.020587673410773277,0.02927115000784397
1772614946167143000,6.779142822265625,-0.0045094965025782585,0.024349527433514595,0.025549663230776787
1772614946177209900,6.7892099609375,-0.00674522016197443,0.019655173644423485,0.02171071618795395
1772614946187277800,6.79927783203125,-0.0035888052079826593,0.01824335753917694,0.014011095277965069
1772614946197344800,6.8093447265625,0.002315955702215433,0.01865161955356598,0.003976304084062576
1772614946207412700,6.819412841796875,0.008260563015937805,0.015388118103146553,-0.006863686256110668
1772614946217479700,6.829479736328125,0.008318619802594185,0.010547023266553879,-0.012766582891345024
1772614946227548000,6.8395478515625,0.0026987530291080475,0.007033908739686012,-0.015614316798746586
1772614946237614800,6.84961474609375,0.001863585552200675,0.00432547414675355,-0.007536682765930891
1772614946247682800,6.859682861328125,0.001528546679764986,-0.0010414309799671173,-0.0016553547466173768
1772614946257750800,6.869750732421875,-0.0062148598954081535,0.002648112364113331,-0.00019274663645774126
1772614946267817700,6.879817626953125,-0.016138235107064247,0.0011441633105278015,0.0027610326651483774
1772614946277885700,6.8898857421875,-0.01957664266228676,0.0019790641963481903,-0.0025682190898805857
1772614946287953000,6.899952880859375,-0.02133920043706894,0.003444359637796879,-0.009993921965360641
1772614946298020900,6.910020751953125,-0.013331874273717403,-0.0024763799738138914,-0.016865676268935204
1772614946308087800,6.920087890625,-0.012028793804347515,0.0024311677552759647,-0.02090628445148468
1772614946318155800,6.93015576171875,-0.007617534138262272,0.001679357374086976,-0.022578749805688858
1772614946328222700,6.94022265625,-0.0018464595777913928,-0.007719345390796661,-0.010790206491947174
1772614946338290700,6.950290771484375,-0.004116271622478962,-0.01571468822658062,0.009184032678604126
1772614946348357600,6.960357666015625,-0.011833938769996166,-0.012719898484647274,0.022458486258983612
1772614946358425900,6.97042578125,-0.021657807752490044,-0.0035868543200194836,0.023683007806539536
1772614946368493800,6.980493896484375,-0.031730711460113525,0.00016692164354026318,0.020960558205842972
1772614946378560800,6.990560791015625,-0.03379412740468979,0.00660697789862752,0.022367507219314575
1772614946388628700,7.000628662109375,-0.024059372022747993,0.006855640560388565,0.016793427988886833
1772614946398695700,7.01069580078125,-0.007452963851392269,0.0017828514100983739,0.010949652642011642
1772614946408764000,7.020763916015625,0.005649779923260212,-0.0026398443151265383,0.010228082537651062
1772614946418830800,7.030830810546875,0.006886552087962627,-0.005448946729302406,0.009308227337896824
1772614946428898800,7.04089892578125,0.00960228219628334,-0.0122816301882267,0.011829894967377186
1772614946438965800,7.0509658203125,0.004704195540398359,-0.011269895359873772,0.008732372894883156
1772614946449033700,7.06103369140625,0.0036835488863289356,-0.013772619888186455,0.0043333894573152065
1772614946459101700,7.071101806640625,0.005193294957280159,-0.012490840628743172,0.0004542290698736906
1772614946469169000,7.0811689453125,0.004238491412252188,-0.010456198826432228,0.00263007590547204
1772614946479236900,7.09123681640625,0.006230536382645369,-0.01158324908465147,0.00045480625703930855
1772614946489303800,7.1013037109375,0.004363357089459896,-0.008634256199002266,-0.0001136227510869503
1772614946499371800,7.111371826171875,0.00462701078504324,-0.009687002748250961,-0.0016513318987563252
1772614946509438700,7.121438720703125,0.002480236114934087,-0.014232486486434937,-0.0023741137702018023
1772614946519506700,7.131506591796875,-0.002466052770614624,-0.01371210440993309,-0.011302627623081207
1772614946529573600,7.14157373046875,-0.006377382669597864,-0.00784846767783165,-0.010355710983276367
1772614946539642400,7.151642333984375,0.0020754910074174404,-0.01188688538968563,-0.011848146095871925
1772614946549710300,7.16171044921875,0.006869754754006863,-0.012132644653320312,-0.009539282880723476
1772614946559777300,7.17177734375,0.014250173233449459,-0.012946773320436478,-0.0067956941202282906
1772614946569845500,7.181845458984375,0.018012473359704018,-0.020612912252545357,-0.002739150309935212
1772614946579912400,7.191912353515625,0.022986194118857384,-0.02045232430100441,0.01358709204941988
1772614946589980400,7.20198046875,0.035922057926654816,-0.04225648567080498,0.06764187663793564
1772614946600047400,7.21204736328125,0.039479777216911316,-0.08907778561115265,0.07484519481658936
1772614946610115300,7.222115234375,0.03478400409221649,-0.04742004722356796,0.03899651765823364
1772614946620182300,7.232182373046875,0.03623489290475845,-0.024517929181456566,-0.0024396064691245556
1772614946630250500,7.24225048828125,0.027936162427067757,-0.011919466778635979,-0.041970934718847275
1772614946640318500,7.252318359375,0.016853684559464455,-0.020430929958820343,-0.07859259098768234
1772614946650385400,7.262385498046875,0.018346134573221207,-0.015251776203513145,-0.1048007681965828
1772614946660453400,7.272453369140625,0.023140355944633484,-0.022639917209744453,-0.1083020269870758
1772614946670520300,7.282520263671875,0.019156992435455322,-0.017453528940677643,-0.09639391303062439
1772614946680588500,7.292588623046875,0.008772528730332851,-0.019441578537225723,-0.08197689056396484
1772614946690655500,7.302655517578125,-0.010174128226935863,-0.0012047956697642803,-0.06715723127126694
1772614946700723500,7.312723388671875,-0.019427014514803886,0.0033593298867344856,-0.04912710189819336
1772614946710790400,7.322790283203125,-0.016665540635585785,0.005208147224038839,-0.022670824080705643
1772614946720858400,7.3328583984375,-0.013607166707515717,0.007230285555124283,0.009185642935335636
