time,seconds_elapsed,z,y,x
1772698476891485200,0.070485107421875,0.3527238891124725,0.2698100435823202,0.03345927507467568
1772698476901442000,0.080442138671875,0.37115269525051114,0.32955110331773757,-0.04396116067096591
1772698476911399200,0.090399169921875,0.3636696460187435,0.2905634932756424,-0.04041881188899278
1772698476921356300,0.100356201171875,0.28214345545470715,0.17678923005759714,-0.022382877526059747
1772698476931313200,0.110313232421875,0.22903264578031374,0.059793082183599466,-0.016622341237962246
1772698476941270000,0.12027001953125,0.15301204862892626,-0.01741992135643959,-0.052340135829150675
1772698476951227100,0.13022705078125,0.1061509652653709,0.024462825605273245,-0.10708630988672375
1772698476961184000,0.14018408203125,0.10989943107869475,0.10841887366473674,-0.13174078560657798
1772698476971141000,0.15014111328125,0.08326627569701522,0.17122516618967054,-0.08078231339417398
1772698476981099000,0.16009912109375,0.058366848772764206,0.27095512196421623,0.003615048692002892
1772698476991056100,0.17005615234375,0.051563032243121414,0.3277951995611191,-0.012029898881167173
1772698477001013000,0.180012939453125,0.04282148911654949,0.3525660682022571,-0.07190181845463813
1772698477010970000,0.18997021484375,-0.012395937448274344,0.37985447262227534,-0.02882277438044548
1772698477020927200,0.19992724609375,-0.058606502747535705,0.3412660910308361,0.022166092970222234
1772698477030884000,0.209884033203125,-0.11549100400805473,0.19434300692677497,0.026675314022973177
1772698477040841200,0.21984130859375,-0.12400105820000171,0.06782675103545188,-0.00919518691189587
1772698477050798000,0.229798095703125,-0.11700491570234298,-0.08852408662736415,-0.04930683254785836
1772698477060755200,0.239755126953125,-0.06870354300313629,-0.17950901041030884,-0.07822700288817286
1772698477070712300,0.24971240234375,-0.003710549522307701,-0.15871113705337048,-0.1532269334886223
1772698477080670500,0.25967041015625,0.0011211084178416057,-0.07421440624594688,-0.10885324649401008
1772698477090627000,0.269626953125,-0.02698503984255949,-0.03447042487859726,0.01784896042346954
1772698477100584200,0.279584228515625,-0.03265022371411323,0.01421440331339836,0.12372574838995933
1772698477110541300,0.289541259765625,-0.042834933120012283,-0.02179039152562618,0.28080957650244237
1772698477120498200,0.299498291015625,-0.1144119765996933,-0.12175415605604648,0.26301285772286354
1772698477130455300,0.309455322265625,-0.14680384163856505,-0.08859481377601623,0.14926796672977508
1772698477140412400,0.319412353515625,-0.13230009998977182,0.04881576109528541,0.07948635529950261
1772698477150369300,0.329369384765625,-0.1324193424552679,0.08521452368795872,0.1375345665771514
1772698477160326100,0.339326171875,-0.15705752462744713,0.006398176604509353,0.18661847708933055
1772698477170283300,0.349283203125,-0.1851613370835781,-0.03364858710169792,0.06876542012505232
1772698477180241400,0.359241455078125,-0.14325287115871904,-0.020903087297081947,-0.07404679459407926
1772698477190198300,0.3691982421875,-0.07201485037505627,0.03507189790308475,-0.14104483972042797
1772698477200155100,0.379155029296875,-0.07390226699027698,-0.016821955463290215,-0.09725625913739204
1772698477210112300,0.3891123046875,-0.08283376603126526,-0.10559797102510929,-0.05090111600197851
1772698477220069000,0.399069091796875,-0.04889758959326427,-0.09492577036321162,-0.002459229720383882
1772698477230026200,0.409026123046875,-0.0013303718209266662,-0.019915829825401306,0.011043810453265905
1772698477239983400,0.4189833984375,-0.024479187651607205,0.05676116714179515,0.1590583430558443
1772698477249940200,0.428940185546875,-0.057417000702023505,0.0730851099550724,0.21177381500340997
1772698477259897300,0.4388974609375,-0.09196692055761814,0.02456687050163746,0.13953662711456416
1772698477269854200,0.448854248046875,-0.025637723736697808,0.006292962664365768,0.01733282759487629
1772698477279812400,0.458812255859375,0.004983039976423606,0.04233692046999931,-0.07648622363545
1772698477289769200,0.468769287109375,0.06871053899950347,0.11469254710674286,-0.07619586238674819
1772698477299726300,0.478726318359375,0.19123627308309077,0.09893266791701316,-0.033696956288069485
1772698477309683200,0.48868310546875,0.2364519638597965,0.060330842322111125,-0.050954745885357255
1772698477319640000,0.49864013671875,0.24380466471016404,0.1140501575499773,0.06935089186280965
1772698477329597200,0.50859716796875,0.2812263406097889,0.17427870854139327,0.11368110504187642
1772698477339554300,0.51855419921875,0.34277181941866874,0.10722118831276893,-0.05102905323058367
1772698477349511200,0.52851123046875,0.425361255300045,-0.14469079500734805,-0.3341976139493286
1772698477359468300,0.53846826171875,0.5331640428930521,-0.3050637277930975,-0.2926834811042994
1772698477369426200,0.54842626953125,0.4933072488009929,-0.5223147320985794,-0.08880977170094848
1772698477379383300,0.55838330078125,0.5795066918730736,-0.635267742061615,-0.2057974440075457
1772698477389340200,0.568340087890625,0.6145873576045036,-0.5952998888105153,-0.2096003434218466
1772698477399297300,0.57829736328125,0.5733598596811295,-0.4658376425951719,-0.24033808457814157
1772698477409254400,0.58825439453125,0.4904471831947565,-0.21521277647614478,-0.16403320885896683
1772698477419211300,0.598211181640625,0.3261725667953491,0.0788362208276987,0.08558174956515431
1772698477429168000,0.608168212890625,0.21635493224859237,0.3432452821493149,0.26406346275433895
1772698477439125200,0.618125244140625,0.08894085073471068,0.33705051916241646,0.1326198334634304
1772698477449082000,0.62808203125,0.1719856291681528,0.4668307452857494,-0.142098075100407
1772698477459040300,0.638040283203125,0.17929565992057322,0.6741571524262427,-0.21415544944293796
1772698477468997000,0.6479970703125,0.10096740688132122,0.6279927826225757,-0.14097104383185505
1772698477478954200,0.657954345703125,-0.009503723138105123,0.42005613462924957,-0.04589563586488366
1772698477488911000,0.6679111328125,-0.08454405881417915,0.11671148571372031,-0.11952197655718773
1772698477498868200,0.6778681640625,-0.024091654205322263,-0.0779997700035572,-0.21195461493041365
1772698477508825300,0.687825439453125,-0.03592356456266716,-0.2142225963950157,-0.18636738840509204
1772698477518782200,0.6977822265625,-0.03848201687382534,-0.22202830170989035,-0.19514687065556643
1772698477528739300,0.7077392578125,0.006037508332263678,-0.017304186022281644,-0.27203528188373893
1772698477538696200,0.7176962890625,-0.007315875971317291,0.07251753920018672,-0.4268741440810263
1772698477548653300,0.7276533203125,-0.02184829572532326,0.19600071100592611,-0.5021882186645642
1772698477558611200,0.737611083984375,0.02071194863915443,0.5067693724423646,-0.44983840169161554
1772698477568568300,0.747568359375,0.047121232137084,0.8520850311249494,-0.2713901889132336
1772698477578525200,0.757525146484375,0.09255319601297378,1.0247755936920642,-0.10085877714138478
1772698477588482000,0.76748193359375,-0.013304887253046035,0.8945528844982386,0.3335054669667035
1772698477598439200,0.777439208984375,0.42052316761910913,0.7553285382032394,0.27147819599024947
1772698477608396300,0.787396240234375,0.5098848741143942,0.5609668265759945,0.21390560286771504
1772698477618353400,0.797353515625,-1.1521925978153944,0.1563128437399864,0.6255763691306114
1772698477628310300,0.807310302734375,-3.957576181271672,-0.241758838096261,1.037913673010841
1772698477638267400,0.817267333984375,-2.688493818566203,-0.46983401875495906,0.8110987215463071
1772698477648224300,0.827224365234375,-0.9278478358566761,-0.3457183942645788,0.32813520863782614
1772698477658182100,0.83718212890625,0.4488952756226062,0.031124037060141562,0.03396680447170511
1772698477668139300,0.84713916015625,1.617070455467701,0.4703033898323774,-0.262115744486358
1772698477678096400,0.857096435546875,2.4624761549592016,0.8583961139678955,-0.5304172284029424
1772698477688053200,0.86705322265625,2.808316714298725,0.9512339721411466,-0.7601952674567699
1772698477698010000,0.877010009765625,2.54006325250864,0.7235632806301117,-0.893568111244589
1772698477707967200,0.88696728515625,1.7476549837112425,0.5684364318042994,-0.9126490976810455
1772698477717924400,0.89692431640625,0.8308055117309093,0.7135200255215167,-0.8802938383255153
1772698477727881200,0.906881103515625,0.19784316053483633,0.9062088355004787,-0.712143549536541
1772698477737838300,0.91683837890625,0.03924951238129288,0.9131237294554709,-0.34083040302731094
1772698477747796200,0.926796142578125,0.19962589749945325,0.9633709846585988,-0.005554309658892452
1772698477757753000,0.936753173828125,0.24909045962598172,0.7899263888537883,0.36616898855380714
1772698477767710200,0.946710205078125,-0.007582417953014373,0.3760223471134901,0.6386388989951461
1772698477777667300,0.956667236328125,-0.44112931779623027,0.31113398761749267,0.5800837245760485
1772698477787624400,0.96662451171875,-0.9044307199120522,0.4253536565154791,0.2367733778338879
1772698477797581300,0.976581298828125,-1.1177870548665523,0.5436258156746625,-0.18689988784659653
1772698477807538200,0.9865380859375,-0.8953075022578239,0.8958967003226279,-0.4294259474556893
1772698477817495300,0.996495361328125,-0.4401671947658062,1.0987485923975706,-0.5005983191246166
1772698477827452200,1.0064521484375,0.10332008922100067,1.2863427095860243,-0.4330938223134726
1772698477837409300,1.0164091796875,0.4157096298575401,1.5632342358618974,-0.25224874099381267
1772698477847367200,1.0263671875,0.3730336866915226,1.847769554889202,-0.1224201000183355
1772698477857324300,1.03632421875,0.1080301483417861,2.1594056468099354,-0.054447602102952075
1772698477867281200,1.04628125,-0.339003991317749,2.5255811381697653,-0.05513251562719233
1772698477877238300,1.05623828125,-0.892804579526186,2.7333833461284636,-0.06644189538119825
1772698477887195400,1.0661953125,-1.4640753579735755,2.8489368939787147,0.027407656018668784
1772698477897152300,1.07615234375,-1.9283260236382482,3.2077047394305467,0.09373873426942154
1772698477907109400,1.086109375,-2.0999229457497597,3.676460315299034,0.030519531828351317
1772698477917066200,1.096066162109375,-1.9767314503669737,3.904900822138786,-0.05643407234558835
1772698477927023000,1.106023193359375,-1.6750655483186243,4.00060459113717,-0.10055186661668121
1772698477936981200,1.115981201171875,-1.1377554916620254,4.0666608253687615,0.03710928548220545
1772698477946938400,1.1259384765625,-0.4825251580238342,3.8560032279789445,0.3698529377635568
1772698477956895200,1.135895263671875,-0.0033715222597122192,3.340572994697094,0.6720413293160498
1772698477966852000,1.14585205078125,0.24602986647896466,2.789669881495833,0.5808062666969374
1772698477976809200,1.155809326171875,0.312428192146495,2.1222470057606695,0.23642374241231007
1772698477986766300,1.165766357421875,0.5033868173319846,1.4288561605542898,-0.05021271361270919
1772698477996723200,1.17572314453125,0.9221638719361275,0.5692150149613618,-0.2690843231236562
1772698478006680300,1.185680419921875,1.3850737174510954,-0.6332616629362106,-0.48608431181013584
1772698478016637400,1.195637451171875,1.732922694003582,-2.0135136593192815,-0.6404018170144409
1772698478026594000,1.205593994140625,1.848018707344681,-3.533395660188794,-0.6796070883952081
1772698478036552200,1.21555224609375,1.693002187025547,-5.132946241056919,-0.909189458746463
1772698478046510000,1.225510009765625,1.1801146239638327,-6.808916629260778,-1.1548559718057512
1772698478056467000,1.235467041015625,0.5199041638255119,-8.408231647807359,-1.1388348113313316
1772698478066423800,1.245423828125,-0.08557517369389533,-10.007837758255004,-0.8548384214863181
1772698478076381000,1.255380859375,-0.21963526909351347,-10.997712718957661,-0.7412664028421044
1772698478086338000,1.265338134765625,0.18704583565592764,-11.576008281475305,-0.678229443366453
1772698478096295200,1.275295166015625,0.8183120139259844,-12.043303137141466,-0.5158889733674005
1772698478106252000,1.285251953125,1.378179866284132,-12.03363397604227,-0.11291002933783456
1772698478116209200,1.295209228515625,2.3139536728344856,-11.684612448579072,0.5541654759980738
1772698478126167000,1.3051669921875,3.5931717912375927,-11.283933214592933,0.8706462314710021
1772698478136124000,1.3151240234375,4.577907635486126,-11.251197650682926,0.8372284574504941
1772698478146081000,1.3250810546875,4.347766169947386,-12.037933719062805,0.7268334614071995
1772698478156038100,1.3350380859375,2.709381708294153,-12.940779215610027,0.7717916702914983
1772698478165995000,1.3449951171875,0.0658393766105175,-13.140126898956298,1.121710877246782
1772698478175952000,1.354951904296875,-1.7452736415326595,-12.316271352493763,1.4931678892061113
1772698478185909000,1.364908935546875,-2.021452051103115,-10.75910737645626,1.7212006920278071
1772698478195866000,1.3748662109375,-1.3031050438165663,-8.802573495465516,1.712958494991809
1772698478205823000,1.384822998046875,-0.43277299286127086,-6.517648202586174,1.6214526160746812
1772698478215780900,1.39478076171875,0.08553312465045601,-4.3954438669234515,1.4188468077152967
1772698478225738000,1.404738037109375,0.21270868470072746,-2.4883739818036554,1.0597301488257944
1772698478235694800,1.41469482421875,0.13457913257135076,-0.8084732684135436,0.8263337000790983
1772698478245652000,1.42465185546875,-0.05816692402018234,0.510935259950161,0.8229750373009592
1772698478255609000,1.434609130859375,-0.8246411438822746,1.0766197626978158,1.234453240133822
1772698478265566200,1.444566162109375,-1.9356734637916087,1.2301853535562752,1.746734946256876
1772698478275523000,1.454523193359375,-2.696440978178382,1.9274936644673346,1.6114257275789976
1772698478285480000,1.46447998046875,-2.6239801376014946,3.3087902014672754,1.0750894843906162
1772698478295437000,1.47443701171875,-1.6166747341483831,4.8331747744530436,0.1900800887852907
1772698478305394000,1.484393798828125,-0.2909194671064615,6.012838732039928,-0.6162769911918788
1772698478315352000,1.49435205078125,0.7916489748626947,6.792852798688411,-1.1046241333674638
1772698478325309000,1.504308837890625,1.344475165081024,7.3351470734983675,-1.1680407398104666
1772698478335266000,1.51426611328125,1.0982885736703871,7.8671075858205555,-0.9573646569158881
1772698478345223000,1.524222900390625,0.3963046721637249,8.490950847548246,-0.8417701194681226
1772698478355180000,1.534179931640625,-0.2200046869277954,8.999337007537484,-0.9141767456397414
1772698478365137200,1.54413720703125,-0.6042214464128017,9.493525130826233,-1.013680710638687
1772698478375094000,1.554093994140625,-0.38800913750529287,10.162538490623236,-1.0683999236240982
1772698478385051100,1.564051025390625,0.34326749398112294,10.950150172793865,-1.3207742637589572
1772698478395008000,1.574008056640625,1.1499731682002543,11.439495532226562,-1.4622612942889333
1772698478404964900,1.58396484375,1.72423552967906,11.585089413553476,-1.434883750280738
1772698478414923000,1.593923095703125,1.6787258243918417,11.33629000929594,-1.4050398161590099
1772698478424880000,1.603880126953125,0.966565396785736,10.831392860466242,-1.3716022414594888
1772698478434837000,1.6138369140625,-0.004323123896121979,10.314363375294208,-1.3139556697852908
1772698478444793900,1.6237939453125,-0.7292600309669971,9.959794735097885,-1.2894327845558524
1772698478454751000,1.6337509765625,-0.9275275178611277,9.86066099165082,-1.3530439637228846
1772698478464708000,1.6437080078125,-0.8202583987534046,9.794662625086307,-1.434903916285932
1772698478474665000,1.6536650390625,-0.6454512824237346,9.73482511923909,-1.3782428485177456
1772698478484622000,1.6636220703125,-0.5652922885596752,9.690396779447793,-1.161234201600775
1772698478494579200,1.6735791015625,-0.6400187359809875,9.656548870381712,-0.934973669148609
1772698478504535800,1.683535888671875,-0.8566098150730133,9.567367196628451,-0.8249715448804199
1772698478514494000,1.693493896484375,-1.1796645421087741,9.252800311952829,-0.8611661632031202
1772698478524451000,1.703451171875,-1.5649065529882906,8.89141673104465,-0.9787444948792458
1772698478534408200,1.713408203125,-1.8011188628733157,8.578072081640363,-1.0967772923246026
1772698478544365000,1.723364990234375,-1.697949580299854,8.462484631520509,-1.2453791232958435
1772698478554322000,1.733322021484375,-1.250025780057907,8.285694232419132,-1.3371531516298651
1772698478564279000,1.743279052734375,-0.8085550284128635,7.838281304308771,-1.4022911019727586
1772698478574236000,1.75323583984375,-0.8656360020935535,6.8967410431861875,-1.0985101805318147
1772698478584193000,1.763193115234375,-1.4382324761867522,5.561453393167257,-0.5328905231812968
1772698478594150100,1.773150146484375,-2.02353177998662,3.777921624910831,0.09056988584180362
1772698478604107000,1.78310693359375,-2.243281615370512,1.0388228237450121,0.39734950504153965
1772698478614065000,1.79306494140625,-2.389156067204475,-2.4695278270363805,0.5191256172010674
1772698478624022000,1.80302197265625,-2.4847592984378335,-5.5586693154066795,0.6308920111954212
1772698478633979100,1.812979248046875,-1.9290064071178434,-7.150335865026712,0.6710946230504662
1772698478643936000,1.82293603515625,-0.44905192748904227,-6.974928444716334,0.08336653946740552
1772698478653893000,1.83289306640625,2.119580270769447,-6.068904902654886,-0.47785333028789606
1772698478663850000,1.84285009765625,5.454017100799083,-6.256254689693451,-0.7111584840219467
1772698478673806800,1.852806884765625,7.169579494678974,-8.052441941383481,-0.459901603609696
1772698478683764000,1.862763916015625,6.521654515618086,-10.238338120234012,-0.3327525662401691
1772698478693721000,1.87272119140625,4.2844063351929185,-12.420987279987335,-0.26067469709888097
1772698478703679000,1.882678955078125,1.6084499266386032,-15.389293480712174,0.2698719298373908
1772698478713635800,1.8926357421875,-0.47450208363123236,-18.360709337890146,1.3388989723838864
1772698478723593000,1.902593017578125,-1.7328560585081576,-19.53008629474044,2.856532755935192
1772698478733550000,1.912550048828125,-1.615455859877914,-18.258229791146515,4.056240261380374
1772698478743507000,1.9225068359375,0.04888466161303222,-15.113248342132568,4.466128345477581
1772698478753464000,1.932464111328125,2.705734291702509,-11.686701529812812,4.200274053783715
1772698478763421200,1.942421142578125,4.977165312236547,-8.875039596739411,3.350947381456196
1772698478773377800,1.952377685546875,5.693557678323984,-7.395068750497698,2.2064240030944346
1772698478783335000,1.9623349609375,4.27664505354166,-6.840794699558615,0.8628381880685686
1772698478793292000,1.9722919921875,1.7195359736859797,-6.357791402629018,-0.39351504144519567
1772698478803250200,1.982250244140625,-0.47012145739421246,-5.401676088187098,-1.52338781703338
1772698478813206800,1.992206787109375,-1.57736622158885,-4.243547670581936,-2.4363550407528876
1772698478823164000,2.002163818359375,-1.6717945638239382,-2.8538287576735017,-2.8729052140653133
1772698478833121000,2.01212109375,-1.083479127073288,-1.0712550207942724,-2.9757299209848043
1772698478843078000,2.022077880859375,-0.4019068030197173,0.6317383988916874,-2.6270795649215577
1772698478853035000,2.032034912109375,0.2092120016913861,2.2233359749287365,-1.8446239503398536
1772698478862992100,2.0419921875,0.615508710233122,3.6119033797144886,-0.933354835775122
1772698478872949000,2.051948974609375,0.5334804153658449,4.612531789621711,0.008283113568276166
1772698478882905900,2.06190576171875,-0.005867576859146356,5.130545609655976,0.9481011540081351
1772698478892864000,2.071864013671875,-0.498836825877428,5.33279719775021,1.5130558081112802
1772698478902821000,2.081821044921875,-0.8231308123845607,5.31616228929162,1.6472383608467875
1772698478912778000,2.091778076171875,-0.9442308153808117,5.381354600170255,1.3443525616146623
1772698478922734800,2.10173486328125,-1.0125905042491852,5.591524121782183,0.7317629536986351
1772698478932692000,2.11169189453125,-1.1876000112831593,5.873394605514407,0.11530531784337944
1772698478942648800,2.12164892578125,-1.489445946073532,6.168131585082412,-0.33986152146253734
1772698478952606000,2.13160595703125,-1.7959481822371481,6.551846240264177,-0.3968126216858625
1772698478962563000,2.14156298828125,-1.9010700601831076,7.000014955177903,-0.26870679504815487
1772698478972520200,2.151520263671875,-1.7865630987763403,7.505056480914354,-0.10253357848580925
1772698478982477000,2.16147705078125,-1.59685052812919,7.938180186909436,-0.07518575376244262
1772698478992435000,2.17143505859375,-1.4825953495264053,8.181215036290883,-0.14550662316856905
1772698479002392000,2.18139208984375,-1.4303741639018057,8.28650145714879,-0.2858767419652082
1772698479012349000,2.191348876953125,-1.398165984866768,8.144470821261406,-0.4315727502260357
1772698479022306000,2.20130615234375,-1.4068134017027913,7.861222619435191,-0.43337768075615163
1772698479032263200,2.21126318359375,-1.5372854094825683,7.509262700432538,-0.3989881756266579
1772698479042220000,2.221219970703125,-1.7105166547976434,7.059037637510896,-0.2910650861222297
1772698479052176100,2.231176025390625,-1.5568831132695078,6.645359805741906,-0.20512064072452485
1772698479062133200,2.24113330078125,-1.0729740996718407,6.049127019995451,-0.25366927531622346
1772698479072090000,2.251090087890625,-0.6254290696144104,5.272588520503044,-0.3179656968010589
1772698479082047200,2.261047119140625,-0.5060334593832493,4.4198464867740865,-0.30761794232055545
1772698479092005400,2.27100537109375,-0.5481375940106809,3.254295810213685,-0.4828971331413835
1772698479101962200,2.280962158203125,-0.33602760585546493,1.9032155477792023,-0.9486462937355041
1772698479111919000,2.290919189453125,0.19732757569551468,0.2895136919617653,-1.399959882546216
1772698479121876200,2.300876220703125,0.552288868471235,-1.7667951529890298,-1.6934899705424904
1772698479131833300,2.310833251953125,0.6086378015503286,-3.761441030231118,-1.7102075888484716
1772698479141790200,2.320790283203125,0.6999252154111861,-5.7547945295751095,-1.4481490361757576
1772698479151747300,2.330747314453125,1.1106688934244215,-8.080299085602164,-1.1015921452604234
1772698479161704200,2.3407041015625,1.83113274673447,-10.556792659997939,-0.934603885988146
1772698479171661000,2.3506611328125,2.7168273481249807,-12.813234201192856,-1.0707413721837102
1772698479181619200,2.360619140625,3.5929940965831277,-14.75383869164586,-1.1710732393741607
1772698479191576300,2.370576416015625,4.451193811196089,-16.200347997790573,-0.8704977629110217
1772698479201533400,2.380533447265625,5.366711742311716,-17.179973951679468,-0.3374365228053182
1772698479211490000,2.390489990234375,6.118401047229766,-18.290382002210617,0.3347300037929788
1772698479221447200,2.400447265625,6.258403392159939,-19.575458052861688,0.9118537095196545
1772698479231404300,2.410404296875,5.603489869385958,-20.404868895363805,1.3168291793949902
1772698479241361200,2.420361083984375,4.28583958286643,-20.536690271925924,1.928979226849973
1772698479251318300,2.430318359375,3.043962037950754,-19.430814604127406,2.7384245551660653
1772698479261275400,2.440275390625,2.0631718625880775,-17.321439939421413,3.6144922271639106
1772698479271232300,2.450232177734375,1.4538183139838277,-14.216299502408503,3.916079511018097
1772698479281190100,2.460190185546875,1.0168389554738997,-10.797705694919824,3.7038150629535314
1772698479291147300,2.470147216796875,0.6107762748837471,-7.705538136726617,3.585634089209139
1772698479301104400,2.4801044921875,0.04166822742819786,-4.85015279726088,3.397952878259122
1772698479311061200,2.490061279296875,-0.7561937036652118,-2.2459417744904755,2.9846412494540213
1772698479321018000,2.50001806640625,-1.8882371743559836,0.19216040219068525,2.3750309496097266
1772698479330975200,2.509975341796875,-3.2056092284560203,2.1868115401297805,1.5037927435949443
1772698479340932000,2.51993212890625,-3.9640602825939655,4.176243482115865,0.37902905464880166
1772698479350889200,2.52988916015625,-4.134732491075992,6.114445587602257,-0.9624611032720655
1772698479360846300,2.539846435546875,-3.843566940253973,7.695116111433506,-1.9997724264755843
1772698479370803200,2.54980322265625,-3.2148435052692887,8.945609509003162,-2.5674261834695935
1772698479380761000,2.559760986328125,-2.648112123817205,9.79747183728814,-2.385667786697298
1772698479390718200,2.56971826171875,-2.3574936854839326,10.342006584501267,-1.5590414603471756
1772698479400675300,2.57967529296875,-1.9899848996937273,11.010451789021491,-0.6008993893180042
1772698479410632200,2.589632080078125,-1.4874246693789959,11.5761672714293,0.25956697331899775
1772698479420589300,2.59958935546875,-0.9403449869234114,11.913792960131168,0.7800210809111595
1772698479430546200,2.609546142578125,-0.5302291584849357,12.05013853611946,0.9240291543513536
1772698479440503000,2.6195029296875,-0.23694997650980948,12.063012046217917,0.6500531501960009
1772698479450460200,2.629460205078125,0.2598174957476556,11.764818204194306,-0.07572007983485236
1772698479460417300,2.639417236328125,0.7389315301537513,11.078200214123726,-0.8845661818824708
1772698479470374100,2.6493740234375,0.7609084572274237,10.285062462007998,-1.5095941233500838
1772698479480332000,2.65933203125,0.2242342142563313,9.428132328939437,-1.7338994300812482
1772698479490289200,2.6692890625,-0.5487305184025317,8.745437649792432,-1.5411406236059964
1772698479500246300,2.679246337890625,-1.0908744980216025,8.246042605510354,-1.1787438470672815
1772698479510203100,2.689203125,-1.072631496779248,7.948735483193397,-0.6920789588902145
1772698479520160300,2.69916015625,-0.8054570623975247,7.794645576199889,-0.06707726610871032
1772698479530117400,2.709117431640625,-0.5649696324765682,7.846929890188575,0.6134547003127634
1772698479540074000,2.719073974609375,-0.4358790691178292,8.021348299461602,1.2379498500779271
1772698479550031000,2.729031005859375,-0.24936872857809064,8.349286706885694,1.644833930053562
1772698479559988200,2.73898828125,-0.06712766285538672,8.686342486745119,1.7162147203087805
1772698479569945000,2.748945068359375,0.04507723215408623,8.960632890611887,1.6256354547172784
1772698479579903200,2.7589033203125,-0.019931027394533157,9.152250271967054,1.3584122127577662
1772698479589860000,2.768860107421875,-0.3582920446336269,9.180929838484525,0.9033168403860181
1772698479599817200,2.778817138671875,-0.7430489023447037,9.228059253928064,0.4693460891075432
1772698479609774000,2.788774169921875,-0.9140789843536913,9.17189371459186,0.016002674969658254
1772698479619731200,2.798731201171875,-1.097594307795912,8.742183031910658,-0.3745488404948264
1772698479629688300,2.808688232421875,-1.3661376924432813,8.22682294125557,-0.7003728130482136
1772698479639645200,2.818645263671875,-1.5926725117921827,7.759538022461533,-0.9659995065312832
1772698479649602000,2.82860205078125,-1.5417187157548964,7.10341570841968,-1.13774190152809
1772698479659559200,2.83855908203125,-1.3926305625714361,6.037715983664989,-1.3414412042126058
1772698479669516300,2.848516357421875,-1.2626479457437991,4.56092785911262,-1.4318193942740558
1772698479679474200,2.85847412109375,-1.2142999482907355,2.541165660792589,-1.0870062782861292
1772698479689431300,2.868431396484375,-0.8644634511828422,0.20272855795621872,-0.24097481157910078
1772698479699388200,2.87838818359375,0.22442133432626724,-2.0570465115755794,0.8710149917181581
1772698479709345000,2.888344970703125,1.6555832876048981,-4.314833622160553,1.7924688156887887
1772698479719302100,2.89830224609375,2.909744998423755,-6.149179047331214,2.0904555908329785
1772698479729259300,2.90825927734375,3.430166171860695,-7.78238932121694,1.2121339293632656
1772698479739216400,2.91821630859375,3.3800539412140846,-8.948685847708582,-0.7455467105098068
1772698479749173200,2.92817333984375,4.0535330482482905,-9.543301261386274,-3.5300559943720695
1772698479759130000,2.938130126953125,5.916970127868652,-11.744624141949414,-5.879421026197075
1772698479769088300,2.948088134765625,5.7253135835468765,-17.343204027462004,-5.679455503213405
1772698479779045000,2.958045166015625,1.152882918167114,-22.56459310660362,-3.277084565126896
1772698479789002200,2.968002197265625,-5.314250902712345,-24.751565390253067,0.18794366127848625
1772698479798959400,2.97795947265625,-9.222720815509557,-22.863772452533244,3.505649282868206
1772698479808916000,2.987916015625,-7.636406732833385,-17.761632853150367,5.606158796334267
1772698479818873000,2.997873046875,-1.1946353167474268,-11.974435937142372,6.298596286338567
1772698479828830200,3.007830322265625,6.25866175083518,-7.20794868056178,6.119842478209733
1772698479838787300,3.017787353515625,10.49295117920637,-4.342724084126949,5.131693026125431
1772698479848744200,3.027744140625,9.961118092656134,-3.495200661829114,3.505645483475923
1772698479858701300,3.037701416015625,5.9881204703688615,-3.9653152510911225,1.486281344562769
1772698479868659200,3.0476591796875,1.3155460077166556,-4.043493884792924,-0.5648772414853797
1772698479878616000,3.057615966796875,-1.761809765791893,-3.4907571264237163,-2.397818097087741
1772698479888573200,3.0675732421875,-2.9466391433179377,-2.5906279030978676,-3.614209903091192
1772698479898530300,3.0775302734375,-3.036594724053144,-1.4608938053280114,-4.164800004820526
1772698479908487400,3.0874873046875,-2.665203543871641,-0.37550972141623495,-4.2368037492796775
1772698479918444000,3.097444091796875,-1.989191118967533,0.946969884955883,-3.9725402339085933
1772698479928401200,3.107401123046875,-1.3416437410473823,2.4960674589157104,-3.4326211637973785
1772698479938358300,3.117358154296875,-0.8137608534276485,3.914354879182577,-2.643905612038076
1772698479948315100,3.127315185546875,-0.5062590848326682,5.125555546283722,-1.8087189626134932
1772698479958272300,3.137272216796875,-0.43689971740245814,6.0419099282234905,-0.9223867209065705
1772698479968230100,3.147230224609375,-0.1785749626968987,6.642848699703812,-0.031269720007991414
1772698479978187300,3.157187255859375,0.2762368617594242,6.844864140954614,0.9070365184962749
1772698479988144000,3.16714404296875,0.5319265735199674,6.865373260498046,1.6599255545929072
1772698479998101200,3.177101318359375,0.43414311217069623,6.850991683924198,1.9297078333854674
1772698480008058400,3.187058349609375,0.10688333466053009,6.643940002071857,1.7715894015282392
1772698480018015200,3.19701513671875,-0.22187519350741058,6.293005334463715,1.1809737250111996
1772698480027972000,3.20697216796875,-0.4632008278181776,6.1375225118070835,0.3186717261785641
1772698480037929200,3.21692919921875,-0.5105635405609383,6.25075492323339,-0.4524309389354661
1772698480047885800,3.2268857421875,-0.35211017766091973,6.446175788524746,-0.998171299078688
1772698480057842700,3.2368427734375,-0.1358522395133972,6.700680126425624,-1.3835302874013782
1772698480067800800,3.24680078125,-0.07723517883922905,6.766290370455384,-1.7676596608638762
1772698480077758000,3.256758056640625,-0.13876783469915388,6.715641548714041,-1.9679796963736413
1772698480087714800,3.26671484375,-0.2355903785943985,6.744168555018305,-2.0995874301850797
1772698480097671700,3.276671630859375,-0.08952310760207474,6.688146223545074,-2.1255269042141736
1772698480107628800,3.28662890625,0.23296353722214697,6.364428648686409,-2.0050677564047277
1772698480117586000,3.2965859375,0.14104747006893156,5.802819432553648,-1.7222184907682239
1772698480127542800,3.306542724609375,-0.4665735556542873,5.114713249751925,-1.3187632161974907
1772698480137500000,3.3165,-1.2783283299565313,4.370572460517287,-0.7845975950464605
1772698480147456800,3.326456787109375,-1.948869629973173,3.721673083466291,-0.2694402969544753
1772698480157413600,3.33641357421875,-2.331305935782194,3.09937880474627,0.0709808676848188
1772698480167371800,3.346371826171875,-2.1934756741940973,2.871814496219158,0.09434144940292462
1772698480177329000,3.356328857421875,-1.7648107011735439,2.8551696508884428,-0.06007140136805828
1772698480187286000,3.3662861328125,-1.0509890623569489,2.803995343968272,-0.23138372068479657
1772698480197242600,3.37624267578125,-0.2954033345222473,2.391420505005121,-0.5222434204280376
1772698480207199700,3.38619970703125,0.3863013106741011,1.3700403989702463,-0.7271308369185775
1772698480217156900,3.396156982421875,1.332138246077299,0.22294015585780141,-0.9310266120232641
1772698480227113700,3.40611376953125,2.848735233926773,-1.801554916203022,-0.850922490151599
1772698480237070800,3.41607080078125,4.480412891417742,-5.127634106123447,-0.33885720325820146
1772698480247028000,3.426028076171875,5.215221204161644,-8.839860731330514,0.6050412748957053
1772698480256984800,3.43598486328125,4.475419905436039,-12.798705325102805,1.3311015965059398
1772698480266942700,3.445942626953125,2.2496496890977022,-16.539084278082846,1.6225499097920952
1772698480276899800,3.45589990234375,-0.5786393344540148,-19.454631533044576,1.4745765859827398
1772698480286857000,3.46585693359375,-2.755931862545013,-20.51976719417572,0.8550276604481041
1772698480296813800,3.475813720703125,-2.7931565545678136,-19.3176558424592,-0.08723976417155936
1772698480306770700,3.485770751953125,-0.2878396212697029,-17.127269950973986,-0.7706241608820855
1772698480316727800,3.495727783203125,3.029510318750143,-15.282299086892603,-0.6386497857153415
1772698480326685000,3.505684814453125,5.194782811766863,-13.759737637680768,0.06233674791757948
1772698480336641800,3.515641845703125,5.6515083426237105,-12.868749752187728,1.513618264299631
1772698480346599000,3.525598876953125,4.791642740625143,-12.24960312384367,3.7880548963904377
1772698480356556800,3.535556884765625,3.3385984797537325,-11.338587180322408,6.15198241431415
1772698480366513700,3.545513671875,1.668345738544315,-10.620379289245605,7.505723420390487
1772698480376470800,3.555470703125,0.24800204333476722,-10.259701226258278,7.449438054066896
1772698480386428000,3.565427978515625,-0.7951007227517664,-9.644887074160575,5.639058610895276
1772698480396384800,3.575384765625,-1.3845418025314806,-8.475567400455475,2.1227697144605218
1772698480406342000,3.585341796875,-1.3539946885764598,-7.1216925388664,-1.8658783352926371
1772698480416298800,3.595298828125,-1.5180150379538535,-5.619623258063196,-4.499451353886723
1772698480426256000,3.605255859375,-1.919898387032747,-3.72014572776854,-5.187211499729752
1772698480436212700,3.615212646484375,-2.284749936312437,-1.53766023414433,-4.431517050823569
1772698480446169900,3.625169921875,-2.3798621691584585,0.7613187185287476,-3.0840304289668796
1772698480456128000,3.6351279296875,-2.137480815249681,3.229933522373438,-1.4323323122322558
1772698480466084600,3.645084716796875,-1.8003835343360899,5.205215942975879,0.3847852070227265
1772698480476041700,3.655041748046875,-1.615798535835743,6.502340158817172,1.772800969275087
1772698480485998800,3.664998779296875,-1.634226172930002,7.577554730892181,2.2110485941551623
1772698480495956000,3.6749560546875,-1.6937117965996265,8.390015023115277,1.857643006388843
1772698480505912800,3.684912841796875,-1.2814894243359565,9.341562298989295,0.8310237575914711
1772698480515870000,3.694869873046875,-0.6252443606972694,10.481536635744572,-0.38329540685638785
1772698480525826800,3.704826904296875,0.040246670192480086,11.525483378374576,-1.2058704119890928
1772698480535783700,3.71478369140625,0.41127661584615705,12.405242598366737,-1.4841640601478516
1772698480545740800,3.72474072265625,0.564978911761567,12.84655428699255,-1.4089017522841691
1772698480555699000,3.734698974609375,0.564270544296503,12.970662312698364,-1.2330628086887299
1772698480565656000,3.744656005859375,0.45104280904531474,12.748150026863813,-1.104808915349841
1772698480575612700,3.75461279296875,0.41300212446451184,12.287523396915196,-1.1508309540733694
1772698480585569800,3.76456982421875,0.5022469265818595,11.82626431428194,-1.290944796553999
1772698480595527000,3.77452685546875,0.5044962398786097,11.235421404880285,-1.3769612842746077
1772698480605483800,3.78448388671875,0.2786802363235503,10.476397519290447,-1.3641229916200042
1772698480615441000,3.79444091796875,-0.05866144780516624,9.833463188123702,-1.347771722408384
1772698480625398000,3.80439794921875,-0.40003034162335094,9.280666808521747,-1.2909643780373037
1772698480635355000,3.81435498046875,-0.5942589283902198,8.912381777662038,-1.1580355516899377
1772698480645312800,3.824312744140625,-0.6606384032268077,8.730389718264341,-0.8887715246178209
1772698480655270000,3.834269775390625,-0.743889444822073,8.569735045927763,-0.5208211325399578
1772698480665227000,3.84422705078125,-0.8406535365283488,8.41580062175691,-0.15556914923321455
1772698480675183900,3.854183837890625,-0.9105378046154975,8.35576554751098,-0.10277072084308601
1772698480685140700,3.864140625,-0.7909516402482986,8.213530328962205,-0.3744191497005522
1772698480695097900,3.874097900390625,-0.6031552784860134,7.956247758519649,-0.6381855292044579
1772698480705054700,3.8840546875,-0.5314380228180438,7.4299547704398625,-0.8245577033825218
1772698480715011800,3.89401171875,-0.8222003266014158,6.713734253787994,-0.9416356112558394
1772698480724969000,3.903968994140625,-1.383150786564499,5.93254646718502,-0.8169510277710854
1772698480734925800,3.91392578125,-1.8854303002417085,5.385511719849705,-0.44373829471822823
1772698480744883700,3.9238837890625,-2.0025757934585213,4.833165422102809,-0.011928258287732023
1772698480754840800,3.9338408203125,-1.8599556672453879,3.7027655539005995,0.3757625636661425
1772698480764798000,3.9437978515625,-1.5352046576857565,2.1446382857888935,0.4698545135537162
1772698480774754800,3.9537548828125,-1.3521394160985947,0.09245382729172706,0.3534825619926676
1772698480784712000,3.9637119140625,-1.4509364749372005,-2.06527015004158,0.3810369604051113
1772698480794668800,3.973668701171875,-1.4778769427023828,-3.694506259599328,-0.03276101801167242
1772698480804625700,3.983625732421875,-1.2713152363240718,-5.04873943310678,-0.8347343756124377
1772698480814582800,3.993582763671875,-0.9009234424434601,-6.304649595028161,-1.4072592457741497
1772698480824540000,4.003539794921875,-0.42701413707360625,-6.397247214704752,-2.279282026295364
1772698480834496800,4.013496826171875,1.1304349395155906,-4.683987252548337,-3.3949121953889727
1772698480844454700,4.02345458984375,4.509913711190223,-2.5912398975163695,-4.1546819309100504
1772698480854411800,4.033411865234375,8.031933990883827,-3.608924071642756,-4.458327316337823
1772698480864369000,4.043368896484375,8.09764944885373,-9.255103912720084,-3.1717978520080443
1772698480874325800,4.05332568359375,3.0223990254402158,-15.498838728058336,-0.09223111531860194
1772698480884283000,4.063282958984375,-4.421130681365728,-19.177176527667044,3.5017324016854166
1772698480894240000,4.073239990234375,-9.299214857125282,-18.595736237382887,5.7955251838922495
1772698480904196900,4.08319677734375,-7.972381731718778,-13.933816439735889,6.72739453034997
1772698480914153700,4.09315380859375,-1.1504794372219591,-8.728492944732308,6.625350452414154
1772698480924110800,4.10311083984375,6.657955667942762,-4.608752271082997,5.430272068074346
1772698480934067700,4.113067626953125,11.052151580631731,-2.7974533749789,3.4304259918406603
1772698480944025900,4.12302587890625,10.35717843466997,-3.230928378629684,1.3928817608535289
1772698480953982700,4.132982666015625,5.952014553242922,-3.9570068569511174,-0.35296321429368105
1772698480963939800,4.14293994140625,1.6682055994212626,-3.6755507992386818,-1.4598019184380768
1772698480973896700,4.152896728515625,-0.02206811248846352,-3.490923715162277,-2.4073012340955433
1772698480983853800,4.162853759765625,-0.29729594333581627,-4.273757515406609,-2.8163375236690045
1772698480993811000,4.17281103515625,-0.4925953011393547,-5.051761411276459,-2.526471657268703
1772698481003767800,4.182767822265625,-1.1677052242457866,-4.69444376463294,-2.2024641595527528
1772698481013725000,4.192724853515625,-1.488502527743578,-3.5076597459077834,-2.0835564789690078
1772698481023681800,4.202681884765625,-0.8380641045570373,-2.345951716250181,-1.8899211819201707
1772698481033640000,4.212639892578125,0.19253449620008467,-1.271024144423008,-1.2696598703324795
1772698481043596800,4.2225966796875,0.7370166364431381,-0.0019014497071504592,-0.3874132539713755
1772698481053553700,4.2325537109375,0.6878583455204963,1.239466392120719,0.5375936959035694
1772698481063510800,4.2425107421875,0.3623544352343306,2.185516239622235,1.2454451742693782
1772698481073467400,4.25246728515625,-0.014727613532543182,2.750274275174737,1.672328816831112
1772698481083424500,4.262424560546875,-0.49862760357353836,3.1028987955659626,2.002877552884072
1772698481093381600,4.272381591796875,-0.7477870367825031,3.751858378371596,1.830957390167564
1772698481103338500,4.28233837890625,-0.6220902805805206,4.7034547540843485,1.168797403396666
1772698481113295600,4.292295654296875,-0.1866074807712808,5.552393303877115,0.45952056840285654
1772698481123252700,4.302252685546875,0.12527714255042374,6.225917419096827,-0.26031331644058225
1772698481133210600,4.312210693359375,0.146257971258834,6.71700582280457,-0.7593341205827892
1772698481143167500,4.32216748046875,-0.06147884331345558,7.01456779666543,-1.0947795426361262
1772698481153124600,4.33212451171875,-0.3857715877115726,7.19603203279674,-1.2529843376025558
1772698481163081700,4.342081787109375,-0.6319500688809901,7.1222443275302645,-1.3227078621700405
1772698481173038600,4.35203857421875,-0.6320295638579875,7.09116354508996,-1.3889606418870388
1772698481182995500,4.361995361328125,-0.5608733761388808,7.100676638844609,-1.480154386115074
1772698481192952600,4.37195263671875,-0.36383696540966626,7.168422725859284,-1.6994193605914711
1772698481202909400,4.381909423828125,-0.23581023189015685,7.106188095742463,-1.9517358330592511
1772698481212866600,4.391866455078125,-0.3076901307739317,6.893343801963329,-1.9489670989982784
1772698481222823700,4.40182373046875,-0.6873848827898502,6.542059590265154,-1.7887838435657322
1772698481232781600,4.411781494140625,-1.1943794422902165,6.032614276611804,-1.4282786529272793
1772698481242738400,4.421738525390625,-1.5571768355190754,5.288418542319536,-0.7881571872241795
1772698481252695600,4.431695556640625,-1.7459247989177702,4.6281367705106735,-0.3997113022694364
1772698481262652700,4.441652587890625,-1.6594411320768296,4.072026151794195,-0.20787390322173013
1772698481272609500,4.451609619140625,-1.299536976071447,3.336875893744826,-0.20865223065046593
1772698481282566700,4.461566650390625,-0.8484954822003841,2.417725159084797,-0.5052483368875459
1772698481292523500,4.4715234375,-0.3815257668353617,1.0960913558870553,-0.8403893326342106
1772698481302480600,4.481480712890625,0.1884929657243192,-0.5323047957152128,-0.7413469207324087
1772698481312437500,4.4914375,0.7762098520599305,-2.2439134835332633,-0.27385555611345913
1772698481322395600,4.501395751953125,1.1508838533043861,-4.143979627370834,0.6981590825214982
1772698481332352500,4.5113525390625,1.3385504512071609,-6.006947920435667,1.8590367988348007
1772698481342309400,4.521309326171875,1.5880688173890114,-7.628363127109408,2.3647211525194347
1772698481352266500,4.5312666015625,1.6753800210952758,-9.200456376731395,2.2776846741013226
1772698481362223600,4.5412236328125,1.5692146254457533,-10.720212120872736,1.7604219646953045
1772698481372180700,4.5511806640625,1.5927764105580746,-11.793442241132258,0.8216938383840025
1772698481382137600,4.5611376953125,2.126351372339576,-12.517345713502168,-0.3516539583260193
1772698481392094700,4.5710947265625,2.798135512024164,-13.18684188838005,-1.5182289729654788
1772698481402051600,4.581051513671875,2.9905180325329304,-14.33997498191595,-2.1509819557271896
1772698481412008400,4.591008544921875,2.691882291960716,-15.998164214235544,-1.8842656403765081
1772698481421966600,4.600966552734375,2.220194169771671,-17.768890276932716,-0.6574928717426956
1772698481431923700,4.610923828125,1.7013363001286983,-19.043774603915214,1.2977877943165599
1772698481441880600,4.620880615234375,1.045040967607498,-19.058414539164303,3.42142815413177
1772698481451837400,4.63083740234375,0.5369114127278327,-17.858277702391145,5.462891312128305
1772698481461794600,4.640794677734375,0.6418576418459415,-15.97316187492609,7.207791444173455
1772698481471751700,4.650751708984375,0.8504641519248485,-13.724877921223639,8.228414009839296
1772698481481708500,4.66070849609375,0.5924152002196759,-11.198384928905963,8.121905938231945
1772698481491665700,4.670665771484375,-0.0297977568924427,-8.462936466941237,7.106369297528267
1772698481501622800,4.680622802734375,-0.710223175933212,-5.592720053568482,5.306439936700463
1772698481511579400,4.690579345703125,-1.2890168972313403,-2.563848032721877,2.8909038120925423
1772698481521537500,4.70053759765625,-1.6737001051843166,0.323283859616518,0.11290648567387833
1772698481531494700,4.71049462890625,-2.001981626957655,2.9182109212130305,-2.6269252511426804
1772698481541451800,4.72045166015625,-2.374405072796345,5.080283156883716,-4.68266652533859
1772698481551408600,4.73040869140625,-2.5266800393223763,7.021157696449756,-5.879951772072911
1772698481561365500,4.740365478515625,-2.2327789260566235,8.897600972637534,-6.194624455210566
1772698481571322600,4.750322509765625,-1.4394249008417128,10.569635774958133,-5.601579651850462
1772698481581279500,4.760279541015625,-0.4219312808513641,11.89478430827856,-4.307936556123197
1772698481591236600,4.770236572265625,0.5189525621891021,12.97542499705553,-2.8718776245832442
1772698481601193700,4.78019384765625,1.0475450593829154,13.456982186830043,-1.435356920750439
1772698481611150600,4.790150634765625,1.1161492245316504,13.317584237533808,-0.2043177633764222
1772698481621108500,4.8001083984375,0.7881096948206424,12.787128284555672,0.3607631474548951
1772698481631065600,4.810065673828125,0.35113157841973003,12.296122882956265,0.170997275717929
1772698481641022700,4.820022705078125,0.20763262354545295,11.890164247262478,-0.5375731280395761
1772698481650979600,4.8299794921875,0.44751222376637156,11.368527560555934,-1.1869779338620603
1772698481660936700,4.839936767578125,0.6476536878388375,10.697082589697837,-1.6568106374427676
1772698481670893600,4.8498935546875,0.4579425054311752,9.870777896517515,-1.8513988513022661
1772698481680850400,4.859850341796875,0.0033528906244784593,9.050655691364407,-1.6760127660408615
1772698481690807600,4.8698076171875,-0.5888122072916477,8.356769756117462,-1.296757428355515
1772698481700764700,4.8797646484375,-1.087123036533594,7.813531478455662,-0.88220369053483
1772698481710722600,4.88972265625,-1.2388462143957615,7.497315657529234,-0.5499933779451995
1772698481720679400,4.899679443359375,-1.108553947097063,7.331199797177314,-0.23104791285917162
1772698481730636500,4.909636474609375,-0.9505928246933967,7.222130935171246,0.16920615451745688
1772698481740593700,4.91959375,-0.8562708654422313,7.277481066471338,0.473400223336555
1772698481750550500,4.929550537109375,-0.7384218270659446,7.557802567195892,0.428058275831677
1772698481760507600,4.939507568359375,-0.48739532134346664,7.903364894115924,0.12359876100942492
1772698481770464800,4.94946484375,-0.2433458150267601,8.18502611901164,-0.3399288876103237
1772698481780421400,4.95942138671875,-0.09859941737465559,8.382351356619596,-0.890271188591048
1772698481790378500,4.96937841796875,-0.23795886129140853,8.44093973918855,-1.3685985295988619
1772698481800335600,4.979335693359375,-0.6013175416648388,8.257306926846503,-1.632055550892651
1772698481810293800,4.989293701171875,-1.2027637512106448,7.816176440006494,-1.6060688767209648
1772698481820250600,4.999250732421875,-1.7613327959299085,7.504813319808244,-1.6800795770883559
1772698481830207500,5.00920751953125,-2.0214684177160263,7.433155027785896,-1.6685839312143622
1772698481840164600,5.01916455078125,-1.6934978615880012,7.350905199122429,-1.457206787378341
1772698481850121500,5.02912158203125,-0.8726176046092062,6.923696270129084,-1.1505410312160849
1772698481860078600,5.03907861328125,-0.330761136694625,5.831607720142602,-0.7304539169266819
1772698481870035700,5.04903564453125,-0.4029389956116676,4.255094315990806,-0.11637443577907979
1772698481879992600,5.05899267578125,-0.4972704533435404,2.6263661559551954,0.3370209277417511
1772698481889949400,5.068949462890625,-0.4316613052923232,0.7317670453518629,0.29486031368672844
1772698481899906600,5.078906494140625,-0.15747487325668333,-1.5631424659252167,0.06393438323941081
1772698481909864700,5.08886474609375,-0.034070758036524054,-4.056718692547083,-0.03288576776934787
1772698481919821600,5.098821533203125,-0.19206220251321793,-6.3720326939493415,-0.16779183074012397
1772698481929778700,5.10877880859375,-0.5177882676500827,-8.194962406614422,-0.3681517964014783
1772698481939735600,5.118735595703125,0.25331995042189953,-8.390222528386115,-1.0039501747410744
1772698481949692400,5.1286923828125,3.622483225917816,-7.991314395725727,-2.118650150312483
1772698481959649500,5.1386494140625,7.712981438469886,-10.792758301645517,-2.1627802378095686
1772698481969606700,5.148606689453125,7.7621888292312615,-16.371455090558527,-0.4699559646341949
1772698481979563500,5.1585634765625,2.364077740049362,-20.729542748034,1.740314703951031
1772698481989520600,5.168520751953125,-4.576318904989957,-22.728401859056948,3.7791228173941374
1772698481999477500,5.1784775390625,-9.03895414765477,-22.073070987653733,5.0824961567580695
1772698482009435600,5.188435546875,-8.379948971652984,-18.519933100640774,4.856350190596282
1772698482019392500,5.198392578125,-3.1479695249140263,-14.078209713101387,3.5907436873078344
1772698482029349600,5.208349609375,3.2328304128587244,-10.194260493576525,2.438982320516556
1772698482039306800,5.218306640625,7.218316929841041,-7.516397959139943,1.67950776854977
1772698482049263400,5.228263427734375,7.252212185180187,-6.244733178725839,1.33975485856086
1772698482059220500,5.238220458984375,4.1367806557774545,-5.715349238893389,1.3260899058237672
1772698482069177600,5.248177490234375,0.7175532265603541,-5.071214299765229,1.2546269902430474
1772698482079134700,5.258134765625,-0.7512918300330639,-3.9872494350016114,0.6588964549303055
1772698482089091600,5.268091552734375,-0.39570144557356834,-2.7191806332528587,-0.185833993914444
1772698482099049500,5.278049560546875,0.4219406697342172,-1.4986562574893236,-0.7757121316708624
1772698482109006600,5.288006591796875,0.5980454246589914,-0.4213642946183681,-0.9431661087587475
1772698482118963500,5.29796337890625,0.23595627103103323,0.6819628577411174,-0.9572978022247552
1772698482128920600,5.307920654296875,-0.11734623995330185,1.5694956343442201,-0.8470964290574192
1772698482138877700,5.317877685546875,-0.22172668841481208,2.1915455829143524,-0.6244000188276171
1772698482148834600,5.32783447265625,-0.24622747141029686,2.6705548417717218,-0.2449107262559235
1772698482158791400,5.33779150390625,-0.30283026965260507,3.1622581625074146,0.10673599861171096
1772698482168748500,5.34774853515625,-0.46541854040026664,3.771926768410206,0.2914621226157993
1772698482178705700,5.35770556640625,-0.543738628399372,4.4459377903640265,0.34486795144770294
1772698482188662500,5.36766259765625,-0.3817512096216902,5.152778484252095,0.3025994200387969
1772698482198620700,5.37762060546875,-0.07277882048487663,5.83401828841567,0.08177731578089296
1772698482208577500,5.38757763671875,0.27204236921165137,6.409720327308774,-0.23173373969886452
1772698482218534400,5.397534423828125,0.39720253431890157,6.86906042457819,-0.5126711438320577
1772698482228491500,5.407491455078125,0.30454755843188613,7.270086864566802,-0.7754033579826355
1772698482238448600,5.41744873046875,0.05388707301020622,7.471145443484187,-1.1106158480629325
1772698482248405800,5.42740576171875,-0.351065015989542,7.481588511565327,-1.4448707451574503
1772698482258362600,5.437362548828125,-0.7826105128824711,7.401826408064365,-1.774322041362524
1772698482268319500,5.447319580078125,-1.0636661000352352,7.3590797377496955,-2.0685183381825683
1772698482278276600,5.457276611328125,-1.1348457416951656,7.514373175314068,-2.2690566926181317
1772698482288233500,5.4672333984375,-0.9281365896701812,7.7161261662364,-2.3864275190234183
1772698482298191600,5.477191650390625,-0.5489256756484509,7.877436087611317,-2.4975462992966175
1772698482308148700,5.487148681640625,-0.2714824337739497,7.935605367985367,-2.425308307690173
1772698482318105600,5.497105712890625,-0.3233749719660729,7.801295097216963,-2.2051133588872847
1772698482328062500,5.5070625,-0.5125064547896385,7.542428472453356,-2.048633341886848
1772698482338019600,5.51701953125,-0.6318529651820659,7.197853403005004,-1.9031740467250347
1772698482347976700,5.526976806640625,-0.5504991355102509,6.505535739988089,-1.8667118635073303
1772698482357933600,5.53693359375,-0.4225731589514762,5.26724423686564,-1.868417206120491
1772698482367890700,5.546890625,-0.40705402971506116,3.7964036225408315,-1.8649167967841027
1772698482377847600,5.55684765625,-0.42063006205968556,2.255456037288904,-2.103691358372569
1772698482387804400,5.566804443359375,-0.5063140298902988,0.5888087732255458,-2.0442621410652992
1772698482397762600,5.576762451171875,-0.3723439508616924,-0.9451882622361183,-1.6408584505513308
1772698482407719700,5.5867197265625,0.07526888373494148,-2.427089199757576,-0.8606590904638171
1772698482417676800,5.5966767578125,0.6024363165616988,-4.19699108659029,0.4549919119972735
1772698482427633400,5.60663330078125,1.1101671544473617,-6.279094882532954,1.7434084321826695
1772698482437590500,5.616590576171875,1.4661315598510205,-8.726778542029857,2.379546527338028
1772698482447547600,5.626547607421875,1.5249626651346682,-11.406540188086032,1.958947225742787
1772698482457504500,5.63650439453125,1.4935855300962924,-13.991450298058986,0.6723665426824241
1772698482467461600,5.646461669921875,1.391917299735546,-16.235913816690445,-0.7143737928066403
1772698482477418800,5.656418701171875,1.4422469725251197,-17.724675872153043,-1.270177172204852
1772698482487375600,5.666375732421875,1.6729599543415008,-18.39572687525749,-0.7162943125404417
1772698482497333500,5.67633349609375,1.8566250615179538,-18.67748980696201,0.4750614710796624
1772698482507290600,5.68629052734375,1.9019138175308703,-19.02668318386078,1.57096921402812
1772698482517247700,5.696247802734375,1.6753917115330694,-19.524829104864597,2.798170583337545
1772698482527204600,5.70620458984375,1.2677964145481586,-19.72273652627468,3.8811400073230264
1772698482537161500,5.716161376953125,0.6315607773024589,-19.35827777570486,4.537104208193719
1772698482547118600,5.72611865234375,0.12160502990894019,-18.065909229958056,4.8514574501186605
1772698482557075500,5.736075439453125,0.03666588909626007,-16.007672047293184,5.090519304215908
1772698482567032600,5.746032470703125,0.15316449924428016,-13.466757730913162,5.047237796372175
1772698482576989700,5.75598974609375,0.04113981963992119,-10.484304931414126,4.565295698933303
1772698482586947600,5.765947509765625,-0.4225474034557119,-7.280233580049872,3.5851840073540804
1772698482596904400,5.775904541015625,-1.0186673399448394,-4.066317126497626,2.261935608566552
1772698482606861600,5.785861572265625,-1.597836178165674,-0.8228250343710184,0.6290913915142416
1772698482616818700,5.795818603515625,-1.4638333659112452,2.275341471976042,-0.8836880108084529
1772698482626775600,5.805775634765625,-0.6977333313900977,5.111009719058871,-1.862818070939183
1772698482636732700,5.815732666015625,0.01959324680753052,7.498673501878977,-2.213918012111634
1772698482646689500,5.825689453125,0.23956169337816535,9.257751796880363,-2.010832457411289
1772698482656646400,5.835646484375,0.22487371773626655,10.511748234134911,-1.6931109080970286
1772698482666603500,5.845603515625,0.09872808525562286,11.181373003828526,-1.548503115198016
1772698482676560600,5.855560546875,-0.3644808893363923,11.351050356054305,-1.8239238382689653
1772698482686517500,5.865517578125,-1.323488491153717,11.243114881992339,-2.3212580044984814
1772698482696475400,5.875475341796875,-2.1994354593813417,11.424358753371237,-2.704836173819005
1772698482706432500,5.8854326171875,-2.49560101044774,11.912680030453204,-2.949040651501715
1772698482716389600,5.8953896484375,-1.9158043957173823,12.500975593459605,-2.89148658041656
1772698482726346500,5.905346435546875,-0.8320434560280293,12.82241820912361,-2.5155989655986426
1772698482736303600,5.9153037109375,0.1291478465039283,12.860947554004191,-1.9285953420989215
1772698482746260700,5.9252607421875,0.6194773946683854,12.751023536473513,-1.2265449512273072
1772698482756217600,5.935217529296875,0.730102838466689,12.414071216988562,-0.5821741940492764
1772698482766174500,5.945174560546875,0.5877401941459626,11.857937217396497,-0.18835227861199527
1772698482776131600,5.955131591796875,0.3124316262125969,11.102190161520243,0.018400529891625047
1772698482786089700,5.96508984375,-0.0643710941562429,10.20279451316595,0.14674440306890754
1772698482796046600,5.975046630859375,-0.6523334431529044,9.296522549301386,0.08094393369667231
1772698482806003500,5.98500341796875,-1.2622738517343997,8.590389126899838,-0.2495155897028744
1772698482815960600,5.994960693359375,-1.6114181287944316,8.159645594039558,-0.715506669294089
1772698482825917400,6.00491748046875,-1.6286767221093177,7.972319187876582,-1.166129864687845
1772698482835874600,6.01487451171875,-1.2204688461840152,7.866879037761688,-1.435766524464637
1772698482845831700,6.024831787109375,-0.7141103926301002,7.884070995581149,-1.4850263760656117
1772698482855788500,6.03478857421875,-0.32556937673781067,8.004553816527128,-1.163959607976675
1772698482865745700,6.04474560546875,-0.14664021204207092,8.144695277667045,-0.5610970653595403
1772698482875702500,6.05470263671875,-0.1830582638571039,8.236880224889516,0.13496084363162517
1772698482885659600,6.06465966796875,-0.20000943519063294,8.303207092756033,0.6190524472545832
1772698482895617500,6.074617431640625,-0.13101013324446975,8.24168441030085,0.9249526258718221
1772698482905574700,6.08457470703125,0.03814469294454902,8.1653674788177,1.038552774631977
1772698482915531500,6.094531494140625,0.1679366095056757,8.044948955279589,0.6766846250772476
1772698482925488400,6.10448828125,0.03974398136734962,7.614716294550895,-0.04996189892310649
1772698482935445500,6.114445556640625,-0.3319534882843494,7.088732518550753,-0.8905187336113304
1772698482945402600,6.124402587890625,-0.602195493543148,6.353584014067054,-1.6984885094821451
1772698482955359700,6.13435986328125,-0.5460298811417073,5.429905572849512,-2.156773544740677
1772698482965316600,6.144316650390625,-0.32706458373162894,3.9421220070302483,-2.258051022218168
1772698482975273700,6.154273681640625,-0.2601239313483238,1.8936703053206205,-1.842708910498768
1772698482985230600,6.164230712890625,0.03401091760806739,-0.4193184680044651,-0.9224886469110846
1772698482995188500,6.1741884765625,0.70709846804142,-2.766613415557146,0.18302629781626165
1772698483005145600,6.1841455078125,1.764639874651283,-4.666989940518141,1.0198081805430352
1772698483015102700,6.194102783203125,3.0633307552874087,-6.315057591795921,1.2199205646514892
1772698483025059600,6.2040595703125,4.17964598403573,-8.312712003204226,1.0281405400805175
1772698483035016400,6.214016357421875,4.578942239230871,-11.189226639938354,0.8494267717011272
1772698483044973600,6.2239736328125,3.6464439472198484,-14.699768078762292,0.9509317743241786
1772698483054931000,6.233930908203125,1.4335726676821707,-18.095815707921982,1.5227731922663748
1772698483064887800,6.2438876953125,-1.342222417718172,-20.23807674318552,2.542907536023855
1772698483074845000,6.253844970703125,-3.3761540111660957,-20.372170740854738,3.7105192367672917
1772698483084802800,6.263802734375,-3.376171546822786,-18.46695437464714,4.230209465581178
1772698483094760000,6.273760009765625,-1.2937071008741854,-15.596570788013935,3.329009690414369
1772698483104716800,6.283716796875,1.4769325014591217,-13.047400684463977,1.9945831872694193
1772698483114674000,6.293673828125,3.2303964637100693,-11.087113003897667,1.0229164487566798
1772698483124631000,6.303631103515625,3.659991995579004,-9.625963177981973,0.4146467133337632
1772698483134587600,6.313587646484375,3.0955753208100796,-8.281471646288036,0.20533326056189835
1772698483144544800,6.323544677734375,2.3021078983485697,-6.84654990208447,0.2698264467278495
1772698483154502000,6.333501953125,1.9370868377208708,-5.415114246430993,0.3457838607162237
1772698483164458800,6.343458740234375,1.899723029488325,-4.1964521574079985,0.2871741430982947
1772698483174416000,6.353415771484375,1.7856114971399306,-3.11060571668148,0.19651640544310212
1772698483184373800,6.363373779296875,1.364637663143873,-2.231687039166689,0.2126434374447912
1772698483194331000,6.373330810546875,0.8866589163780212,-1.421371357756853,0.2641458438081667
1772698483204287700,6.383287841796875,0.48942953058481214,-0.5415379034847021,0.1994949097972363
1772698483214244900,6.393244873046875,0.2746002187346108,0.37555648316740986,0.00732025988548994
1772698483224202000,6.403201904296875,0.12797872052616438,1.230417408746481,-0.31677111672163005
1772698483234158800,6.413158935546875,-0.06300093831419945,2.034059019219875,-0.7629580832336097
1772698483244115700,6.42311572265625,-0.2712918065726757,2.820556602668762,-1.2040910542916505
1772698483254072800,6.43307275390625,-0.505800819671154,3.5127690517455337,-1.329522656751424
1772698483264029700,6.44302978515625,-0.6648749448180198,4.123730035546422,-1.213480813927576
1772698483273986800,6.45298681640625,-0.7328899119019507,4.612748062720894,-1.0136716505493968
1772698483283945000,6.462945068359375,-0.8625099790275096,4.901801151433586,-0.6644727206926793
1772698483293901800,6.47290185546875,-1.0364823980987072,5.073085938856005,-0.3977686072364449
1772698483303858700,6.482858642578125,-1.1541267807483673,5.419910833057761,-0.3378751334182918
1772698483313815800,6.49281591796875,-1.0626491050124167,5.964604570224881,-0.3966493208829313
1772698483323773000,6.50277294921875,-0.8174304818511009,6.459431575939059,-0.5013640793327242
1772698483333729800,6.512729736328125,-0.635884997177124,6.87443101170063,-0.5878539567187429
1772698483343687000,6.52268701171875,-0.5583657041668891,7.242336687853932,-0.6751951171718538
1772698483353643800,6.532643798828125,-0.43618075547814367,7.686202737137675,-0.75665613354519
1772698483363600600,6.5426005859375,-0.18602292234897613,7.99227827232182,-0.8039948078252375
1772698483373557800,6.552557861328125,0.1410812627406791,8.035833336409926,-0.9434621690958738
1772698483383516000,6.562515869140625,0.25284542824532835,7.949526925832033,-1.167261426001042
1772698483393473000,6.57247314453125,0.09595277532339096,7.831948594155907,-1.418906867339462
1772698483403429600,6.5824296875,-0.2797183471996337,7.499104879033565,-1.671630897694826
1772698483413386800,6.59238671875,-0.7435738760668784,6.984145770394802,-1.9201462243139742
1772698483423343900,6.60234375,-1.2597393648207187,6.382714246961474,-2.2862642863981426
1772698483433300700,6.61230078125,-1.5997358743071555,5.9150476353734724,-2.5846084966778755
1772698483443257900,6.6222578125,-1.5817665023744105,5.504771721002459,-2.6457205525055527
1772698483453215000,6.632215087890625,-1.2736007169127463,4.771542201882601,-2.493710666656494
1772698483463171800,6.642171875,-1.0333633162301032,3.57795785549283,-2.169634487618506
1772698483473128700,6.652128662109375,-1.1260988830726593,1.9209177932083605,-1.6964669405266641
1772698483483086800,6.6620869140625,-1.418965465658903,-0.19202070145905017,-1.072398199480027
1772698483493044000,6.6720439453125,-1.7494798610508442,-2.71173791603148,-0.2965233149955049
1772698483503000800,6.682000732421875,-1.948399674373865,-5.092027955213188,0.6904338220316917
1772698483512957700,6.691957763671875,-1.9379682967305183,-6.718727824291586,1.6395567203029988
1772698483522914800,6.701914794921875,-1.5688918232321738,-7.331293320679664,2.2480776174753903
1772698483532871700,6.71187158203125,-0.6467267091870308,-7.023826623398065,2.499872404156625
1772698483542828800,6.721828857421875,0.90736268171072,-6.488546026742458,2.2566158748485146
1772698483552786000,6.731785888671875,2.814688002896309,-6.467250725257396,1.5928428999230264
1772698483562743000,6.741742919921875,4.217030835056304,-7.372603820711374,0.9749949330873787
1772698483572700000,6.751699951171875,4.280259736907482,-9.265767345553636,0.3134531147474423
1772698483582657800,6.76165771484375,2.806058121716976,-11.362345657050609,0.02494958620890975
1772698483592615000,6.771614990234375,0.9047345251642167,-13.067391333091258,0.2085962809458375
1772698483602571800,6.78157177734375,-0.02984108457751572,-14.146222342097758,0.46655543547570705
1772698483612529000,6.79152880859375,0.399478626024723,-14.60040520273447,0.4928032082689926
1772698483622485800,6.80148583984375,1.9406547593355177,-15.022425330913066,0.3021608824910596
1772698483632443000,6.81144287109375,3.284991977250576,-15.728144327294826,-0.002810874435957521
1772698483642399700,6.821399658203125,3.1681121492326256,-16.29735641964674,-0.14785676649129018
1772698483652356900,6.83135693359375,1.8761948543846607,-15.87507910183668,0.057332646886818106
1772698483662314000,6.84131396484375,0.6161293263494968,-14.427726915127039,0.259477998127602
1772698483672270800,6.851270751953125,0.0528945548415184,-12.356488796591758,0.2257415500793606
1772698483682228700,6.861228759765625,-0.38755207792017604,-10.504627588474749,0.2855017529066652
1772698483692185900,6.871185791015625,-1.2028209612905978,-8.919133005487918,0.3217068560907617
1772698483702143000,6.88114306640625,-2.2000550525844096,-7.315664374393224,0.300509279359132
1772698483712099800,6.891099853515625,-2.3538228880167007,-5.2262493786543605,0.37422296954132617
1772698483722057000,6.901056884765625,-1.4980372488081455,-2.7417741578549144,0.9807882756665348
1772698483732013800,6.911013916015625,-0.1352910984992981,-0.1604647027224302,2.1051953331947324
1772698483741970700,6.920970703125,0.9236825328707694,2.2975018658578397,3.0508956366062163
1772698483751927800,6.930927734375,1.3598714716553688,4.469810248860717,3.3081896052256226
1772698483761885000,6.940885009765625,1.21147071621418,6.4117100398212665,2.653772926057875
1772698483771841800,6.950841796875,0.6641349401056766,8.019575444570183,1.2681105950638651
1772698483781799700,6.960799560546875,-0.11307111991737037,9.030624126204847,-0.2541597074479796
1772698483791756800,6.9707568359375,-0.8556921157062053,9.64553355537057,-1.5402875139079988
1772698483801714000,6.9807138671875,-1.2220365338921546,10.242357292747498,-2.5986536809042096
1772698483811670800,6.9906708984375,-1.072120697712898,10.794501345920562,-3.1446719446733593
1772698483821628000,7.0006279296875,-0.5995277356386184,11.095696123325824,-3.029379678107798
1772698483831585000,7.0105849609375,-0.037744934770930556,11.21715275774002,-2.4482329639427363
1772698483841542000,7.0205419921875,0.4017056544244289,11.436294690358638,-1.7670089418701826
1772698483851498800,7.030498779296875,0.7292810006897896,11.540361798554658,-1.1698813992410897
1772698483861456000,7.040455810546875,1.1124188058316706,11.516222213554382,-0.6568826308898628
1772698483871412700,7.050412841796875,1.5059306324064732,11.451819591748714,-0.36864564433302727
1772698483881371000,7.060370849609375,1.8814976369678973,11.37308449320793,-0.04614372887443751
1772698483891327700,7.07032763671875,2.1102070238769053,11.118533393555879,0.2647883429627865
1772698483901284900,7.080284912109375,2.1441502100110053,10.75849245942831,0.40564836416821926
1772698483911241700,7.09024169921875,1.8381705364167689,10.278684159147739,0.38463410811424253
1772698483921198800,7.10019873046875,1.1468179190397263,9.699515905448793,0.2507203989153728
1772698483931156000,7.110156005859375,0.4090624469280243,9.128486534541844,-0.05112880554432049
1772698483941112800,7.12011279296875,-0.08012271697428076,8.710802974262833,-0.48250659945383667
1772698483951070000,7.130070068359375,-0.23610475785732268,8.510200906941295,-0.9822455618027597
1772698483961026800,7.14002685546875,-0.19150687018539755,8.384200783878564,-1.3323464820005
1772698483970983700,7.149983642578125,-0.2613969834914431,8.278638468688726,-1.633694842532277
1772698483980941800,7.15994189453125,-0.20634788096453993,8.45015531130135,-1.7521613552197812
1772698483990899000,7.16989892578125,-0.05141450888421386,8.591196936151384,-1.4210055931843817
1772698484000855800,7.179855712890625,-0.007228161155246198,8.587243814611435,-1.0171142652839422
1772698484010812700,7.189812744140625,-0.021621501232124862,8.526199855583906,-0.6503187423296273
1772698484020769800,7.199769775390625,-0.15211013135313986,8.356752220460772,-0.20953180823028086
1772698484030727000,7.209726806640625,-0.34593057571053504,7.8855761394470925,0.17940942249335348
1772698484040683800,7.219683837890625,-0.5193512791831046,7.183636661604046,0.5384290507491678
1772698484050641200,7.22964111328125,-0.78608140386343,6.163724290034175,0.6689878600295632
1772698484060598000,7.239597900390625,-1.3089514317572115,4.785812134775519,0.4985402906162664
1772698484070555000,7.249554931640625,-1.6727100712336598,3.221308901891112,0.1821803119787946
1772698484080513000,7.259512939453125,-1.409629482036829,1.6536697090685366,-0.1851967919894494
1772698484090470100,7.26947021484375,-0.47645321769900617,0.11204758555591106,-0.35407968763560055
1772698484100427000,7.279427001953125,0.9866331292372197,-1.439361187955737,-0.3912619287561625
1772698484110383900,7.2893837890625,2.470456047797203,-2.9831244151502845,-0.28291104229371994
1772698484120341000,7.299341064453125,3.453483919084072,-4.54242657226026,-0.031195711773575746
1772698484130297900,7.3092978515625,3.7980280088722704,-7.082841122424602,0.06883437087514903
1772698484140255000,7.3192548828125,3.0552853959977626,-11.060486862778664,0.265400903636869
1772698484150212000,7.329212158203125,0.8754710943441838,-15.732177528333663,0.9550990500714629
1772698484160169000,7.3391689453125,-2.243300320070982,-19.60108349250555,2.260860088289529
1772698484170126800,7.349126953125,-5.3264954672575,-21.51580886081457,3.8219545356437563
1772698484180084000,7.359083984375,-6.760470285999775,-20.93843684288263,5.478503891801834
1772698484190041000,7.369041015625,-5.327581508928537,-18.00095715757608,6.3757268722921605
1772698484199998000,7.378998046875,-1.3796446781396865,-14.228920499050616,5.992023323026299
1772698484209955000,7.388955078125,2.5174434244215487,-10.58586560974717,5.12393642064929
1772698484219912000,7.398911865234375,4.859815528619289,-7.523225174811482,3.7585868098437785
1772698484229868800,7.408868896484375,5.360479569923878,-5.841511859041452,2.156668038539588
1772698484239826000,7.418825927734375,3.990728509289026,-5.220169766479731,0.44359961689990013
1772698484249783000,7.428782958984375,1.5245277808487414,-5.000706346821785,-1.274494743143022
1772698484259740000,7.438739990234375,-0.8661012084525078,-4.613286407381296,-2.704201090785861
1772698484269697800,7.44869775390625,-2.4426176082789897,-3.9065544345647094,-3.610332477135956
1772698484279655000,7.458655029296875,-3.386585388809442,-3.419652376630902,-3.7907220697730777
1772698484289612000,7.468612060546875,-3.6529800709903237,-2.705335063251853,-3.3201118059486148
1772698484299569000,7.47856884765625,-3.0561937430143353,-1.5197697726666926,-2.8940386029869316
1772698484309526000,7.488526123046875,-1.8953145653963088,-0.29280922637581824,-2.6141841352522373
1772698484319483100,7.498483154296875,-0.7628571801424026,0.7653688707023859,-1.9977152016848325
1772698484329440000,7.50843994140625,-0.19651507200254126,1.4548936881303787,-0.8906040738072246
1772698484339396900,7.51839697265625,0.02729017625199631,2.0840625287950036,0.2607762943098321
1772698484349354000,7.52835400390625,0.16275542574180288,2.7115929546028372,1.0461147343188524
1772698484359310800,7.538310791015625,0.48222120664119716,3.068565733331442,1.4794859853342175
1772698484369269000,7.54826904296875,0.6818786865890025,3.1942204039573667,1.6147683160051702
1772698484379225900,7.558225830078125,0.42221302040219305,3.2556536545634267,1.4677125454321502
1772698484389183000,7.568182861328125,-0.17781972388280554,3.3617864631175993,1.0768206920973955
1772698484399139800,7.578139892578125,-0.7405658533573151,3.6579695498406886,0.5029823647169396
1772698484409097000,7.588096923828125,-0.817706376183033,4.183513765379786,-0.23811324813552198
1772698484419054000,7.59805419921875,-0.5341290885329246,4.838541854444146,-0.9079086982209235
1772698484429011000,7.608010986328125,-0.14281040635453537,5.550111330419779,-1.2679343617141245
1772698484438968000,7.617968017578125,0.13195579833043738,6.230414145994186,-1.1820087671473622
1772698484448925000,7.627925048828125,0.20603581934068352,6.8107391685128205,-0.9456471119195222
1772698484458881800,7.6378818359375,0.18820085090994834,7.223364276358485,-0.6875492795713245
1772698484468840000,7.64783984375,0.18351645595338195,7.495325360494852,-0.5181118005160242
1772698484478797000,7.657797119140625,0.2831260732838884,7.685966005772352,-0.40734621759466827
1772698484488754000,7.66775390625,0.4351683270325884,7.77422121233046,-0.45765002529062326
1772698484498710800,7.677710693359375,0.42904841938018795,7.648617395108937,-0.5664916544120758
1772698484508668000,7.68766796875,0.17458967418670654,7.361086985918879,-0.6334525823984295
1772698484518625000,7.697625,-0.3126713167199865,6.954892203381657,-0.7904099345870316
1772698484528582000,7.707581787109375,-0.6803145060122012,6.663384122732281,-1.134600169436261
1772698484538539000,7.7175390625,-0.7889175771374255,6.417108683994412,-1.5330663304828107
1772698484548496100,7.72749609375,-0.7542330711167305,5.845466734147071,-1.7441000677086411
1772698484558452700,7.73745263671875,-0.6354711556792259,5.089859963524341,-1.5730131409458814
1772698484568411000,7.747410888671875,-0.4391876091439277,4.282172877052426,-1.4312754966557024
1772698484578368000,7.757367919921875,0.16807459320425985,3.2360587272554633,-1.2453218401506543
1772698484588325000,7.7673251953125,0.9331014455359429,1.8049036421090363,-0.8487495300266891
1772698484598282000,7.777281982421875,1.2306078167520462,-0.21450959664285182,-0.31608138089179993
1772698484608238800,7.78723876953125,0.8295720974784344,-2.833368737968802,0.20100164283206684
1772698484618196000,7.797196044921875,0.008003273713588714,-5.908606204149127,0.47872744624130426
1772698484628152800,7.80715283203125,-0.6513853486478328,-8.963694031748176,0.3609439473818987
1772698484638110000,7.81710986328125,-0.727123018938303,-11.653868935269116,-0.1702892005138099
1772698484648067000,7.827067138671875,0.09973477808013557,-13.830705609351396,-0.7876433194179088
1772698484658024200,7.837024169921875,1.395661600830406,-15.401429324185848,-1.393179867017269
1772698484667981800,7.84698193359375,2.799977925020456,-16.748060205996037,-1.8786524766698478
1772698484677939000,7.85693896484375,3.392598950010538,-18.305270943784713,-2.0119893723614513
1772698484687896000,7.86689599609375,2.4831799202919003,-20.15094323413372,-1.2688200585074723
1772698484697853000,7.87685302734375,0.79401928419061,-21.450492046773434,0.2125080658284016
1772698484707810000,7.88681005859375,-0.5721721112012863,-21.78475907269716,2.0622407192178067
1772698484717767000,7.896766845703125,-1.148152893970534,-20.736648196125028,3.817703015679121
1772698484727724000,7.90672412109375,-0.39478140811920165,-18.438962790393827,5.08016391441822
1772698484737681000,7.916680908203125,1.4084522549510001,-15.715764153671264,5.27106584098041
1772698484747638000,7.926637939453125,2.9187761538803576,-13.34268010034561,4.9589369971066715
1772698484757596000,7.936595947265625,2.9949019467055797,-11.135901876986026,4.397961987224221
1772698484767552800,7.946552734375,1.738355240446329,-8.837457177320122,3.748406192091107
1772698484777510000,7.956510009765625,0.2033037274956703,-6.2628942738384,2.8408111629292367
1772698484787467000,7.966467041015625,-0.638050066256523,-3.3899475587189194,1.597257355364412
1772698484797424000,7.976424072265625,-0.6685539255917072,-0.45468379589617247,0.20548879818348212
1772698484807381000,7.986381103515625,-0.4345616663763299,2.3355811288833617,-1.0184140958361327
1772698484817338000,7.996338134765625,-0.5730489305684343,4.7119472726196046,-1.8243454246819018
1772698484827295000,8.006294921875,-1.495934139049053,6.583411591351032,-1.9218299396172165
1772698484837251800,8.016251953125,-2.3885060788631436,8.100386764863133,-1.7600839649125932
1772698484847209000,8.026208984375,-2.8370073867321013,9.295476255118846,-1.5786637140534818
1772698484857167000,8.0361669921875,-2.846053447496891,10.184676672673225,-1.446385825895518
1772698484867124000,8.0461240234375,-2.5651380725324153,10.858199034327267,-1.0957101014845072
1772698484877080800,8.056080810546876,-1.967296098023653,11.661821940100193,-0.5048022005552426
1772698484887038000,8.066037841796875,-1.2923182768642902,12.55009413689375,-0.13847731818682513
1772698484896995000,8.0759951171875,-0.4433457517366856,13.468812909877299,0.07903236445430666
1772698484906952000,8.085951904296875,0.6342424906671047,13.891770611166953,0.08289384392173961
1772698484916909000,8.095908935546875,1.5585422786533831,13.639661643970012,-0.2249731777890585
1772698484926866200,8.1058662109375,1.8929203637361525,13.039550555485485,-0.6450212204433977
1772698484936822800,8.11582275390625,1.4895546671450137,12.195698515176773,-0.9700153180439025
1772698484946780000,8.12577978515625,0.512758931713365,11.205633000338077,-1.2259649593822657
1772698484956738000,8.135738037109375,-0.5192424850463867,10.17834396252036,-1.3927730397820473
1772698484966695200,8.145695068359375,-1.027131216907501,9.10063231293261,-1.7856249411433933
1772698484976652000,8.155652099609375,-1.4085048619210718,8.181453521221876,-2.038757698430121
1772698484986609000,8.16560888671875,-1.7300269725620745,7.464787014368176,-2.035147545108944
1772698484996566000,8.17556591796875,-1.7350258037626742,7.178178396198153,-1.7110153981000185
1772698485006523000,8.18552294921875,-1.3837854312062263,7.224097851330042,-1.1725824018280953
1772698485016480000,8.19547998046875,-0.7328291216254234,7.369222946101426,-0.5484457101117819
1772698485026437000,8.20543701171875,-0.08043488819599151,7.574220033511519,0.05995015417514368
1772698485036394000,8.21539404296875,0.4302396749913692,7.923737820059061,0.6315961408767848
1772698485046350800,8.225350830078124,0.8451508479475974,8.311237838998437,1.0763448182139546
1772698485056308700,8.235308837890624,1.0959399647176264,8.56343682256639,1.3084485968016086
1772698485066265900,8.245265869140624,0.9499825107753276,8.529425247371197,1.235161972925067
1772698485076223000,8.255222900390624,0.5913643394598737,8.334137068548799,0.7393888454671949
1772698485086179800,8.265179931640626,0.15285137817449868,8.02239634720981,-0.004629778692498803
1772698485096136700,8.27513671875,-0.30782329216692594,7.686723546141385,-0.6752120683066547
1772698485106093800,8.28509375,-0.5990565379302948,7.302872697359323,-1.2846505187153816
1772698485116050700,8.29505078125,-0.73738605427742,6.8946361798614255,-1.5900138139769433
1772698485126007800,8.3050078125,-0.6823100637435913,6.624667730847,-1.4096085853792726
1772698485135965000,8.31496484375,-0.29813195576854046,6.143101773244142,-1.076421244451031
1772698485145922000,8.324922119140625,0.1814191914131865,5.063426130107045,-0.48526981708947564
1772698485155879700,8.334879638671875,0.5230582074096426,3.276407104256749,0.3359789078755304
1772698485165836800,8.3448369140625,0.8028595201849937,1.0631102927833795,0.9900395036146045
1772698485175794000,8.3547939453125,0.9873124167382716,-1.412439863282442,1.283177377422899
1772698485185750800,8.364750732421875,1.2849942175865172,-3.936156961145997,1.1384159283321351
1772698485195708000,8.3747080078125,1.8644377810955046,-6.381280999287963,0.8116770328909159
1772698485205664800,8.384664794921875,2.3455799603283403,-8.346976676377654,0.21758703132681548
1772698485215622000,8.394621826171875,2.8946821615874767,-9.333995663127302,-0.8224167458310723
1772698485225578800,8.404578857421875,4.791696516638994,-10.477399389809369,-1.7691119054988025
1772698485235536000,8.414535888671875,6.715471452844143,-14.012530495488642,-1.380767106298357
1772698485245494000,8.424493896484375,5.314965188461541,-18.681310242033003,0.49938251359406854
1772698485255450600,8.43445068359375,0.5809878703415393,-20.845794799542425,2.495825174592435
1772698485265407700,8.44440771484375,-4.337292706727982,-20.556683258640764,4.065194259947538
1772698485275364900,8.45436474609375,-6.401261711043119,-18.561230741190908,4.436287626226246
1772698485285322000,8.464322021484374,-4.747417814451456,-15.393484502661227,3.357682242669165
1772698485295278800,8.47427880859375,-0.6767875009298324,-12.367474300986528,1.5688117437332867
1772698485305236000,8.484236083984374,2.7392507768571375,-9.937522113013268,0.25195896426700054
1772698485315192800,8.49419287109375,3.9113866770267482,-8.005291483151913,-0.38149255868550386
1772698485325149700,8.504149658203126,2.7195862914443016,-6.275959507116675,-0.4294363592518493
1772698485335106800,8.51410693359375,0.6988356666088104,-4.49110204321444,-0.5187888960599899
1772698485345065000,8.52406494140625,-0.46907297125458713,-2.6155828961342573,-0.7584880251474678
1772698485355022000,8.53402197265625,-0.5517442402005195,-1.121135196250677,-0.9587521657515317
1772698485364978700,8.543978759765626,-0.38988486824929713,-0.043212534260749814,-0.9804926537208258
1772698485374935800,8.553935791015626,-0.5908925937622785,0.6446119089901446,-0.852283841632679
1772698485384893000,8.563892822265625,-0.9507903200268745,1.3819482789069413,-1.0723706538859754
1772698485394849800,8.573849853515625,-1.1158148780107497,2.175913714018464,-1.6006214249700308
1772698485404807000,8.583806884765625,-0.9859253462940454,2.725897958809137,-1.9128506604783235
1772698485414764000,8.593763916015625,-0.7404822667270898,3.1258629070460793,-1.8750839705333113
1772698485424720600,8.603720703125,-0.42555414752364157,3.550670620116591,-1.3754431347966194
1772698485434677800,8.613677734375,-0.11844751572608947,4.138736466020346,-0.7420974468387663
1772698485444636000,8.623635986328125,0.09334814578294753,4.398729464465379,-0.1561966334817931
1772698485454593000,8.633593017578125,0.06908931831717491,4.473132671281695,0.27254991687498986
1772698485464550000,8.6435498046875,-0.2082376585002057,4.365886933049559,0.4580436642507091
1772698485474506800,8.6535068359375,-0.5683125131636858,4.141182690128684,0.46012196836210784
1772698485484463900,8.6634638671875,-0.6739782887279987,4.103287551498413,0.23217499892665072
1772698485494420700,8.673420654296875,-0.24990415062904356,4.267242434424162,-0.12308385202353819
1772698485504377900,8.6833779296875,0.42659167387783525,4.306230628988146,-0.4480639028323814
1772698485514335000,8.6933349609375,0.9827847101807594,4.108301580268145,-0.6098664300298318
1772698485524291800,8.703291748046874,1.1951643090575932,3.4339147107392547,-0.7316064479626715
1772698485534248700,8.713248779296874,0.9928297188550234,2.6737480848550796,-1.0295195733487605
1772698485544206800,8.723206787109374,0.6182359432399273,2.0218618009477853,-1.4012097364768386
1772698485554164000,8.7331640625,0.3155389445781708,1.3167074527114628,-1.5256617533147334
1772698485564120800,8.743120849609374,0.3832364797433838,0.8023007172584533,-1.5615307929448783
1772698485574078000,8.753077880859376,0.5609878693640232,0.2862117278069258,-1.4894535448580979
1772698485584034800,8.763034912109376,0.5226876205315814,-0.41041795319020746,-1.1077296251021325
1772698485593991700,8.77299169921875,0.2084592470953241,-1.243056525567174,-0.45347661206349726
1772698485603948800,8.78294873046875,-0.08280044828355312,-1.8431150070816278,0.07699428275544196
1772698485613906000,8.792906005859376,-0.1665092435836792,-2.0739403632313014,0.35577889276891944
1772698485623862800,8.80286279296875,0.007510521760582923,-2.0715093366920945,0.5118962139368057
1772698485633820000,8.81281982421875,0.19464575273301452,-1.8845932648956774,0.4931589994367212
1772698485643777800,8.82277783203125,0.3202215859690681,-1.6053601439297198,0.451519778907299
1772698485653735000,8.83273486328125,0.03740121763348579,-1.2879571590453385,0.37574732956439255
1772698485663691800,8.84269189453125,-0.8012433171600103,-0.7361001061201096,0.4011457189867273
1772698485673649000,8.85264892578125,0.015462942069768905,-0.49589551172852514,-0.203462352123484
1772698485683606000,8.86260595703125,-0.6014876375347376,0.26508886027932166,-0.4980452736409381
1772698485693562600,8.872562744140625,0.18262509660422802,0.3028589112251997,-0.7905250853992998
1772698485703519700,8.882519775390625,0.8195838604927063,0.11708090354800224,-0.8126696241248399
1772698485713476900,8.892476806640625,1.0242191288530826,-0.3022393180221319,-0.08108469387423246
1772698485723433700,8.902433837890625,1.0721709665954113,-0.4732505492001772,0.6001301219785585
1772698485733392000,8.912391845703125,0.7571949165970087,-0.40122342386543747,0.879660216597095
1772698485743348700,8.9223486328125,0.5847562829643488,-0.16905658997893333,-0.3780900932982564
1772698485753305900,8.932305908203125,-0.7761755113989114,-0.10670271739661694,-1.447618582560867
1772698485763262700,8.9422626953125,0.024340678796637802,0.06526946776807308,-0.7286160339750349
1772698485773219800,8.9522197265625,1.2353636329770088,0.41018765156567094,0.38802396974824366
1772698485783177000,8.962177001953124,0.8497825994014739,0.3803869720637798,0.5360592163452879
1772698485793133800,8.9721337890625,-0.1290320563708432,0.27108605486750603,0.44655828404240305
1772698485803090700,8.982090576171874,-0.3897381532549858,0.2741238151282072,0.46007827535085377
1772698485813047800,8.9920478515625,-0.3910276085436344,0.32390871351659295,0.5060056945934891
1772698485823004700,9.002004638671876,-0.21963234648406504,0.3482014432519674,0.45126076264493165
1772698485832962800,9.011962890625,0.15697686060667038,0.4876975922256708,0.3008822773899883
1772698485842920000,9.021919921875,0.47203591271340845,0.7375175717025995,0.1934426970861852
1772698485852876800,9.031876708984376,0.5398644173145294,0.9008996231764554,0.006186616213060915
1772698485862833700,9.041833740234376,0.5005787011086941,1.0187006576925515,-0.072364796323888
1772698485872790800,9.051790771484375,0.17249416321218014,1.2796090174168349,-0.1430904836712405
1772698485882748000,9.061747802734375,-0.6753028153300284,0.555740031838417,0.4345474186552688
1772698485892704800,9.071704833984375,0.07629880673799197,1.2470125697165726,-0.08383070464674383
1772698485902662000,9.081661865234375,0.4169266044318676,2.304985499611497,-0.29546923936530944
1772698485912618800,9.09161865234375,0.14175475068860688,1.9753104776531456,0.14678301804624497
1772698485922576000,9.101575927734375,0.048531683456897734,0.8382312778174876,0.4481565130192786
1772698485932533800,9.11153369140625,0.2381996843099594,0.4087520658046007,-0.16600648169331253
1772698485942491000,9.121490966796875,-0.9078466658353805,0.17799217610657214,0.698100776463002
1772698485952448000,9.131447998046875,-0.4348766871422529,0.09776537770330905,0.14077902839109302
1772698485962404600,9.141404541015625,0.1297802352564875,-0.778363961353898,-0.3689345077443868
1772698485972361700,9.15136181640625,0.1668880137681961,-2.171978712657094,-0.47659262616969644
1772698485982318800,9.16131884765625,0.08327565544671378,-2.46330033082366,-0.5004328628972172
1772698485992276000,9.17127587890625,0.3014981442660093,-1.9844494773983954,-0.4597059349071234
1772698486002232800,9.18123291015625,0.6176297940403223,-1.468736920043826,-0.20290406065359712
1772698486012190000,9.19118994140625,0.6740238814353943,-1.2615320934563874,-0.19553243590705097
1772698486022146800,9.201146728515624,0.48246553679108617,-1.213259353196621,-0.3711941232394427
1772698486032104700,9.211104736328124,0.18867197555303572,-1.0070552280843257,-0.1202346914038062
1772698486042061800,9.221061767578124,-0.0759866766154766,-0.7732955720484256,0.25960721399784087
1772698486052019000,9.23101904296875,0.15229367122650145,-0.4867512512862682,-0.035179230735078455
1772698486061976000,9.24097607421875,0.4291133013099432,-0.25199089377522466,-0.5988125000413507
1772698486071933000,9.250932861328126,0.31451836935877797,-0.17058043854534624,-0.5673809314019977
1772698486081889800,9.260889892578126,0.0935720176666975,-0.2298644021630287,-0.15135091048367322
1772698486091847000,9.270846923828126,-0.11017419289946555,-0.2509516138553619,0.14751140538603066
1772698486101804000,9.280803955078126,-0.1803390314936638,-0.10871464174091815,0.20963483021333812
1772698486111761000,9.290760986328126,-0.17661038462566211,0.1708884815812111,0.11010149298943578
1772698486121718000,9.300718017578125,-0.1522323146943934,0.4924988550275564,0.05042758020609617
1772698486131676000,9.310676025390626,-0.18736149574266744,0.6683119335293769,0.05822619819305837
1772698486141633000,9.320633056640625,-0.28943598708305507,0.7197206337273121,0.0816087542809546
1772698486151590000,9.33058984375,-0.3702870183318853,0.6491612428575754,0.03939187999404967
1772698486161547000,9.340547119140625,-0.43572954111192375,0.5294283634960651,0.0882328485958278
1772698486171504000,9.350504150390625,-0.5196890963027253,0.5283166028618812,0.17197525390461085
1772698486181460700,9.360460693359375,-0.4588894674250856,0.6078180096000433,0.21415742220431566
1772698486191417900,9.37041796875,-0.4727244794994592,0.6529097817361355,0.20869272705763578
1772698486201375000,9.380375,-0.3787017954558134,0.6326689577400684,0.21012451342642305
1772698486211331800,9.390331787109375,-0.3800526255428791,0.19139117138385772,0.23417378979474304
1772698486221290000,9.4002900390625,-0.4013537722468376,-0.13506371948421,0.28216121030710634
1772698486231246800,9.410246826171875,-0.537541563857533,-0.7017448320537805,0.18951492918319998
1772698486241204000,9.420203857421875,-0.3967272814899683,-0.5026052385002374,0.18653057961016892
1772698486251160800,9.430160888671875,-0.3421247536867857,-0.5204939464122057,-0.030731019154563544
1772698486261118000,9.440117919921875,-0.37165830668509003,-1.1915882041364907,-0.2817909887552261
1772698486271075000,9.450074951171874,-0.24344226113855838,-0.5636673177063465,0.07873195673562586
1772698486281032000,9.460031982421874,-0.20466917062997816,-0.11120645855665207,-0.1157163371965289
1772698486290988800,9.46998876953125,-0.16405713772382585,0.09349252268970012,-0.12670805213637648
1772698486300946000,9.47994580078125,-0.20739249464664608,0.5553448950409889,0.14629479613788426
1772698486310903000,9.489903076171874,-0.21652681821677833,0.8871773872941732,0.18876535292491314
1772698486320861000,9.49986083984375,-0.2410364055732265,1.057948964497447,0.14509535722024738
1772698486330818000,9.509818115234374,-0.1827776568174362,1.0167816723287104,0.07555990257076918
1772698486340775000,9.51977490234375,-0.1267992010185495,0.7185983516991138,-0.06941065922603011
1772698486350731800,9.529731689453126,-0.08038286574780941,0.2627805833369493,-0.15546835573986173
1772698486360689000,9.53968896484375,-0.10073884055614471,-0.10526303998231887,-0.17980412089936434
1772698486370646000,9.54964599609375,-0.007993318575154989,-0.30141864928901196,-0.22680055761300025
1772698486380603100,9.55960302734375,0.028678963729273525,-0.35334465135931964,-0.19062968549206852
1772698486390560000,9.56956005859375,0.03946339259399101,-0.2386959433943033,-0.14279920910708604
1772698486400516900,9.579516845703125,0.050638884869217866,-0.012793430599570273,0.07524988677352666
1772698486410474000,9.589473876953125,-0.0617500432039611,0.20550211432278154,0.224189059940353
1772698486420432000,9.599431884765625,-0.02517886492013931,0.3503045530110597,0.24731259976588188
1772698486430389000,9.609388916015625,-0.012835516175627708,0.3672925126910209,0.15870061565935611
1772698486440346000,9.61934619140625,-0.019649306110013275,0.30604572456777096,0.04498867708779871
1772698486450303000,9.629302978515625,-0.033258144745696334,0.2774859850376844,0.0019396628256887196
1772698486460259800,9.639259765625,-0.10518237596154212,0.29371172817349434,0.08190949079319834
1772698486470217000,9.649217041015625,-0.19327216282486914,0.311006561845541,0.2087387581564486
1772698486480174000,9.659174072265625,-0.2483084058701992,0.17870178568065165,0.23239691631533205
1772698486490131000,9.669130859375,-0.23159458695650098,0.026546646142005918,0.3099014501478523
1772698486500088000,9.679088134765625,-0.19993746593296527,-0.03784720783531666,0.2297874644692987
1772698486510046000,9.6890458984375,-0.15349311014413833,-0.014433014500141143,0.16098412348665297
1772698486520002800,9.6990029296875,-0.09943358491016552,0.016861118429899215,0.12066906423307955
1772698486529960000,9.7089599609375,-0.08269001017902046,-0.030890812826156615,0.2469839523334056
1772698486539917000,9.7189169921875,-0.09078910894989967,-0.11981120529472827,0.4417828132688999
1772698486549874200,9.728874267578124,-0.16111297403071076,-0.277180864611268,0.4070889548979699
1772698486559830800,9.738830810546874,-0.13650869412813335,-0.3324199367523193,0.24212913271337747
1772698486569788000,9.748787841796876,-0.10064586504306644,-0.21441665766239165,0.06139079970382154
1772698486579745000,9.7587451171875,-0.09649166797306388,-0.04341244074702263,-0.01138071425743401
1772698486589702000,9.768701904296876,-0.1125595901986584,0.19629531003832815,-0.00699358521439135
1772698486599659000,9.778658935546876,-0.009408427803777158,0.47858372692167755,-0.06607932284623384
1772698486609617000,9.788616943359376,0.12255206496808677,0.6364730261981487,0.08703552857004106
1772698486619574000,9.798573974609376,0.10269465079903602,0.6012134967684746,0.3460361549768597
1772698486629531000,9.80853076171875,0.025894867702387272,0.4049737163096666,0.42285299880616367
1772698486639488000,9.818488037109375,0.12126662826742976,0.16847908235192297,0.26181685287132855
1772698486649445000,9.828445068359375,0.18587390579972415,-0.26853110968768595,0.008161240754276513
1772698486659402000,9.838402099609375,0.24282913420889526,-0.634014527130127,-0.20863573617339132
1772698486669358800,9.84835888671875,0.287930806684494,-0.5368611438453197,-0.2826644836541265
1772698486679316000,9.85831591796875,0.30474282527565955,-0.18297990139126777,-0.1716588083665818
1772698486689272800,9.86827294921875,0.22100129674971103,0.1254261225670576,-0.016465324045345186
1772698486699230000,9.87822998046875,0.05141158627476543,0.39078094030618665,0.17434059479646383
1772698486709188000,9.88818798828125,-0.056426784088276324,0.46953532806932924,0.3009241437703371
1772698486719145000,9.89814501953125,-0.04041088431086391,0.4248948068320751,0.2836838898297399
