time,seconds_elapsed,z,y,x
1772698476891485200,0.070485107421875,-0.02377445623278618,0.011803533881902695,0.27964556217193604
1772698476901442000,0.080442138671875,0.01436786912381649,0.027087146416306496,0.1274416297674179
1772698476911399200,0.090399169921875,0.05579201504588127,0.03915661945939064,0.002509482204914093
1772698476921356300,0.100356201171875,0.0842694640159607,0.03700558468699455,-0.0697772279381752
1772698476931313200,0.110313232421875,0.09508083015680313,0.037649814039468765,-0.09301521629095078
1772698476941270000,0.12027001953125,0.08619146794080734,0.04560787230730057,-0.0786309465765953
1772698476951227100,0.13022705078125,0.06748035550117493,0.06575171649456024,-0.04816587269306183
1772698476961184000,0.14018408203125,0.05620612949132919,0.07851118594408035,-0.013424403965473175
1772698476971141000,0.15014111328125,0.06229174882173538,0.07882208377122879,0.021520737558603287
1772698476981099000,0.16009912109375,0.08882881700992584,0.07924472540616989,0.053889065980911255
1772698476991056100,0.17005615234375,0.1079297661781311,0.07414223253726959,0.08192432671785355
1772698477001013000,0.180012939453125,0.11770570278167725,0.07301919162273407,0.10709120333194733
1772698477010970000,0.18997021484375,0.1287008374929428,0.06652991473674774,0.14756573736667633
1772698477020927200,0.19992724609375,0.1394946277141571,0.05180077627301216,0.19481180608272552
1772698477030884000,0.209884033203125,0.14198894798755646,0.03235463798046112,0.2521592676639557
1772698477040841200,0.21984130859375,0.12850482761859894,0.012122602201998234,0.2888389825820923
1772698477050798000,0.229798095703125,0.10092059522867203,-0.001336272805929184,0.31028130650520325
1772698477060755200,0.239755126953125,0.06354712694883347,0.0010094395838677883,0.2883523106575012
1772698477070712300,0.24971240234375,0.029466386884450912,0.007769353222101927,0.2369524985551834
1772698477080670500,0.25967041015625,0.014800092205405235,0.009959535673260689,0.15874184668064117
1772698477090627000,0.269626953125,0.01173720508813858,0.01390345860272646,0.08121734112501144
1772698477100584200,0.279584228515625,0.017732247710227966,0.016181260347366333,0.010599367320537567
1772698477110541300,0.289541259765625,0.002481644507497549,0.00996594037860632,-0.0365147739648819
1772698477120498200,0.299498291015625,-0.04595539718866348,-0.011867719702422619,-0.06366410106420517
1772698477130455300,0.309455322265625,-0.11077700555324554,-0.02531750500202179,-0.08092717081308365
1772698477140412400,0.319412353515625,-0.15584436058998108,-0.045574575662612915,-0.08752808719873428
1772698477150369300,0.329369384765625,-0.15945768356323242,-0.06955915689468384,-0.08878252655267715
1772698477160326100,0.339326171875,-0.1241668164730072,-0.08606542646884918,-0.07817941904067993
1772698477170283300,0.349283203125,-0.07799005508422852,-0.09809564054012299,-0.057200320065021515
1772698477180241400,0.359241455078125,-0.029953021556138992,-0.1015862450003624,-0.04028152674436569
1772698477190198300,0.3691982421875,0.018361328169703484,-0.09855050593614578,-0.02350524067878723
1772698477200155100,0.379155029296875,0.056400056928396225,-0.09217517077922821,-0.0031967731192708015
1772698477210112300,0.3891123046875,0.09019523113965988,-0.08442161977291107,0.00515113165602088
1772698477220069000,0.399069091796875,0.1168484166264534,-0.08087455481290817,0.007859300822019577
1772698477230026200,0.409026123046875,0.13064146041870117,-0.09746735543012619,0.00035310862585902214
1772698477239983400,0.4189833984375,0.14531521499156952,-0.11941313743591309,-0.005229942500591278
1772698477249940200,0.428940185546875,0.13727648556232452,-0.1388290971517563,-0.016966214403510094
1772698477259897300,0.4388974609375,0.1075417622923851,-0.1405729353427887,-0.02319561503827572
1772698477269854200,0.448854248046875,0.054352324455976486,-0.15355180203914642,-0.018304862082004547
1772698477279812400,0.458812255859375,-0.01109219714999199,-0.15944804251194,-0.029307179152965546
1772698477289769200,0.468769287109375,-0.05277227982878685,-0.12294413894414902,-0.054700810462236404
1772698477299726300,0.478726318359375,-0.06514665484428406,-0.13037168979644775,-0.05124429240822792
1772698477309683200,0.48868310546875,-0.06796641647815704,-0.15186528861522675,-0.03583836555480957
1772698477319640000,0.49864013671875,-0.06063393875956535,-0.1639632284641266,-0.019067376852035522
1772698477329597200,0.50859716796875,-0.04694289341568947,-0.18084874749183655,-0.011855535209178925
1772698477339554300,0.51855419921875,-0.029648857191205025,-0.2272481918334961,0.02583511732518673
1772698477349511200,0.52851123046875,0.029944170266389847,-0.252021461725235,0.13555359840393066
1772698477359468300,0.53846826171875,0.11839067190885544,-0.19886474311351776,0.2729061245918274
1772698477369426200,0.54842626953125,0.13536329567432404,-0.14720946550369263,0.3019181191921234
1772698477379383300,0.55838330078125,0.0578562468290329,-0.11770830303430557,0.19955526292324066
1772698477389340200,0.568340087890625,-0.07117576152086258,-0.06954555213451385,0.020537763833999634
1772698477399297300,0.57829736328125,-0.21328869462013245,-0.020185187458992004,-0.12680508196353912
1772698477409254400,0.58825439453125,-0.30545297265052795,0.0010865447111427784,-0.20285485684871674
1772698477419211300,0.598211181640625,-0.2988952100276947,-0.003318590112030506,-0.2601205110549927
1772698477429168000,0.608168212890625,-0.22665756940841675,-0.018211256712675095,-0.26572486758232117
1772698477439125200,0.618125244140625,-0.17509664595127106,-0.04681041091680527,-0.20815956592559814
1772698477449082000,0.62808203125,-0.13651993870735168,-0.0693364143371582,-0.2034321427345276
1772698477459040300,0.638040283203125,-0.10789282619953156,-0.06392780691385269,-0.2002241015434265
1772698477468997000,0.6479970703125,-0.09231438487768173,-0.07108102738857269,-0.16341345012187958
1772698477478954200,0.657954345703125,-0.10433749109506607,-0.05209454894065857,-0.1380588263273239
1772698477488911000,0.6679111328125,-0.16325083374977112,-0.00983802042901516,-0.1317255049943924
1772698477498868200,0.6778681640625,-0.2163446694612503,0.04571578651666641,-0.13827954232692719
1772698477508825300,0.687825439453125,-0.23637059330940247,0.08528792858123779,-0.15092891454696655
1772698477518782200,0.6977822265625,-0.21088148653507233,0.08743257075548172,-0.16520185768604279
1772698477528739300,0.7077392578125,-0.18203121423721313,0.08136550337076187,-0.17462429404258728
1772698477538696200,0.7176962890625,-0.1915975660085678,0.0775609165430069,-0.17537130415439606
1772698477548653300,0.7276533203125,-0.24911196529865265,0.07593537122011185,-0.13398194313049316
1772698477558611200,0.737611083984375,-0.3262312710285187,0.10541416704654694,-0.06307021528482437
1772698477568568300,0.747568359375,-0.4131177067756653,0.15904507040977478,0.015311963856220245
1772698477578525200,0.757525146484375,-0.49584802985191345,0.19491039216518402,0.07744511216878891
1772698477588482000,0.76748193359375,-0.5031111836433411,0.2073155641555786,0.1445259004831314
1772698477598439200,0.777439208984375,-0.5168403387069702,0.21638256311416626,0.13318189978599548
1772698477608396300,0.787396240234375,-0.47727856040000916,0.25792279839515686,0.09176049381494522
1772698477618353400,0.797353515625,-0.3224106729030609,0.10697748512029648,0.39547884464263916
1772698477628310300,0.807310302734375,-0.1101122573018074,-0.060384586453437805,0.8864927291870117
1772698477638267400,0.817267333984375,0.027981432154774666,-0.19516503810882568,1.1343640089035034
1772698477648224300,0.827224365234375,0.09544514119625092,-0.22326171398162842,1.1927372217178345
1772698477658182100,0.83718212890625,0.11747001856565475,-0.21197150647640228,1.0813318490982056
1772698477668139300,0.84713916015625,0.10476384311914444,-0.19334660470485687,0.8510506749153137
1772698477678096400,0.857096435546875,0.06953554600477219,-0.17760199308395386,0.5393471121788025
1772698477688053200,0.86705322265625,0.014603797346353531,-0.1459321230649948,0.2124614715576172
1772698477698010000,0.877010009765625,-0.0542285330593586,-0.10975441336631775,-0.07119926065206528
1772698477707967200,0.88696728515625,-0.1345536708831787,-0.05653122439980507,-0.2495429515838623
1772698477717924400,0.89692431640625,-0.22269631922245026,-0.02150719240307808,-0.30249884724617004
1772698477727881200,0.906881103515625,-0.27069345116615295,-0.008492476306855679,-0.28203198313713074
1772698477737838300,0.91683837890625,-0.2522486746311188,-0.058028336614370346,-0.2494063824415207
1772698477747796200,0.926796142578125,-0.1739349216222763,-0.12756283581256866,-0.2529130280017853
1772698477757753000,0.936753173828125,-0.04707443714141846,-0.1618230789899826,-0.271573007106781
1772698477767710200,0.946710205078125,0.10517685860395432,-0.16597872972488403,-0.25796085596084595
1772698477777667300,0.956667236328125,0.20776183903217316,-0.15184852480888367,-0.1925160437822342
1772698477787624400,0.96662451171875,0.22249947488307953,-0.12224707007408142,-0.06073323264718056
1772698477797581300,0.976581298828125,0.15483494102954865,-0.08000214397907257,0.09874404221773148
1772698477807538200,0.9865380859375,0.053561367094516754,-0.023517102003097534,0.21109530329704285
1772698477817495300,0.996495361328125,-0.03773419186472893,0.01149627473205328,0.25879332423210144
1772698477827452200,1.0064521484375,-0.09062804281711578,0.012834489345550537,0.23592908680438995
1772698477837409300,1.0164091796875,-0.10518328100442886,0.004352853167802095,0.16079305112361908
1772698477847367200,1.0263671875,-0.1008082702755928,0.02020788937807083,0.08520511537790298
1772698477857324300,1.03632421875,-0.09811634570360184,0.02916010469198227,0.030784212052822113
1772698477867281200,1.04628125,-0.09796667844057083,0.028554491698741913,0.026140497997403145
1772698477877238300,1.05623828125,-0.09768890589475632,-0.00047103501856327057,0.06563357263803482
1772698477887195400,1.0661953125,-0.07634851336479187,-0.04218611866235733,0.15804433822631836
1772698477897152300,1.07615234375,-0.045861970633268356,-0.0931110829114914,0.29969629645347595
1772698477907109400,1.086109375,-0.04413139075040817,-0.09986892342567444,0.4551861882209778
1772698477917066200,1.096066162109375,-0.06907908618450165,-0.06558525562286377,0.601169764995575
1772698477927023000,1.106023193359375,-0.09124939143657684,-0.04213646799325943,0.7240330576896667
1772698477936981200,1.115981201171875,-0.06949802488088608,-0.050716109573841095,0.7755300402641296
1772698477946938400,1.1259384765625,0.013825178146362305,-0.07074227184057236,0.7472483515739441
1772698477956895200,1.135895263671875,0.13582618534564972,-0.058547649532556534,0.6801252365112305
1772698477966852000,1.14585205078125,0.20687100291252136,-0.04799773544073105,0.6126945614814758
1772698477976809200,1.155809326171875,0.22162652015686035,-0.016530092805624008,0.5508264303207397
1772698477986766300,1.165766357421875,0.20006611943244934,0.01538051851093769,0.47279900312423706
1772698477996723200,1.17572314453125,0.16288626194000244,0.037369705736637115,0.36125651001930237
1772698478006680300,1.185680419921875,0.10302851349115372,0.056260790675878525,0.21816660463809967
1772698478016637400,1.195637451171875,0.018801512196660042,0.06211628392338753,0.05168068781495094
1772698478026594000,1.205593994140625,-0.0680486410856247,0.06337346881628036,-0.09821534156799316
1772698478036552200,1.21555224609375,-0.16679254174232483,0.04828799515962601,-0.19939708709716797
1772698478046510000,1.225510009765625,-0.2533263564109802,0.01458113081753254,-0.22682009637355804
1772698478056467000,1.235467041015625,-0.30116766691207886,-0.022522296756505966,-0.1807548552751541
1772698478066423800,1.245423828125,-0.28825584053993225,-0.10375163704156876,-0.04930095374584198
1772698478076381000,1.255380859375,-0.276053249835968,-0.20623326301574707,0.10352161526679993
1772698478086338000,1.265338134765625,-0.2747124135494232,-0.2821543216705322,0.2158752828836441
1772698478096295200,1.275295166015625,-0.2969745695590973,-0.31071776151657104,0.25023698806762695
1772698478106252000,1.285251953125,-0.2831774950027466,-0.30353567004203796,0.22697855532169342
1772698478116209200,1.295209228515625,-0.1964023858308792,-0.3100771903991699,0.1087922602891922
1772698478126167000,1.3051669921875,-0.09299267828464508,-0.32729408144950867,-0.14850473403930664
1772698478136124000,1.3151240234375,-0.047346629202365875,-0.332643061876297,-0.5117668509483337
1772698478146081000,1.3250810546875,-0.0973174050450325,-0.3165821433067322,-0.8580387234687805
1772698478156038100,1.3350380859375,-0.19867971539497375,-0.30011555552482605,-1.0011061429977417
1772698478165995000,1.3449951171875,-0.3025672137737274,-0.2612367868423462,-0.8861921429634094
1772698478175952000,1.354951904296875,-0.3944427967071533,-0.2456599324941635,-0.6537945866584778
1772698478185909000,1.364908935546875,-0.4758939743041992,-0.1901351511478424,-0.48882535099983215
1772698478195866000,1.3748662109375,-0.5479239225387573,-0.14057666063308716,-0.46544012427330017
1772698478205823000,1.384822998046875,-0.605633556842804,-0.10759204626083374,-0.565351128578186
1772698478215780900,1.39478076171875,-0.6592558026313782,-0.057737138122320175,-0.692010760307312
1772698478225738000,1.404738037109375,-0.7297238111495972,0.027390310540795326,-0.8005582094192505
1772698478235694800,1.41469482421875,-0.8049226999282837,0.1184789389371872,-0.8857463002204895
1772698478245652000,1.42465185546875,-0.8304850459098816,0.18272797763347626,-0.9369205832481384
1772698478255609000,1.434609130859375,-0.7234494090080261,0.18306779861450195,-0.8923414349555969
1772698478265566200,1.444566162109375,-0.4667716324329376,0.1231723427772522,-0.6902660727500916
1772698478275523000,1.454523193359375,-0.17439328134059906,0.006914976052939892,-0.3566036820411682
1772698478285480000,1.46447998046875,0.05050751939415932,-0.0872606486082077,-0.012927977368235588
1772698478295437000,1.47443701171875,0.1296960860490799,-0.13554641604423523,0.23272466659545898
1772698478305394000,1.484393798828125,0.08159966766834259,-0.09735961258411407,0.3438173234462738
1772698478315352000,1.49435205078125,-0.021029507741332054,0.011379119008779526,0.29713985323905945
1772698478325309000,1.504308837890625,-0.0894613265991211,0.0953972265124321,0.2112550437450409
1772698478335266000,1.51426611328125,-0.08543489128351212,0.14384251832962036,0.17732344567775726
1772698478345223000,1.524222900390625,-0.04151060804724693,0.15662294626235962,0.24127447605133057
1772698478355180000,1.534179931640625,0.02398398332297802,0.13380683958530426,0.37162503600120544
1772698478365137200,1.54413720703125,0.10023404657840729,0.11438161134719849,0.5223984718322754
1772698478375094000,1.554093994140625,0.1706317961215973,0.08576301485300064,0.6150602102279663
1772698478385051100,1.564051025390625,0.2347591072320938,0.06166912615299225,0.6103323101997375
1772698478395008000,1.574008056640625,0.3041016757488251,0.028561774641275406,0.4887041449546814
1772698478404964900,1.58396484375,0.38120609521865845,-0.005858133547008038,0.28814348578453064
1772698478414923000,1.593923095703125,0.4435374140739441,-0.02745530568063259,0.08769961446523666
1772698478424880000,1.603880126953125,0.47844237089157104,-0.050488997250795364,-0.028270363807678223
1772698478434837000,1.6138369140625,0.4944050908088684,-0.06931408494710922,-0.025696415454149246
1772698478444793900,1.6237939453125,0.4872954785823822,-0.08125559240579605,0.04045141860842705
1772698478454751000,1.6337509765625,0.44521698355674744,-0.054329972714185715,0.1072717234492302
1772698478464708000,1.6437080078125,0.36545583605766296,-0.003830612637102604,0.14403864741325378
1772698478474665000,1.6536650390625,0.29193687438964844,0.0548473484814167,0.14425009489059448
1772698478484622000,1.6636220703125,0.26415106654167175,0.08412590622901917,0.1247716173529625
1772698478494579200,1.6735791015625,0.2776423692703247,0.08103850483894348,0.11471126228570938
1772698478504535800,1.683535888671875,0.3220175802707672,0.05268462747335434,0.12097208946943283
1772698478514494000,1.693493896484375,0.3755950331687927,0.023125939071178436,0.15680919587612152
1772698478524451000,1.703451171875,0.40633195638656616,-0.017627233639359474,0.23704001307487488
1772698478534408200,1.713408203125,0.4169611632823944,-0.07411021739244461,0.35243692994117737
1772698478544365000,1.723364990234375,0.3923330008983612,-0.09161021560430527,0.44791048765182495
1772698478554322000,1.733322021484375,0.31551119685173035,-0.08565458655357361,0.47562122344970703
1772698478564279000,1.743279052734375,0.2146139293909073,-0.059580229222774506,0.42949265241622925
1772698478574236000,1.75323583984375,0.15018779039382935,-0.041471000760793686,0.37856557965278625
1772698478584193000,1.763193115234375,0.15931737422943115,-0.07398208975791931,0.3843443989753723
1772698478594150100,1.773150146484375,0.2238103449344635,-0.10814698040485382,0.44639816880226135
1772698478604107000,1.78310693359375,0.30166730284690857,-0.1388179063796997,0.5775778293609619
1772698478614065000,1.79306494140625,0.3547840416431427,-0.15884646773338318,0.769740879535675
1772698478624022000,1.80302197265625,0.38769030570983887,-0.1596800982952118,0.9931701421737671
1772698478633979100,1.812979248046875,0.398062527179718,-0.17437408864498138,1.2015068531036377
1772698478643936000,1.82293603515625,0.31601670384407043,-0.19582413136959076,1.2745654582977295
1772698478653893000,1.83289306640625,0.19747033715248108,-0.21056897938251495,1.0942670106887817
1772698478663850000,1.84285009765625,0.13096322119235992,-0.26862215995788574,0.5926888585090637
1772698478673806800,1.852806884765625,0.11551956087350845,-0.3447329103946686,-0.07319808751344681
1772698478683764000,1.862763916015625,0.06733419001102448,-0.4522044360637665,-0.5973197817802429
1772698478693721000,1.87272119140625,-0.07845869660377502,-0.5777162909507751,-0.7784515023231506
1772698478703679000,1.882678955078125,-0.29623720049858093,-0.5734822154045105,-0.6500189900398254
1772698478713635800,1.8926357421875,-0.5361464619636536,-0.40385401248931885,-0.34844183921813965
1772698478723593000,1.902593017578125,-0.6667209267616272,-0.14556655287742615,0.020118050277233124
1772698478733550000,1.912550048828125,-0.5956810712814331,0.06058982014656067,0.3764178454875946
1772698478743507000,1.9225068359375,-0.337494820356369,0.22560055553913116,0.5391963124275208
1772698478753464000,1.932464111328125,0.02516593411564827,0.27030569314956665,0.4223759174346924
1772698478763421200,1.942421142578125,0.3871252238750458,0.29586654901504517,0.05423809587955475
1772698478773377800,1.952377685546875,0.6587817668914795,0.2953781187534332,-0.3907518982887268
1772698478783335000,1.9623349609375,0.7842408418655396,0.29016682505607605,-0.6739294528961182
1772698478793292000,1.9722919921875,0.7974227070808411,0.20095013082027435,-0.6728031635284424
1772698478803250200,1.982250244140625,0.7159838080406189,0.0437311977148056,-0.48421990871429443
1772698478813206800,1.992206787109375,0.5615838766098022,-0.15669085085391998,-0.22593028843402863
1772698478823164000,2.002163818359375,0.34269195795059204,-0.3355368673801422,0.01605842262506485
1772698478833121000,2.01212109375,0.06570854783058167,-0.4505601227283478,0.16197781264781952
1772698478843078000,2.022077880859375,-0.2061479687690735,-0.47150203585624695,0.2115335464477539
1772698478853035000,2.032034912109375,-0.41698217391967773,-0.43016207218170166,0.17478032410144806
1772698478862992100,2.0419921875,-0.5168379545211792,-0.3596980571746826,0.10038453340530396
1772698478872949000,2.051948974609375,-0.49871379137039185,-0.27413439750671387,0.03291814401745796
1772698478882905900,2.06190576171875,-0.37523284554481506,-0.16907377541065216,0.016871802508831024
1772698478892864000,2.071864013671875,-0.1969776451587677,-0.06251750886440277,0.037817295640707016
1772698478902821000,2.081821044921875,-0.005330451298505068,0.03964187949895859,0.061990007758140564
1772698478912778000,2.091778076171875,0.1562991887331009,0.10422459989786148,0.06941064447164536
1772698478922734800,2.10173486328125,0.26648399233818054,0.1347893625497818,0.07052219659090042
1772698478932692000,2.11169189453125,0.28783535957336426,0.15052518248558044,0.07667463272809982
1772698478942648800,2.12164892578125,0.2453201711177826,0.16597992181777954,0.1099405437707901
1772698478952606000,2.13160595703125,0.19682267308235168,0.19038859009742737,0.1571706384420395
1772698478962563000,2.14156298828125,0.1573532521724701,0.21727731823921204,0.19712886214256287
1772698478972520200,2.151520263671875,0.14763803780078888,0.23139925301074982,0.20132148265838623
1772698478982477000,2.16147705078125,0.14796239137649536,0.2531649172306061,0.17930805683135986
1772698478992435000,2.17143505859375,0.14047864079475403,0.2833843231201172,0.15549620985984802
1772698479002392000,2.18139208984375,0.11106541007757187,0.31558457016944885,0.12114054709672928
1772698479012349000,2.191348876953125,0.07849601656198502,0.34156689047813416,0.08250472694635391
1772698479022306000,2.20130615234375,0.05754143372178078,0.34092867374420166,0.056639134883880615
1772698479032263200,2.21126318359375,0.06449441611766815,0.31239157915115356,0.06712374091148376
1772698479042220000,2.221219970703125,0.09562495350837708,0.28571298718452454,0.10599130392074585
1772698479052176100,2.231176025390625,0.1318705677986145,0.2559982240200043,0.12492505460977554
1772698479062133200,2.24113330078125,0.1509518176317215,0.25593870878219604,0.08613144606351852
1772698479072090000,2.251090087890625,0.15180668234825134,0.2840268015861511,0.006490678060799837
1772698479082047200,2.261047119140625,0.1781056970357895,0.2950153350830078,-0.051120102405548096
1772698479092005400,2.27100537109375,0.2011825293302536,0.269894003868103,-0.05193023756146431
1772698479101962200,2.280962158203125,0.1775434911251068,0.2035714089870453,-0.0436578169465065
1772698479111919000,2.290919189453125,0.09395911544561386,0.1326490342617035,-0.07413636147975922
1772698479121876200,2.300876220703125,-0.042529989033937454,0.054719727486371994,-0.10781368613243103
1772698479131833300,2.310833251953125,-0.17727023363113403,-0.045586638152599335,-0.09649445861577988
1772698479141790200,2.320790283203125,-0.26812639832496643,-0.15242241322994232,-0.03202395513653755
1772698479151747300,2.330747314453125,-0.31071436405181885,-0.2261408418416977,0.061884429305791855
1772698479161704200,2.3407041015625,-0.3512103855609894,-0.27124759554862976,0.13661934435367584
1772698479171661000,2.3506611328125,-0.42024165391921997,-0.2834102511405945,0.17372436821460724
1772698479181619200,2.360619140625,-0.4963132441043854,-0.2837996184825897,0.16741879284381866
1772698479191576300,2.370576416015625,-0.5152387022972107,-0.2635017931461334,0.12983015179634094
1772698479201533400,2.380533447265625,-0.4839839041233063,-0.2440323531627655,0.024839190766215324
1772698479211490000,2.390489990234375,-0.4130524694919586,-0.24754559993743896,-0.14155378937721252
1772698479221447200,2.400447265625,-0.3591172993183136,-0.2573498487472534,-0.29929038882255554
1772698479231404300,2.410404296875,-0.3713497221469879,-0.2701415717601776,-0.35032108426094055
1772698479241361200,2.420361083984375,-0.3968087434768677,-0.250207781791687,-0.2708771228790283
1772698479251318300,2.430318359375,-0.383253276348114,-0.20253987610340118,-0.13838300108909607
1772698479261275400,2.440275390625,-0.2543026804924011,-0.1375466138124466,-0.0237407349050045
1772698479271232300,2.450232177734375,-0.10265138000249863,-0.07121314108371735,0.02565664052963257
1772698479281190100,2.460190185546875,0.03097003884613514,0.05813382565975189,-0.01654987782239914
1772698479291147300,2.470147216796875,0.16174829006195068,0.25726741552352905,-0.12961678206920624
1772698479301104400,2.4801044921875,0.3111652433872223,0.47293534874916077,-0.29329758882522583
1772698479311061200,2.490061279296875,0.475225031375885,0.6416181325912476,-0.4525591731071472
1772698479321018000,2.50001806640625,0.6499546766281128,0.6953513622283936,-0.5609731674194336
1772698479330975200,2.509975341796875,0.8066889047622681,0.6396476626396179,-0.5539612770080566
1772698479340932000,2.51993212890625,0.8445444703102112,0.4991263449192047,-0.4841214418411255
1772698479350889200,2.52988916015625,0.7339409589767456,0.319631963968277,-0.3794453740119934
1772698479360846300,2.539846435546875,0.48823851346969604,0.15939243137836456,-0.2591184973716736
1772698479370803200,2.54980322265625,0.16072532534599304,0.03925056755542755,-0.15820863842964172
1772698479380761000,2.559760986328125,-0.13045668601989746,-0.013589117676019669,-0.08198899775743484
1772698479390718200,2.56971826171875,-0.309407502412796,-0.030128678306937218,-0.01029963232576847
1772698479400675300,2.57967529296875,-0.3579707741737366,-0.026876669377088547,0.054431620985269547
1772698479410632200,2.589632080078125,-0.2946309447288513,-0.01167108491063118,0.07384766638278961
1772698479420589300,2.59958935546875,-0.14526252448558807,0.019423948600888252,0.04788355156779289
1772698479430546200,2.609546142578125,0.04435614123940468,0.02813754603266716,0.014596965163946152
1772698479440503000,2.6195029296875,0.19655364751815796,0.010484990663826466,-0.022236235439777374
1772698479450460200,2.629460205078125,0.2607704699039459,-0.017706435173749924,-0.10310125350952148
1772698479460417300,2.639417236328125,0.2211841642856598,-0.04490741714835167,-0.22058823704719543
1772698479470374100,2.6493740234375,0.0928536206483841,-0.08927062153816223,-0.29983192682266235
1772698479480332000,2.65933203125,-0.06251973658800125,-0.14495179057121277,-0.28887444734573364
1772698479490289200,2.6692890625,-0.20857574045658112,-0.20119987428188324,-0.18203240633010864
1772698479500246300,2.679246337890625,-0.3280368447303772,-0.2589556872844696,-0.02373778447508812
1772698479510203100,2.689203125,-0.3991320729255676,-0.3113533854484558,0.10514722764492035
1772698479520160300,2.69916015625,-0.3960917890071869,-0.3231869339942932,0.18302562832832336
1772698479530117400,2.709117431640625,-0.3282235264778137,-0.29928267002105713,0.223997563123703
1772698479540074000,2.719073974609375,-0.1941283494234085,-0.22835661470890045,0.24030058085918427
1772698479550031000,2.729031005859375,-0.02571803517639637,-0.1361931413412094,0.22433918714523315
1772698479559988200,2.73898828125,0.15143492817878723,-0.032178767025470734,0.17853549122810364
1772698479569945000,2.748945068359375,0.3270176947116852,0.0565553642809391,0.11018174141645432
1772698479579903200,2.7589033203125,0.4668937921524048,0.12945717573165894,0.057663388550281525
1772698479589860000,2.768860107421875,0.5593554973602295,0.17909850180149078,0.044978223741054535
1772698479599817200,2.778817138671875,0.6013759970664978,0.1960892379283905,0.06585067510604858
1772698479609774000,2.788774169921875,0.5928515195846558,0.170987069606781,0.10147950798273087
1772698479619731200,2.798731201171875,0.5529799461364746,0.1313275396823883,0.1496845930814743
1772698479629688300,2.808688232421875,0.4744185507297516,0.07012064754962921,0.23205962777137756
1772698479639645200,2.818645263671875,0.3583524525165558,0.004013185855001211,0.3305169343948364
1772698479649602000,2.82860205078125,0.21178220212459564,-0.059613458812236786,0.4037999212741852
1772698479659559200,2.83855908203125,0.016481639817357063,-0.11215242743492126,0.4498562216758728
1772698479669516300,2.848516357421875,-0.20626649260520935,-0.13023050129413605,0.4818309247493744
1772698479679474200,2.85847412109375,-0.38052427768707275,-0.11159094423055649,0.5276212692260742
1772698479689431300,2.868431396484375,-0.4177304804325104,-0.044292062520980835,0.5506839752197266
1772698479699388200,2.87838818359375,-0.25870946049690247,0.03603621572256088,0.49104127287864685
1772698479709345000,2.888344970703125,0.08281165361404419,0.11137783527374268,0.3176332712173462
1772698479719302100,2.89830224609375,0.513418436050415,0.08335339277982712,0.03927648067474365
1772698479729259300,2.90825927734375,0.8668662905693054,-0.012695638462901115,-0.25045067071914673
1772698479739216400,2.91821630859375,0.9678777456283569,-0.15972964465618134,-0.47526705265045166
1772698479749173200,2.92817333984375,0.6880890130996704,-0.41036826372146606,-0.7109432220458984
1772698479759130000,2.938130126953125,0.021794896572828293,-0.7259408235549927,-1.1102697849273682
1772698479769088300,2.948088134765625,-0.7568936944007874,-0.8908482789993286,-1.4900990724563599
1772698479779045000,2.958045166015625,-1.4471019506454468,-0.8447557091712952,-1.4084665775299072
1772698479789002200,2.968002197265625,-1.8697080612182617,-0.6390688419342041,-0.663392186164856
1772698479798959400,2.97795947265625,-1.9401485919952393,-0.37654098868370056,0.4565156102180481
1772698479808916000,2.987916015625,-1.6730560064315796,-0.02763785794377327,1.3227620124816895
1772698479818873000,2.997873046875,-1.1193338632583618,0.24692586064338684,1.4326549768447876
1772698479828830200,3.007830322265625,-0.3811922073364258,0.40979254245758057,0.7489423751831055
1772698479838787300,3.017787353515625,0.364665150642395,0.41220343112945557,-0.3269746005535126
1772698479848744200,3.027744140625,0.9123023748397827,0.4608055651187897,-1.2800147533416748
1772698479858701300,3.037701416015625,1.1375449895858765,0.5331355333328247,-1.748152732849121
1772698479868659200,3.0476591796875,1.0740033388137817,0.5914931297302246,-1.7097536325454712
1772698479878616000,3.057615966796875,0.8199581503868103,0.5523662567138672,-1.4188371896743774
1772698479888573200,3.0675732421875,0.511479914188385,0.38258838653564453,-1.0512688159942627
1772698479898530300,3.0775302734375,0.1996522694826126,0.15317781269550323,-0.708235502243042
1772698479908487400,3.0874873046875,-0.09211486577987671,-0.04448360204696655,-0.4274333417415619
1772698479918444000,3.097444091796875,-0.3751087486743927,-0.2042354941368103,-0.21735240519046783
1772698479928401200,3.107401123046875,-0.6087281703948975,-0.2969880700111389,-0.07870052754878998
1772698479938358300,3.117358154296875,-0.7862083911895752,-0.31006839871406555,0.01423463225364685
1772698479948315100,3.127315185546875,-0.8959999084472656,-0.26302632689476013,0.10818615555763245
1772698479958272300,3.137272216796875,-0.932141900062561,-0.18587039411067963,0.19637303054332733
1772698479968230100,3.147230224609375,-0.8701680898666382,-0.11624977737665176,0.22461000084877014
1772698479978187300,3.157187255859375,-0.6856298446655273,-0.04140983894467354,0.1707484871149063
1772698479988144000,3.16714404296875,-0.40320301055908203,0.02717241644859314,0.08887359499931335
1772698479998101200,3.177101318359375,-0.09214787930250168,0.07542581111192703,0.029435474425554276
1772698480008058400,3.187058349609375,0.175858274102211,0.13315436244010925,0.009584270417690277
1772698480018015200,3.19701513671875,0.3422677218914032,0.2010619044303894,0.020054884254932404
1772698480027972000,3.20697216796875,0.39494049549102783,0.26658740639686584,0.06564686447381973
1772698480037929200,3.21692919921875,0.38027793169021606,0.2891419529914856,0.13457301259040833
1772698480047885800,3.2268857421875,0.34518468379974365,0.28085124492645264,0.18326465785503387
1772698480057842700,3.2368427734375,0.28617143630981445,0.25150012969970703,0.20193396508693695
1772698480067800800,3.24680078125,0.2089216709136963,0.19894342124462128,0.20400376617908478
1772698480077758000,3.256758056640625,0.13060979545116425,0.14145556092262268,0.21501001715660095
1772698480087714800,3.26671484375,0.055762987583875656,0.055783264338970184,0.22218990325927734
1772698480097671700,3.276671630859375,0.006770983804017305,-0.058081913739442825,0.18261970579624176
1772698480107628800,3.28662890625,-0.026508675888180733,-0.155458003282547,0.08304703235626221
1772698480117586000,3.2965859375,-0.051451388746500015,-0.2261366993188858,-0.010888481512665749
1772698480127542800,3.306542724609375,-0.05561390891671181,-0.2709167003631592,-0.01523209735751152
1772698480137500000,3.3165,-0.018188463523983955,-0.2938298285007477,0.08195842802524567
1772698480147456800,3.326456787109375,0.06080728769302368,-0.3020680546760559,0.2580929696559906
1772698480157413600,3.33641357421875,0.1622401773929596,-0.28105223178863525,0.47588086128234863
1772698480167371800,3.346371826171875,0.24292197823524475,-0.26298588514328003,0.6718543767929077
1772698480177329000,3.356328857421875,0.3079184889793396,-0.30561548471450806,0.8358168005943298
1772698480187286000,3.3662861328125,0.35447800159454346,-0.40001922845840454,0.9585509896278381
1772698480197242600,3.37624267578125,0.35435792803764343,-0.5197005271911621,1.0187122821807861
1772698480207199700,3.38619970703125,0.3067382276058197,-0.5619380474090576,1.0042457580566406
1772698480217156900,3.396156982421875,0.20818181335926056,-0.5710819959640503,0.8843979835510254
1772698480227113700,3.40611376953125,0.1206066906452179,-0.5388452410697937,0.605499267578125
1772698480237070800,3.41607080078125,0.127970889210701,-0.49440470337867737,0.1809266358613968
1772698480247028000,3.426028076171875,0.24196191132068634,-0.4783484935760498,-0.29198551177978516
1772698480256984800,3.43598486328125,0.3835376501083374,-0.5234239101409912,-0.6443277597427368
1772698480266942700,3.445942626953125,0.4543455243110657,-0.5851112604141235,-0.7464197874069214
1772698480276899800,3.45589990234375,0.42790594696998596,-0.6621851921081543,-0.5094599723815918
1772698480286857000,3.46585693359375,0.25518104434013367,-0.7561622858047485,-0.0024191441480070353
1772698480296813800,3.475813720703125,-0.053679075092077255,-0.8610420823097229,0.5142840147018433
1772698480306770700,3.485770751953125,-0.4304652214050293,-0.9077459573745728,0.7180549502372742
1772698480316727800,3.495727783203125,-0.7840036153793335,-0.9003741145133972,0.6083284020423889
1772698480326685000,3.505684814453125,-1.069989800453186,-0.7928612232208252,0.30056339502334595
1772698480336641800,3.515641845703125,-1.1957283020019531,-0.556812047958374,-0.06342917680740356
1772698480346599000,3.525598876953125,-1.0546598434448242,-0.2040499448776245,-0.38624078035354614
1772698480356556800,3.535556884765625,-0.62998366355896,0.12704065442085266,-0.6453544497489929
1772698480366513700,3.545513671875,0.0321631133556366,0.3313860595226288,-0.8307000994682312
1772698480376470800,3.555470703125,0.7827508449554443,0.3855665624141693,-0.9372841119766235
1772698480386428000,3.565427978515625,1.3387070894241333,0.3335331976413727,-0.9349170923233032
1772698480396384800,3.575384765625,1.4508916139602661,0.25732889771461487,-0.8452045321464539
1772698480406342000,3.585341796875,1.0896353721618652,0.20682445168495178,-0.7337679862976074
1772698480416298800,3.595298828125,0.45920178294181824,0.16995373368263245,-0.5842654705047607
1772698480426256000,3.605255859375,-0.19067741930484772,0.1360170841217041,-0.3991779088973999
1772698480436212700,3.615212646484375,-0.6854919195175171,0.11398959904909134,-0.2050754725933075
1772698480446169900,3.625169921875,-1.0037583112716675,0.1237356960773468,-0.03861591964960098
1772698480456128000,3.6351279296875,-1.1038916110992432,0.1409384310245514,0.06452180445194244
1772698480466084600,3.645084716796875,-0.9726227521896362,0.14986401796340942,0.11296071112155914
1772698480476041700,3.655041748046875,-0.6524506211280823,0.13422909379005432,0.14777979254722595
1772698480485998800,3.664998779296875,-0.29399874806404114,0.10269486904144287,0.2110636830329895
1772698480495956000,3.6749560546875,0.00016073090955615044,0.09816541522741318,0.32412299513816833
1772698480505912800,3.684912841796875,0.1367073953151703,0.15227045118808746,0.39743316173553467
1772698480515870000,3.694869873046875,0.09874642640352249,0.23459383845329285,0.3903123736381531
1772698480525826800,3.704826904296875,-0.008972310461103916,0.30942201614379883,0.34100261330604553
1772698480535783700,3.71478369140625,-0.09505046159029007,0.3281192481517792,0.2724831700325012
1772698480545740800,3.72474072265625,-0.1262643188238144,0.30500009655952454,0.21334420144557953
1772698480555699000,3.734698974609375,-0.10197603702545166,0.2628565728664398,0.1699410229921341
1772698480565656000,3.744656005859375,-0.05411477014422417,0.23370614647865295,0.12855443358421326
1772698480575612700,3.75461279296875,-0.011500162072479725,0.22139900922775269,0.08222781121730804
1772698480585569800,3.76456982421875,0.014179368503391743,0.21348249912261963,0.012662049382925034
1772698480595527000,3.77452685546875,0.04095130041241646,0.2053278088569641,-0.050639402121305466
1772698480605483800,3.78448388671875,0.06529152393341064,0.19191640615463257,-0.08726266026496887
1772698480615441000,3.79444091796875,0.06708566844463348,0.17882098257541656,-0.07440695911645889
1772698480625398000,3.80439794921875,0.05729135498404503,0.17147092521190643,-0.031872544437646866
1772698480635355000,3.81435498046875,0.04335237666964531,0.17564837634563446,0.025733191519975662
1772698480645312800,3.824312744140625,0.05916915461421013,0.17307282984256744,0.07789252698421478
1772698480655270000,3.834269775390625,0.11826393753290176,0.1616882085800171,0.12831562757492065
1772698480665227000,3.84422705078125,0.2078966200351715,0.1461438685655594,0.17550230026245117
1772698480675183900,3.854183837890625,0.28590482473373413,0.14518795907497406,0.23588742315769196
1772698480685140700,3.864140625,0.30502474308013916,0.1650697886943817,0.273227334022522
1772698480695097900,3.874097900390625,0.2806174159049988,0.1948842704296112,0.2602538764476776
1772698480705054700,3.8840546875,0.21961161494255066,0.2292606234550476,0.23094765841960907
1772698480715011800,3.89401171875,0.12725023925304413,0.25505247712135315,0.21450544893741608
1772698480724969000,3.903968994140625,0.054169099777936935,0.2557393014431,0.24963226914405823
1772698480734925800,3.91392578125,0.02517181821167469,0.2315024733543396,0.32107460498809814
1772698480744883700,3.9238837890625,0.04453566297888756,0.19560492038726807,0.3576115667819977
1772698480754840800,3.9338408203125,0.11021029949188232,0.1807517558336258,0.35703474283218384
1772698480764798000,3.9437978515625,0.18917596340179443,0.1538490355014801,0.3157762587070465
1772698480774754800,3.9537548828125,0.2833380401134491,0.12428393214941025,0.27651655673980713
1772698480784712000,3.9637119140625,0.39606326818466187,0.12237551063299179,0.28821423649787903
1772698480794668800,3.973668701171875,0.4253178536891937,0.13368120789527893,0.35463520884513855
1772698480804625700,3.983625732421875,0.3762717545032501,0.1256648153066635,0.4169909954071045
1772698480814582800,3.993582763671875,0.2987216114997864,0.1102977767586708,0.4736347496509552
1772698480824540000,4.003539794921875,0.2041274607181549,0.03310498967766762,0.5263115763664246
1772698480834496800,4.013496826171875,0.12109460681676865,-0.2537961006164551,0.4326140880584717
1772698480844454700,4.02345458984375,-0.023075619712471962,-0.7477722764015198,0.05848255753517151
1772698480854411800,4.033411865234375,-0.3562011420726776,-1.1499710083007812,-0.6938503384590149
1772698480864369000,4.043368896484375,-0.7784490585327148,-1.3500311374664307,-1.4348564147949219
1772698480874325800,4.05332568359375,-1.0806903839111328,-1.1235758066177368,-1.549633264541626
1772698480884283000,4.063282958984375,-1.1771982908248901,-0.6669496297836304,-0.8566017150878906
1772698480894240000,4.073239990234375,-1.0411070585250854,-0.31943657994270325,0.3096246123313904
1772698480904196900,4.08319677734375,-0.6512026786804199,-0.09244444966316223,1.2401528358459473
1772698480914153700,4.09315380859375,-0.043020859360694885,-0.014175082556903362,1.3752610683441162
1772698480924110800,4.10311083984375,0.549968957901001,-0.012830452993512154,0.6671696305274963
1772698480934067700,4.113067626953125,0.9282628297805786,-0.04427224025130272,-0.45734357833862305
1772698480944025900,4.12302587890625,0.9804834127426147,0.07173825055360794,-1.3962488174438477
1772698480953982700,4.132982666015625,0.809683084487915,0.21812331676483154,-1.715359091758728
1772698480963939800,4.14293994140625,0.5390502214431763,0.31154486536979675,-1.5565848350524902
1772698480973896700,4.152896728515625,0.20898477733135223,0.26786091923713684,-1.3105155229568481
1772698480983853800,4.162853759765625,-0.08789058029651642,0.13843421638011932,-1.154805064201355
1772698480993811000,4.17281103515625,-0.2863381505012512,-0.045027200132608414,-0.9922693967819214
1772698481003767800,4.182767822265625,-0.4323515295982361,-0.24256131052970886,-0.7020905613899231
1772698481013725000,4.192724853515625,-0.6143043637275696,-0.3829962909221649,-0.3553629517555237
1772698481023681800,4.202681884765625,-0.8143154978752136,-0.40294602513313293,-0.1339043378829956
1772698481033640000,4.212639892578125,-0.9461206197738647,-0.3412935733795166,-0.0687175765633583
1772698481043596800,4.2225966796875,-0.9413048624992371,-0.2793452739715576,-0.05652588605880737
1772698481053553700,4.2325537109375,-0.7981692552566528,-0.24185405671596527,-0.024202942848205566
1772698481063510800,4.2425107421875,-0.5847080945968628,-0.18352656066417694,0.029837921261787415
1772698481073467400,4.25246728515625,-0.3483259379863739,-0.10299235582351685,0.09661093354225159
1772698481083424500,4.262424560546875,-0.08413554728031158,0.031397681683301926,0.19778309762477875
1772698481093381600,4.272381591796875,0.13749168813228607,0.16024236381053925,0.30561378598213196
1772698481103338500,4.28233837890625,0.30473634600639343,0.2638686001300812,0.37015068531036377
1772698481113295600,4.292295654296875,0.4112984240055084,0.3370608687400818,0.3749716579914093
1772698481123252700,4.302252685546875,0.4489768147468567,0.37600773572921753,0.331288605928421
1772698481133210600,4.312210693359375,0.4410683512687683,0.4071767330169678,0.28437328338623047
1772698481143167500,4.32216748046875,0.40885236859321594,0.4231916666030884,0.2763233482837677
1772698481153124600,4.33212451171875,0.3708583414554596,0.4110252559185028,0.30828428268432617
1772698481163081700,4.342081787109375,0.3528172969818115,0.3747229278087616,0.357794851064682
1772698481173038600,4.35203857421875,0.34535348415374756,0.3272128403186798,0.3876129388809204
1772698481182995500,4.361995361328125,0.34365546703338623,0.2735764980316162,0.3997154235839844
1772698481192952600,4.37195263671875,0.30845168232917786,0.22632671892642975,0.3795967400074005
1772698481202909400,4.381909423828125,0.23157180845737457,0.1781402826309204,0.34036785364151
1772698481212866600,4.391866455078125,0.16616621613502502,0.1279374212026596,0.3017899990081787
1772698481222823700,4.40182373046875,0.09957733750343323,0.07002512365579605,0.30485421419143677
1772698481232781600,4.411781494140625,0.061436064541339874,0.019051406532526016,0.34031903743743896
1772698481242738400,4.421738525390625,0.07740411162376404,-0.002885316964238882,0.4038234353065491
1772698481252695600,4.431695556640625,0.1126188188791275,-0.015104467049241066,0.47773316502571106
1772698481262652700,4.441652587890625,0.1579335778951645,-0.024740582332015038,0.5444986820220947
1772698481272609500,4.451609619140625,0.18293926119804382,-0.0285019651055336,0.5867723822593689
1772698481282566700,4.461566650390625,0.12301307916641235,-0.037849124521017075,0.6084577441215515
1772698481292523500,4.4715234375,-0.02150355838239193,-0.022567421197891235,0.5945391058921814
1772698481302480600,4.481480712890625,-0.1923179179430008,0.038204316049814224,0.5285622477531433
1772698481312437500,4.4914375,-0.31781166791915894,0.1007763147354126,0.44355422258377075
1772698481322395600,4.501395751953125,-0.3009067177772522,0.16759741306304932,0.33369991183280945
1772698481332352500,4.5113525390625,-0.12375080585479736,0.22658471763134003,0.238034188747406
1772698481342309400,4.521309326171875,0.14064303040504456,0.1913156807422638,0.13742955029010773
1772698481352266500,4.5312666015625,0.3991483449935913,0.1268647015094757,0.01967284269630909
1772698481362223600,4.5412236328125,0.5916647911071777,0.06077834963798523,-0.08953993022441864
1772698481372180700,4.5511806640625,0.6738640666007996,-0.029457781463861465,-0.2151605188846588
1772698481382137600,4.5611376953125,0.6016095876693726,-0.16292263567447662,-0.39838385581970215
1772698481392094700,4.5710947265625,0.3470904231071472,-0.3461138904094696,-0.6061787605285645
1772698481402051600,4.581051513671875,-0.059253890067338943,-0.5121765732765198,-0.7514411807060242
1772698481412008400,4.591008544921875,-0.5413388013839722,-0.6370930075645447,-0.7942512035369873
1772698481421966600,4.600966552734375,-0.9793220162391663,-0.6757466793060303,-0.7735405564308167
1772698481431923700,4.610923828125,-1.280015230178833,-0.605635404586792,-0.7061951160430908
1772698481441880600,4.620880615234375,-1.3898354768753052,-0.47644978761672974,-0.5702005624771118
1772698481451837400,4.63083740234375,-1.2872337102890015,-0.2613416016101837,-0.4338720738887787
1772698481461794600,4.640794677734375,-0.9634835720062256,0.013784229755401611,-0.39143940806388855
1772698481471751700,4.650751708984375,-0.47842931747436523,0.30164143443107605,-0.4269505739212036
1772698481481708500,4.66070849609375,0.04851863533258438,0.5995964407920837,-0.4622715413570404
1772698481491665700,4.670665771484375,0.5386159420013428,0.8793097734451294,-0.48001423478126526
1772698481501622800,4.680622802734375,0.9134606719017029,1.0870925188064575,-0.47161221504211426
1772698481511579400,4.690579345703125,1.1407438516616821,1.1368576288223267,-0.4306226968765259
1772698481521537500,4.70053759765625,1.1536316871643066,1.0134011507034302,-0.361578106880188
1772698481531494700,4.71049462890625,0.928093671798706,0.7714744806289673,-0.255609929561615
1772698481541451800,4.72045166015625,0.5238229036331177,0.4874507784843445,-0.07840240746736526
1772698481551408600,4.73040869140625,-0.0017554584192112088,0.2348589301109314,0.1535373330116272
1772698481561365500,4.740365478515625,-0.5459527373313904,0.05544149875640869,0.363802433013916
1772698481571322600,4.750322509765625,-0.9619288444519043,-0.06164269521832466,0.48645085096359253
1772698481581279500,4.760279541015625,-1.167732834815979,-0.12686245143413544,0.4902176260948181
1772698481591236600,4.770236572265625,-1.159061312675476,-0.15864776074886322,0.40268921852111816
1772698481601193700,4.78019384765625,-0.9551692008972168,-0.195426806807518,0.24825438857078552
1772698481611150600,4.790150634765625,-0.6211692094802856,-0.22291311621665955,0.07082074135541916
1772698481621108500,4.8001083984375,-0.25504735112190247,-0.2028627097606659,-0.03569292277097702
1772698481631065600,4.810065673828125,0.0022116038016974926,-0.1555098295211792,-0.07706543058156967
1772698481641022700,4.820022705078125,0.13307614624500275,-0.09947425872087479,-0.10971259325742722
1772698481650979600,4.8299794921875,0.16533102095127106,-0.046955905854701996,-0.17467617988586426
1772698481660936700,4.839936767578125,0.11220148950815201,0.0018435888923704624,-0.26244625449180603
1772698481670893600,4.8498935546875,0.015237944200634956,0.043930646032094955,-0.3105982542037964
1772698481680850400,4.859850341796875,-0.06371839344501495,0.06692305207252502,-0.30013734102249146
1772698481690807600,4.8698076171875,-0.10930320620536804,0.07976926118135452,-0.22275230288505554
1772698481700764700,4.8797646484375,-0.11718590557575226,0.11335811018943787,-0.1036490648984909
1772698481710722600,4.88972265625,-0.09686145186424255,0.14034098386764526,0.019169261679053307
1772698481720679400,4.899679443359375,-0.03883277252316475,0.17278361320495605,0.11000063270330429
1772698481730636500,4.909636474609375,0.08810362219810486,0.21087807416915894,0.17016948759555817
1772698481740593700,4.91959375,0.2594279944896698,0.25377655029296875,0.22017912566661835
1772698481750550500,4.929550537109375,0.4297693371772766,0.29745233058929443,0.24502070248126984
1772698481760507600,4.939507568359375,0.5823663473129272,0.3408181965351105,0.2362474501132965
1772698481770464800,4.94946484375,0.6750944256782532,0.38306310772895813,0.19711464643478394
1772698481780421400,4.95942138671875,0.7010461091995239,0.40260910987854004,0.14587409794330597
1772698481790378500,4.96937841796875,0.6651424169540405,0.3898821175098419,0.10387136787176132
1772698481800335600,4.979335693359375,0.6127631068229675,0.3462688624858856,0.10489295423030853
1772698481810293800,4.989293701171875,0.5649343132972717,0.28232312202453613,0.17239084839820862
1772698481820250600,4.999250732421875,0.4883769750595093,0.19832171499729156,0.3077470660209656
1772698481830207500,5.00920751953125,0.415611207485199,0.1087472066283226,0.45937830209732056
1772698481840164600,5.01916455078125,0.37633463740348816,0.015670791268348694,0.5266820192337036
1772698481850121500,5.02912158203125,0.35884353518486023,-0.037397176027297974,0.4596860110759735
1772698481860078600,5.03907861328125,0.3465695381164551,-0.09387163817882538,0.3106025159358978
1772698481870035700,5.04903564453125,0.37216275930404663,-0.09304243326187134,0.17736677825450897
1772698481879992600,5.05899267578125,0.3986811935901642,-0.10952899605035782,0.07833660393953323
1772698481889949400,5.068949462890625,0.3933716416358948,-0.1653827279806137,0.009579289704561234
1772698481899906600,5.078906494140625,0.3518332540988922,-0.2047511786222458,-0.05448145046830177
1772698481909864700,5.08886474609375,0.29244372248649597,-0.2069404423236847,-0.0892757847905159
1772698481919821600,5.098821533203125,0.22466202080249786,-0.2164822816848755,-0.10015639662742615
1772698481929778700,5.10877880859375,0.18218055367469788,-0.2656211853027344,-0.04056616872549057
1772698481939735600,5.118735595703125,0.12683500349521637,-0.3990224003791809,0.034691568464040756
1772698481949692400,5.1286923828125,-0.052250299602746964,-0.6399286985397339,-0.2197001576423645
1772698481959649500,5.1386494140625,-0.3331190049648285,-0.7667891979217529,-0.9999879598617554
1772698481969606700,5.148606689453125,-0.582313597202301,-0.743421733379364,-1.7735637426376343
1772698481979563500,5.1585634765625,-0.7260428071022034,-0.5818110108375549,-1.8579931259155273
1772698481989520600,5.168520751953125,-0.7323101162910461,-0.40906742215156555,-1.1771442890167236
1772698481999477500,5.1784775390625,-0.6289677023887634,-0.34233659505844116,-0.09044890105724335
1772698482009435600,5.188435546875,-0.5134720206260681,-0.2616962194442749,0.8555768728256226
1772698482019392500,5.198392578125,-0.4370368719100952,-0.23145844042301178,1.166530728340149
1772698482029349600,5.208349609375,-0.3601657450199127,-0.16083820164203644,0.7895727753639221
1772698482039306800,5.218306640625,-0.2687189280986786,-0.16103847324848175,0.04366316646337509
1772698482049263400,5.228263427734375,-0.1935293972492218,-0.13600507378578186,-0.6239168643951416
1772698482059220500,5.238220458984375,-0.12005598098039627,-0.06807396560907364,-0.8606039881706238
1772698482069177600,5.248177490234375,-0.06727661192417145,0.007836639881134033,-0.7214640378952026
1772698482079134700,5.258134765625,-0.06505926698446274,0.04111017286777496,-0.47401565313339233
1772698482089091600,5.268091552734375,-0.13378113508224487,0.03671255335211754,-0.3334546983242035
1772698482099049500,5.278049560546875,-0.2092021256685257,-0.0042311521247029305,-0.3183375298976898
1772698482109006600,5.288006591796875,-0.26801371574401855,-0.05809183791279793,-0.2917220890522003
1772698482118963500,5.29796337890625,-0.32939931750297546,-0.09157229214906693,-0.20615606009960175
1772698482128920600,5.307920654296875,-0.39877063035964966,-0.09123212099075317,-0.09665568917989731
1772698482138877700,5.317877685546875,-0.44656452536582947,-0.06467241048812866,-0.00726215960457921
1772698482148834600,5.32783447265625,-0.4290260374546051,-0.030366232618689537,0.055504146963357925
1772698482158791400,5.33779150390625,-0.35862645506858826,0.0074477242305874825,0.10837534815073013
1772698482168748500,5.34774853515625,-0.26478278636932373,0.0449000746011734,0.17513053119182587
1772698482178705700,5.35770556640625,-0.15901879966259003,0.100184366106987,0.24241583049297333
1772698482188662500,5.36766259765625,-0.0654020607471466,0.16504502296447754,0.27724626660346985
1772698482198620700,5.37762060546875,0.012836821377277374,0.2534734308719635,0.2683590352535248
1772698482208577500,5.38757763671875,0.0757063776254654,0.3489029109477997,0.20973406732082367
1772698482218534400,5.397534423828125,0.1355217844247818,0.42101892828941345,0.13268215954303741
1772698482228491500,5.407491455078125,0.1958732157945633,0.4574209749698639,0.07882103323936462
1772698482238448600,5.41744873046875,0.2487308382987976,0.461527019739151,0.04948364943265915
1772698482248405800,5.42740576171875,0.2867879271507263,0.43081891536712646,0.059626899659633636
1772698482258362600,5.437362548828125,0.291776567697525,0.38966241478919983,0.10319355130195618
1772698482268319500,5.447319580078125,0.2669026851654053,0.34980106353759766,0.17043180763721466
1772698482278276600,5.457276611328125,0.22540715336799622,0.3097657561302185,0.2367256134748459
1772698482288233500,5.4672333984375,0.17137640714645386,0.27242612838745117,0.28055670857429504
1772698482298191600,5.477191650390625,0.11332189291715622,0.2426823377609253,0.2644043564796448
1772698482308148700,5.487148681640625,0.07577239722013474,0.2082519680261612,0.22137106955051422
1772698482318105600,5.497105712890625,0.06541163474321365,0.16512154042720795,0.18851245939731598
1772698482328062500,5.5070625,0.07867202907800674,0.11797847598791122,0.17650280892848969
1772698482338019600,5.51701953125,0.10687943547964096,0.0574197918176651,0.17946158349514008
1772698482347976700,5.526976806640625,0.12138219177722931,-0.009208287112414837,0.17278730869293213
1772698482357933600,5.53693359375,0.13828341662883759,-0.08415336161851883,0.16171228885650635
1772698482367890700,5.546890625,0.1343451589345932,-0.16275572776794434,0.17676380276679993
1772698482377847600,5.55684765625,0.059926312416791916,-0.22918455302715302,0.2316153347492218
1772698482387804400,5.566804443359375,-0.06629130989313126,-0.23229415714740753,0.3213610053062439
1772698482397762600,5.576762451171875,-0.225375235080719,-0.16985023021697998,0.38900262117385864
1772698482407719700,5.5867197265625,-0.3130877614021301,-0.08422313630580902,0.39454495906829834
1772698482417676800,5.5966767578125,-0.23079714179039001,-0.013787047937512398,0.3183293044567108
1772698482427633400,5.60663330078125,0.030774269253015518,-0.004353344440460205,0.196108877658844
1772698482437590500,5.616590576171875,0.36407288908958435,-0.06245579570531845,0.0888759046792984
1772698482447547600,5.626547607421875,0.5865073204040527,-0.15194645524024963,0.01761828549206257
1772698482457504500,5.63650439453125,0.5455950498580933,-0.19069944322109222,0.006827423814684153
1772698482467461600,5.646461669921875,0.23408426344394684,-0.1638800948858261,-0.010454325005412102
1772698482477418800,5.656418701171875,-0.1629171520471573,-0.13677231967449188,-0.0521831288933754
1772698482487375600,5.666375732421875,-0.4711415469646454,-0.1728290319442749,-0.13580504059791565
1772698482497333500,5.67633349609375,-0.6347376704216003,-0.2661336660385132,-0.24310380220413208
1772698482507290600,5.68629052734375,-0.7125523090362549,-0.354295015335083,-0.3415244519710541
1772698482517247700,5.696247802734375,-0.7198139429092407,-0.36426377296447754,-0.4055878520011902
1772698482527204600,5.70620458984375,-0.7061340808868408,-0.26796600222587585,-0.4542909860610962
1772698482537161500,5.716161376953125,-0.6858706474304199,-0.0989236980676651,-0.45868387818336487
1772698482547118600,5.72611865234375,-0.6174969673156738,0.07567247748374939,-0.41781726479530334
1772698482557075500,5.736075439453125,-0.46406981348991394,0.24342286586761475,-0.40365323424339294
1772698482567032600,5.746032470703125,-0.23502330482006073,0.38742753863334656,-0.4271513521671295
1772698482576989700,5.75598974609375,0.029873870313167572,0.4731101989746094,-0.4326220452785492
1772698482586947600,5.765947509765625,0.2857535779476166,0.49182307720184326,-0.3660734295845032
1772698482596904400,5.775904541015625,0.45898768305778503,0.5024133920669556,-0.18339842557907104
1772698482606861600,5.785861572265625,0.48642274737358093,0.4721812307834625,0.07108891755342484
1772698482616818700,5.795818603515625,0.3791833817958832,0.4411490261554718,0.2688254117965698
1772698482626775600,5.805775634765625,0.2152853012084961,0.4211195409297943,0.33474409580230713
1772698482636732700,5.815732666015625,0.07870428264141083,0.4237033426761627,0.28888896107673645
1772698482646689500,5.825689453125,0.03512829169631004,0.4078683853149414,0.196051687002182
1772698482656646400,5.835646484375,0.08392192423343658,0.36375415325164795,0.07897964864969254
1772698482666603500,5.845603515625,0.1744137555360794,0.2983565330505371,-0.04362810030579567
1772698482676560600,5.855560546875,0.22446280717849731,0.21674372255802155,-0.12165951728820801
1772698482686517500,5.865517578125,0.20487064123153687,0.13879378139972687,-0.07829439640045166
1772698482696475400,5.875475341796875,0.1193525493144989,0.041212353855371475,0.08076237142086029
1772698482706432500,5.8854326171875,-0.003162932116538286,-0.048988211899995804,0.28164806962013245
1772698482716389600,5.8953896484375,-0.13049878180027008,-0.12231115996837616,0.3979230225086212
1772698482726346500,5.905346435546875,-0.226800799369812,-0.15953940153121948,0.3629820644855499
1772698482736303600,5.9153037109375,-0.2601374387741089,-0.15023857355117798,0.2186020016670227
1772698482746260700,5.9252607421875,-0.23411493003368378,-0.10827097296714783,0.03364627808332443
1772698482756217600,5.935217529296875,-0.1483323723077774,-0.036858849227428436,-0.1500159651041031
1772698482766174500,5.945174560546875,-0.042882077395915985,0.01767030358314514,-0.3044235110282898
1772698482776131600,5.955131591796875,0.0782608613371849,0.03846346586942673,-0.43312716484069824
1772698482786089700,5.96508984375,0.20555222034454346,0.01375114917755127,-0.510979175567627
1772698482796046600,5.975046630859375,0.30569905042648315,-0.0067714364267885685,-0.5146740674972534
1772698482806003500,5.98500341796875,0.3484414517879486,-0.04467090219259262,-0.43249204754829407
1772698482815960600,5.994960693359375,0.31832775473594666,-0.09417880326509476,-0.28295740485191345
1772698482825917400,6.00491748046875,0.2278469353914261,-0.12717515230178833,-0.12935598194599152
1772698482835874600,6.01487451171875,0.10365307331085205,-0.15634316205978394,-0.008331296034157276
1772698482845831700,6.024831787109375,-0.03345821425318718,-0.15195654332637787,0.0580604113638401
1772698482855788500,6.03478857421875,-0.12318091094493866,-0.1214633509516716,0.08631148189306259
1772698482865745700,6.04474560546875,-0.12462460249662399,-0.09280557185411453,0.09918802976608276
1772698482875702500,6.05470263671875,-0.025898823514580727,-0.06521549075841904,0.11813056468963623
1772698482885659600,6.06465966796875,0.1292143017053604,-0.03906411677598953,0.129834845662117
1772698482895617500,6.074617431640625,0.33860403299331665,-0.007296067662537098,0.12276919931173325
1772698482905574700,6.08457470703125,0.5641492605209351,0.02523738518357277,0.09412341564893723
1772698482915531500,6.094531494140625,0.7319284081459045,0.0337778776884079,0.07032433897256851
1772698482925488400,6.10448828125,0.7938594222068787,0.0339193269610405,0.07244677096605301
1772698482935445500,6.114445556640625,0.7383689880371094,0.01546441949903965,0.13154630362987518
1772698482945402600,6.124402587890625,0.5671213865280151,-0.016490597277879715,0.2431948482990265
1772698482955359700,6.13435986328125,0.3255654573440552,-0.07385028898715973,0.33971792459487915
1772698482965316600,6.144316650390625,0.06568988412618637,-0.13954561948776245,0.4198804795742035
1772698482975273700,6.154273681640625,-0.13116778433322906,-0.1920120120048523,0.47974807024002075
1772698482985230600,6.164230712890625,-0.2060544639825821,-0.23244628310203552,0.5071035623550415
1772698482995188500,6.1741884765625,-0.16076022386550903,-0.23687565326690674,0.45355990529060364
1772698483005145600,6.1841455078125,-0.07427649199962616,-0.21056793630123138,0.295265793800354
1772698483015102700,6.194102783203125,-0.014697846956551075,-0.20781369507312775,0.026139529421925545
1772698483025059600,6.2040595703125,-0.011630425229668617,-0.2568257451057434,-0.3371523320674896
1772698483035016400,6.214016357421875,-0.08257384598255157,-0.3367903232574463,-0.6769735217094421
1772698483044973600,6.2239736328125,-0.24933989346027374,-0.3155891001224518,-0.8601324558258057
1772698483054931000,6.233930908203125,-0.45778873562812805,-0.18590140342712402,-0.8124642372131348
1772698483064887800,6.2438876953125,-0.5912831425666809,-0.0052062030881643295,-0.5318602919578552
1772698483074845000,6.253844970703125,-0.5552441477775574,0.10597118735313416,-0.12695112824440002
1772698483084802800,6.263802734375,-0.3908959627151489,0.0947943702340126,0.2508317530155182
1772698483094760000,6.273760009765625,-0.27475711703300476,0.05337182804942131,0.3864085078239441
1772698483104716800,6.283716796875,-0.24780836701393127,-0.00859899166971445,0.28296080231666565
1772698483114674000,6.293673828125,-0.27668341994285583,-0.028886418789625168,0.04479856789112091
1772698483124631000,6.303631103515625,-0.3658314049243927,-0.008738517761230469,-0.19670440256595612
1772698483134587600,6.313587646484375,-0.44551345705986023,0.03518446534872055,-0.35113686323165894
1772698483144544800,6.323544677734375,-0.4754052758216858,0.051671113818883896,-0.4132457673549652
1772698483154502000,6.333501953125,-0.4619070291519165,0.05261573567986488,-0.4419940412044525
1772698483164458800,6.343458740234375,-0.43550315499305725,0.05914472043514252,-0.486774206161499
1772698483174416000,6.353415771484375,-0.40754234790802,0.08621735125780106,-0.5312854647636414
1772698483184373800,6.363373779296875,-0.3553989827632904,0.13786348700523376,-0.5356586575508118
1772698483194331000,6.373330810546875,-0.27604639530181885,0.1928098350763321,-0.4959466755390167
1772698483204287700,6.383287841796875,-0.17573809623718262,0.2301427274942398,-0.43369024991989136
1772698483214244900,6.393244873046875,-0.07555690407752991,0.2501817047595978,-0.36879193782806396
1772698483224202000,6.403201904296875,-0.0024086833000183105,0.25195497274398804,-0.30380088090896606
1772698483234158800,6.413158935546875,0.012885318137705326,0.24913495779037476,-0.22757191956043243
1772698483244115700,6.42311572265625,-0.030245674774050713,0.2723722457885742,-0.13679450750350952
1772698483254072800,6.43307275390625,-0.09276604652404785,0.3062431514263153,-0.03081667423248291
1772698483264029700,6.44302978515625,-0.1373193860054016,0.33461469411849976,0.06395142525434494
1772698483273986800,6.45298681640625,-0.14735949039459229,0.3374008536338806,0.1533668041229248
1772698483283945000,6.462945068359375,-0.1095048040151596,0.35388657450675964,0.24547263979911804
1772698483293901800,6.47290185546875,-0.04431035369634628,0.39130640029907227,0.3484421670436859
1772698483303858700,6.482858642578125,0.02514541894197464,0.4121091365814209,0.4645003378391266
1772698483313815800,6.49281591796875,0.09520839154720306,0.4226725697517395,0.5469531416893005
1772698483323773000,6.50277294921875,0.15352632105350494,0.4260237216949463,0.5873777866363525
1772698483333729800,6.512729736328125,0.20219212770462036,0.44783687591552734,0.5931392312049866
1772698483343687000,6.52268701171875,0.2444959431886673,0.4794473648071289,0.5808964371681213
1772698483353643800,6.532643798828125,0.28916701674461365,0.4991645812988281,0.5491870045661926
1772698483363600600,6.5426005859375,0.3367224633693695,0.5072228908538818,0.46259990334510803
1772698483373557800,6.552557861328125,0.38459333777427673,0.5133119225502014,0.3256617486476898
1772698483383516000,6.562515869140625,0.42185044288635254,0.4982302486896515,0.1837434619665146
1772698483393473000,6.57247314453125,0.44351500272750854,0.4493737816810608,0.05959115922451019
1772698483403429600,6.5824296875,0.44735684990882874,0.37436550855636597,-0.02952587604522705
1772698483413386800,6.59238671875,0.41048669815063477,0.29146048426628113,-0.06973162293434143
1772698483423343900,6.60234375,0.3288491368293762,0.18478025496006012,-0.05619124695658684
1772698483433300700,6.61230078125,0.2127542346715927,0.05518151819705963,-0.01112976111471653
1772698483443257900,6.6222578125,0.07502324134111404,-0.0677836611866951,0.026960423216223717
1772698483453215000,6.632215087890625,-0.06617702543735504,-0.16990017890930176,0.01680978573858738
1772698483463171800,6.642171875,-0.1990751177072525,-0.2610204219818115,-0.01019495539367199
1772698483473128700,6.652128662109375,-0.3080090880393982,-0.33597081899642944,0.0053358012810349464
1772698483483086800,6.6620869140625,-0.3953160345554352,-0.40384823083877563,0.09061313420534134
1772698483493044000,6.6720439453125,-0.4413088262081146,-0.4067419767379761,0.23763534426689148
1772698483503000800,6.682000732421875,-0.42286911606788635,-0.3289836049079895,0.42682674527168274
1772698483512957700,6.691957763671875,-0.33125850558280945,-0.22282469272613525,0.6398290395736694
1772698483522914800,6.701914794921875,-0.1710699051618576,-0.11600634455680847,0.81546950340271
1772698483532871700,6.71187158203125,0.035095520317554474,-0.030840855091810226,0.8675945401191711
1772698483542828800,6.721828857421875,0.22716137766838074,0.02856604754924774,0.7397776246070862
1772698483552786000,6.731785888671875,0.3858010768890381,-0.0023061144165694714,0.45484277606010437
1772698483562743000,6.741742919921875,0.4856574237346649,-0.06474696099758148,0.07360092550516129
1772698483572700000,6.751699951171875,0.45970597863197327,-0.08075335621833801,-0.2834818363189697
1772698483582657800,6.76165771484375,0.3709651529788971,-0.08918952196836472,-0.44908443093299866
1772698483592615000,6.771614990234375,0.3088546693325043,-0.1059165671467781,-0.42797836661338806
1772698483602571800,6.78157177734375,0.30408036708831787,-0.1648503541946411,-0.34807825088500977
1772698483612529000,6.79152880859375,0.3447260856628418,-0.2630104720592499,-0.3212330639362335
1772698483622485800,6.80148583984375,0.3755258023738861,-0.36953291296958923,-0.449445903301239
1772698483632443000,6.81144287109375,0.347553551197052,-0.4215628206729889,-0.6758827567100525
1772698483642399700,6.821399658203125,0.23643241822719574,-0.4007726311683655,-0.8505502939224243
1772698483652356900,6.83135693359375,0.10969444364309311,-0.3440598249435425,-0.8788208365440369
1772698483662314000,6.84131396484375,0.005381861701607704,-0.3258577585220337,-0.7805440425872803
1772698483672270800,6.851270751953125,-0.09678658843040466,-0.3902527391910553,-0.6791268587112427
1772698483682228700,6.861228759765625,-0.17389173805713654,-0.47920089960098267,-0.5688937306404114
1772698483692185900,6.871185791015625,-0.27569904923439026,-0.5265359282493591,-0.37602734565734863
1772698483702143000,6.88114306640625,-0.42892277240753174,-0.475220263004303,-0.073338083922863
1772698483712099800,6.891099853515625,-0.5973882079124451,-0.31952759623527527,0.2199244201183319
1772698483722057000,6.901056884765625,-0.646865725517273,-0.10259992629289627,0.3851112723350525
1772698483732013800,6.911013916015625,-0.48845741152763367,0.09845408797264099,0.367475301027298
1772698483741970700,6.920970703125,-0.152821347117424,0.2767767608165741,0.20306988060474396
1772698483751927800,6.930927734375,0.2630653381347656,0.40856409072875977,-0.04460063576698303
1772698483761885000,6.940885009765625,0.622211754322052,0.45312851667404175,-0.2854647934436798
1772698483771841800,6.950841796875,0.826636016368866,0.39125901460647583,-0.4483812749385834
1772698483781799700,6.960799560546875,0.8555454611778259,0.2643685042858124,-0.48719650506973267
1772698483791756800,6.9707568359375,0.7189444303512573,0.11861076951026917,-0.38468480110168457
1772698483801714000,6.9807138671875,0.4341108500957489,0.0004348689690232277,-0.20399628579616547
1772698483811670800,6.9906708984375,0.08967197686433792,-0.09315793216228485,-0.017049558460712433
1772698483821628000,7.0006279296875,-0.21639901399612427,-0.16732275485992432,0.11482632905244827
1772698483831585000,7.0105849609375,-0.41354721784591675,-0.22919970750808716,0.19344498217105865
1772698483841542000,7.0205419921875,-0.5021016001701355,-0.2737884521484375,0.24102315306663513
1772698483851498800,7.030498779296875,-0.5120804309844971,-0.30112582445144653,0.2599659264087677
1772698483861456000,7.040455810546875,-0.4644245207309723,-0.2801576554775238,0.23993030190467834
1772698483871412700,7.050412841796875,-0.39747291803359985,-0.2245657593011856,0.18579329550266266
1772698483881371000,7.060370849609375,-0.28649476170539856,-0.15795964002609253,0.0889066532254219
1772698483891327700,7.07032763671875,-0.13095629215240479,-0.10834414511919022,-0.039453983306884766
1772698483901284900,7.080284912109375,0.040223993360996246,-0.07078232616186142,-0.18410322070121765
1772698483911241700,7.09024169921875,0.19915984570980072,-0.0317867286503315,-0.29522788524627686
1772698483921198800,7.10019873046875,0.32064288854599,-0.0034287746530026197,-0.3273381292819977
1772698483931156000,7.110156005859375,0.39251336455345154,0.022290704771876335,-0.2753601372241974
1772698483941112800,7.12011279296875,0.41080814599990845,0.03547213599085808,-0.17678624391555786
1772698483951070000,7.130070068359375,0.3815386891365051,0.019247889518737793,-0.06561817228794098
1772698483961026800,7.14002685546875,0.3098008632659912,0.012996443547308445,0.04009609296917915
1772698483970983700,7.149983642578125,0.18482458591461182,0.01726016402244568,0.15079623460769653
1772698483980941800,7.15994189453125,0.06281158328056335,-0.0032707112841308117,0.24445971846580505
1772698483990899000,7.16989892578125,0.00020359386689960957,-0.039285704493522644,0.3138941824436188
1772698484000855800,7.179855712890625,-0.009432780556380749,-0.07898195832967758,0.35338452458381653
1772698484010812700,7.189812744140625,0.025562487542629242,-0.10496748238801956,0.38899898529052734
1772698484020769800,7.199769775390625,0.08621195703744888,-0.0960925966501236,0.4133136570453644
1772698484030727000,7.209726806640625,0.16544127464294434,-0.09046773612499237,0.43786799907684326
1772698484040683800,7.219683837890625,0.27152219414711,-0.10433340072631836,0.44081321358680725
1772698484050641200,7.22964111328125,0.36133596301078796,-0.14580440521240234,0.47262439131736755
1772698484060598000,7.239597900390625,0.38967999815940857,-0.19801142811775208,0.5726144313812256
1772698484070555000,7.249554931640625,0.32759106159210205,-0.2356560081243515,0.7067219018936157
1772698484080513000,7.259512939453125,0.193387970328331,-0.23473776876926422,0.8060472011566162
1772698484090470100,7.26947021484375,0.04068710282444954,-0.18227750062942505,0.7946632504463196
1772698484100427000,7.279427001953125,-0.08867862075567245,-0.12853439152240753,0.6303425431251526
1772698484110383900,7.2893837890625,-0.15597669780254364,-0.10188919305801392,0.3200984001159668
1772698484120341000,7.299341064453125,-0.17825642228126526,-0.19600875675678253,-0.10462739318609238
1772698484130297900,7.3092978515625,-0.2377415895462036,-0.3759726583957672,-0.558207631111145
1772698484140255000,7.3192548828125,-0.42104485630989075,-0.537764847278595,-0.9015427231788635
1772698484150212000,7.329212158203125,-0.7009433507919312,-0.5098186731338501,-0.9970173239707947
1772698484160169000,7.3391689453125,-0.9746100306510925,-0.3835652768611908,-0.756966233253479
1772698484170126800,7.349126953125,-1.11371648311615,-0.18873879313468933,-0.2104828953742981
1772698484180084000,7.359083984375,-1.0194765329360962,-0.011680696159601212,0.45041149854660034
1772698484190041000,7.369041015625,-0.7321089506149292,0.2103441059589386,0.8985656499862671
1772698484199998000,7.378998046875,-0.33174505829811096,0.33147716522216797,0.9133361577987671
1772698484209955000,7.388955078125,0.14239640533924103,0.40911734104156494,0.5518240332603455
1772698484219912000,7.398911865234375,0.5683098435401917,0.39544835686683655,-0.04656699299812317
1772698484229868800,7.408868896484375,0.8586735129356384,0.36947667598724365,-0.6811258792877197
1772698484239826000,7.418825927734375,0.9510210752487183,0.365070104598999,-1.1579046249389648
1772698484249783000,7.428782958984375,0.8396112322807312,0.2950931489467621,-1.3511247634887695
1772698484259740000,7.438739990234375,0.5977301001548767,0.17592713236808777,-1.2997064590454102
1772698484269697800,7.44869775390625,0.28920313715934753,-0.05965396761894226,-1.101560115814209
1772698484279655000,7.458655029296875,0.00043635093607008457,-0.34900280833244324,-0.818821907043457
1772698484289612000,7.468612060546875,-0.23909766972064972,-0.6082234978675842,-0.4993826746940613
1772698484299569000,7.47856884765625,-0.48136886954307556,-0.7559514045715332,-0.23141534626483917
1772698484309526000,7.488526123046875,-0.7387040257453918,-0.7833225727081299,-0.0870768129825592
1772698484319483100,7.498483154296875,-0.9245702624320984,-0.7533093094825745,-0.04859790951013565
1772698484329440000,7.50843994140625,-0.9532914161682129,-0.7018977999687195,-0.04848339408636093
1772698484339396900,7.51839697265625,-0.8256272077560425,-0.6517924666404724,-0.034725043922662735
1772698484349354000,7.52835400390625,-0.6099204421043396,-0.5891834497451782,-0.011050074361264706
1772698484359310800,7.538310791015625,-0.362448126077652,-0.4945688843727112,-0.026243651285767555
1772698484369269000,7.54826904296875,-0.11893720924854279,-0.3798596262931824,-0.0748324915766716
1772698484379225900,7.558225830078125,0.103373683989048,-0.2746158540248871,-0.08240737020969391
1772698484389183000,7.568182861328125,0.27464476227760315,-0.19271165132522583,-0.007952040992677212
1772698484399139800,7.578139892578125,0.37172576785087585,-0.12304956465959549,0.13874578475952148
1772698484409097000,7.588096923828125,0.3796766400337219,-0.062426164746284485,0.2867991328239441
1772698484419054000,7.59805419921875,0.31520920991897583,-0.015519943088293076,0.38722601532936096
1772698484429011000,7.608010986328125,0.23147062957286835,0.019060403108596802,0.4390718936920166
1772698484438968000,7.617968017578125,0.1939869076013565,0.03993722423911095,0.4549087882041931
1772698484448925000,7.627925048828125,0.21250200271606445,0.054853323847055435,0.461083322763443
1772698484458881800,7.6378818359375,0.2691842019557953,0.060265399515628815,0.46477633714675903
1772698484468840000,7.64783984375,0.3480502665042877,0.0756550058722496,0.45900818705558777
1772698484478797000,7.657797119140625,0.43872904777526855,0.10444220155477524,0.42433059215545654
1772698484488754000,7.66775390625,0.506010890007019,0.14020313322544098,0.3619345724582672
1772698484498710800,7.677710693359375,0.5683801770210266,0.1609645038843155,0.2999383509159088
1772698484508668000,7.68766796875,0.6159902811050415,0.15502911806106567,0.2642061710357666
1772698484518625000,7.697625,0.6343706250190735,0.14369544386863708,0.2766803503036499
1772698484528582000,7.707581787109375,0.5967974066734314,0.13635790348052979,0.33249035477638245
1772698484538539000,7.7175390625,0.5046278238296509,0.11227578669786453,0.3977687954902649
1772698484548496100,7.72749609375,0.39816346764564514,0.08386731892824173,0.45501023530960083
1772698484558452700,7.73745263671875,0.3219267427921295,0.061917565762996674,0.5006045699119568
1772698484568411000,7.747410888671875,0.24376431107521057,0.0531107559800148,0.5340309739112854
1772698484578368000,7.757367919921875,0.18962733447551727,0.06724318116903305,0.4853057563304901
1772698484588325000,7.7673251953125,0.188433438539505,0.08058322221040726,0.3442247807979584
1772698484598282000,7.777281982421875,0.2552976608276367,0.05304604396224022,0.1776675283908844
1772698484608238800,7.78723876953125,0.3804289400577545,-0.040192026644945145,0.08994432538747787
1772698484618196000,7.797196044921875,0.5106863379478455,-0.1486693024635315,0.11985744535923004
1772698484628152800,7.80715283203125,0.5756586790084839,-0.24726511538028717,0.23950500786304474
1772698484638110000,7.81710986328125,0.5297300219535828,-0.2771061956882477,0.33408206701278687
1772698484648067000,7.827067138671875,0.3644007444381714,-0.2776907682418823,0.31148862838745117
1772698484658024200,7.837024169921875,0.1300843358039856,-0.30591508746147156,0.13166821002960205
1772698484667981800,7.84698193359375,-0.14088085293769836,-0.4175470769405365,-0.15952953696250916
1772698484677939000,7.85693896484375,-0.44332242012023926,-0.5515579581260681,-0.4257858097553253
1772698484687896000,7.86689599609375,-0.7391207814216614,-0.6347713470458984,-0.5327128171920776
1772698484697853000,7.87685302734375,-0.9721586108207703,-0.5824422240257263,-0.4872734248638153
1772698484707810000,7.88681005859375,-1.0627952814102173,-0.49119409918785095,-0.3254869282245636
1772698484717767000,7.896766845703125,-0.954180896282196,-0.38903331756591797,-0.10854125022888184
1772698484727724000,7.90672412109375,-0.6817895770072937,-0.26407164335250854,0.021807171404361725
1772698484737681000,7.916680908203125,-0.3607660233974457,-0.120537668466568,-0.058528680354356766
1772698484747638000,7.926637939453125,-0.045678138732910156,0.017100883647799492,-0.3104376196861267
1772698484757596000,7.936595947265625,0.24035921692848206,0.16730213165283203,-0.5787267088890076
1772698484767552800,7.946552734375,0.4819830358028412,0.30725952982902527,-0.7145404815673828
1772698484777510000,7.956510009765625,0.6557084321975708,0.4116922914981842,-0.6958081126213074
1772698484787467000,7.966467041015625,0.7188266515731812,0.44291865825653076,-0.6107047200202942
1772698484797424000,7.976424072265625,0.6582536697387695,0.44601917266845703,-0.5499544739723206
1772698484807381000,7.986381103515625,0.4751266837120056,0.44676727056503296,-0.5543526411056519
1772698484817338000,7.996338134765625,0.24554543197155,0.42823299765586853,-0.5490740537643433
1772698484827295000,8.006294921875,0.06591415405273438,0.3418453633785248,-0.4389778971672058
1772698484837251800,8.016251953125,-0.04940872639417648,0.2070195972919464,-0.23328182101249695
1772698484847209000,8.026208984375,-0.14070534706115723,0.09119099378585815,0.02425064519047737
1772698484857167000,8.0361669921875,-0.256426066160202,0.03092687949538231,0.2764367461204529
1772698484867124000,8.0461240234375,-0.33851802349090576,0.038550976663827896,0.448655903339386
1772698484877080800,8.056080810546876,-0.3586365878582001,0.12291782349348068,0.5390187501907349
1772698484887038000,8.066037841796875,-0.31755468249320984,0.20553387701511383,0.5678330659866333
1772698484896995000,8.0759951171875,-0.19543948769569397,0.2441851943731308,0.503281831741333
1772698484906952000,8.085951904296875,-0.02324267476797104,0.2587772011756897,0.3176107704639435
1772698484916909000,8.095908935546875,0.12261072546243668,0.25422149896621704,0.021777985617518425
1772698484926866200,8.1058662109375,0.22447769343852997,0.253508597612381,-0.3045990467071533
1772698484936822800,8.11582275390625,0.28156206011772156,0.23518234491348267,-0.5332552194595337
1772698484946780000,8.12577978515625,0.3068391680717468,0.16743366420269012,-0.6086375713348389
1772698484956738000,8.135738037109375,0.284043550491333,0.11439759284257889,-0.5525295734405518
1772698484966695200,8.145695068359375,0.1797637641429901,0.04596767574548721,-0.4470910429954529
1772698484976652000,8.155652099609375,0.0029677164275199175,-0.0003805551677942276,-0.30759069323539734
1772698484986609000,8.16560888671875,-0.179571732878685,-0.056864868849515915,-0.1281290501356125
1772698484996566000,8.17556591796875,-0.32166367769241333,-0.12603187561035156,0.05761076882481575
1772698485006523000,8.18552294921875,-0.39046138525009155,-0.16730527579784393,0.2015378475189209
1772698485016480000,8.19547998046875,-0.38591939210891724,-0.17230859398841858,0.2612183392047882
1772698485026437000,8.20543701171875,-0.31585240364074707,-0.12207365781068802,0.24123689532279968
1772698485036394000,8.21539404296875,-0.16382020711898804,-0.05301477015018463,0.16147597134113312
1772698485046350800,8.225350830078124,0.05399413779377937,0.008850458078086376,0.03507862612605095
1772698485056308700,8.235308837890624,0.3142874836921692,0.03373013436794281,-0.09561807662248611
1772698485066265900,8.245265869140624,0.5689342021942139,0.03259802609682083,-0.19007933139801025
1772698485076223000,8.255222900390624,0.7324846982955933,0.04219098761677742,-0.23962529003620148
1772698485086179800,8.265179931640626,0.779868483543396,0.036192215979099274,-0.22812362015247345
1772698485096136700,8.27513671875,0.7187468409538269,0.064316026866436,-0.14939989149570465
1772698485106093800,8.28509375,0.5503128170967102,0.09186376631259918,-0.03705310821533203
1772698485116050700,8.29505078125,0.3511355221271515,0.09603064507246017,0.10694584995508194
1772698485126007800,8.3050078125,0.1883825659751892,0.0844791829586029,0.25223302841186523
1772698485135965000,8.31496484375,0.06933525949716568,0.06251124292612076,0.3354708254337311
1772698485145922000,8.324922119140625,0.019787417724728584,0.0610896497964859,0.3377094566822052
1772698485155879700,8.334879638671875,0.0668817088007927,0.08107271790504456,0.2909168004989624
1772698485165836800,8.3448369140625,0.1808205246925354,0.09764716774225235,0.23510944843292236
1772698485175794000,8.3547939453125,0.29461926221847534,0.14204148948192596,0.17994488775730133
1772698485185750800,8.364750732421875,0.37448185682296753,0.1722228229045868,0.1601264327764511
1772698485195708000,8.3747080078125,0.4257175624370575,0.21846044063568115,0.13720549643039703
1772698485205664800,8.384664794921875,0.3966670036315918,0.23173390328884125,0.11680860817432404
1772698485215622000,8.394621826171875,0.23603475093841553,0.19215385615825653,0.08066914230585098
1772698485225578800,8.404578857421875,-0.07549917697906494,0.12206742912530899,-0.21552257239818573
1772698485235536000,8.414535888671875,-0.38699179887771606,0.1359798163175583,-0.8458611965179443
1772698485245494000,8.424493896484375,-0.5311555862426758,0.3183187246322632,-1.3114678859710693
1772698485255450600,8.43445068359375,-0.5179823637008667,0.4924289882183075,-1.227562427520752
1772698485265407700,8.44440771484375,-0.36517199873924255,0.5488342642784119,-0.6490641832351685
1772698485275364900,8.45436474609375,-0.18059282004833221,0.5070804357528687,0.09355618804693222
1772698485285322000,8.464322021484374,-0.09036465734243393,0.5297735333442688,0.5911489725112915
1772698485295278800,8.47427880859375,-0.1378597915172577,0.5752376914024353,0.6036373972892761
1772698485305236000,8.484236083984374,-0.24050654470920563,0.6504376530647278,0.2234996259212494
1772698485315192800,8.49419287109375,-0.3012065887451172,0.664506733417511,-0.2558215260505676
1772698485325149700,8.504149658203126,-0.3005613088607788,0.6361754536628723,-0.5326510071754456
1772698485335106800,8.51410693359375,-0.2788117825984955,0.5898070335388184,-0.5681077241897583
1772698485345065000,8.52406494140625,-0.26588958501815796,0.5237606167793274,-0.5003702640533447
1772698485355022000,8.53402197265625,-0.249808669090271,0.45462512969970703,-0.47330740094184875
1772698485364978700,8.543978759765626,-0.19914735853672028,0.36143553256988525,-0.4860951006412506
1772698485374935800,8.553935791015626,-0.1213521733880043,0.2603245675563812,-0.46917030215263367
1772698485384893000,8.563892822265625,-0.1042054146528244,0.1953498125076294,-0.38691484928131104
1772698485394849800,8.573849853515625,-0.19594700634479523,0.18486778438091278,-0.27015092968940735
1772698485404807000,8.583806884765625,-0.37151429057121277,0.24290072917938232,-0.15843476355075836
1772698485414764000,8.593763916015625,-0.5484220385551453,0.3005916476249695,-0.08601091802120209
1772698485424720600,8.603720703125,-0.6177688837051392,0.358121782541275,-0.05095040053129196
1772698485434677800,8.613677734375,-0.5791559815406799,0.3473511338233948,-0.048666439950466156
1772698485444636000,8.623635986328125,-0.43225541710853577,0.3046793043613434,-0.06278492510318756
1772698485454593000,8.633593017578125,-0.25204119086265564,0.2706856429576874,-0.07383669912815094
1772698485464550000,8.6435498046875,-0.08530014753341675,0.2714821994304657,-0.06082049757242203
1772698485474506800,8.6535068359375,0.039197880774736404,0.3087226450443268,-0.010241985321044922
1772698485484463900,8.6634638671875,0.12794506549835205,0.36276113986968994,0.05343446508049965
1772698485494420700,8.673420654296875,0.19377624988555908,0.4050523638725281,0.08022520691156387
1772698485504377900,8.6833779296875,0.2532704770565033,0.4277496933937073,0.04475802555680275
1772698485514335000,8.6933349609375,0.31054040789604187,0.4322391748428345,-0.0488564670085907
1772698485524291800,8.703291748046874,0.3567153513431549,0.44281405210494995,-0.1492198258638382
1772698485534248700,8.713248779296874,0.3461013436317444,0.43850478529930115,-0.21708302199840546
1772698485544206800,8.723206787109374,0.29655107855796814,0.39960959553718567,-0.2094898223876953
1772698485554164000,8.7331640625,0.2331417351961136,0.3523751497268677,-0.16630108654499054
1772698485564120800,8.743120849609374,0.15107004344463348,0.2977182865142822,-0.1464589387178421
1772698485574078000,8.753077880859376,0.06692083179950714,0.2442045658826828,-0.1422538310289383
1772698485584034800,8.763034912109376,0.02781178057193756,0.203632652759552,-0.1384284645318985
1772698485593991700,8.77299169921875,0.053584787994623184,0.19361330568790436,-0.12196160852909088
1772698485603948800,8.78294873046875,0.11425745487213135,0.20528727769851685,-0.06871543079614639
1772698485613906000,8.792906005859376,0.18881504237651825,0.22922082245349884,-0.011871551163494587
1772698485623862800,8.80286279296875,0.2682752311229706,0.2533767521381378,0.016210149973630905
1772698485633820000,8.81281982421875,0.3491157293319702,0.25123924016952515,0.02062615565955639
1772698485643777800,8.82277783203125,0.43902111053466797,0.21374404430389404,0.022667469456791878
1772698485653735000,8.83273486328125,0.5214495062828064,0.12583479285240173,0.1160554438829422
1772698485663691800,8.84269189453125,0.5572969317436218,0.11991246789693832,0.23209762573242188
1772698485673649000,8.85264892578125,0.5120620727539062,0.04403819143772125,0.2730232775211334
1772698485683606000,8.86260595703125,0.4484058618545532,0.024754241108894348,0.38841724395751953
1772698485693562600,8.872562744140625,0.34835168719291687,-0.033478811383247375,0.327807754278183
1772698485703519700,8.882519775390625,0.28294870257377625,-0.05196168273687363,0.21005447208881378
1772698485713476900,8.892476806640625,0.2687340974807739,-0.06815838813781738,0.03834764286875725
1772698485723433700,8.902433837890625,0.28420281410217285,-0.060277294367551804,-0.07693607360124588
1772698485733392000,8.912391845703125,0.2618955969810486,-0.0773937851190567,-0.12075813859701157
1772698485743348700,8.9223486328125,0.10245989263057709,-0.03664635121822357,-0.07307317107915878
1772698485753305900,8.932305908203125,-0.10591672360897064,-0.13516724109649658,0.12498346716165543
1772698485763262700,8.9422626953125,-0.1754649132490158,-0.18762806057929993,0.129751056432724
1772698485773219800,8.9522197265625,-0.17008264362812042,-0.19050075113773346,0.019949011504650116
1772698485783177000,8.962177001953124,-0.17835867404937744,-0.18375283479690552,0.0068230899050831795
1772698485793133800,8.9721337890625,-0.1850312352180481,-0.18011020123958588,0.09266354143619537
1772698485803090700,8.982090576171874,-0.16491985321044922,-0.19162118434906006,0.20018227398395538
1772698485813047800,8.9920478515625,-0.10789042711257935,-0.20980991423130035,0.30107414722442627
1772698485823004700,9.002004638671876,-0.03451022133231163,-0.21223577857017517,0.3392958343029022
1772698485832962800,9.011962890625,0.026132406666874886,-0.18203242123126984,0.3018137216567993
1772698485842920000,9.021919921875,0.067673459649086,-0.1545874923467636,0.22840182483196259
1772698485852876800,9.031876708984376,0.08009149134159088,-0.1405750960111618,0.13549959659576416
1772698485862833700,9.041833740234376,0.0816933810710907,-0.148199200630188,0.04946751147508621
1772698485872790800,9.051790771484375,0.11250508576631546,-0.012612848542630672,0.0648980662226677
1772698485882748000,9.061747802734375,0.2538699507713318,-0.0690430998802185,0.4930241107940674
1772698485892704800,9.071704833984375,0.21816866099834442,-0.18496733903884888,0.3774520754814148
1772698485902662000,9.081661865234375,0.16303057968616486,-0.14764925837516785,0.07853808254003525
1772698485912618800,9.09161865234375,0.17013297975063324,-0.000024584122002124786,-0.15913301706314087
1772698485922576000,9.101575927734375,0.17341293394565582,-0.21779713034629822,-0.3019604980945587
1772698485932533800,9.11153369140625,0.09740869700908661,-0.35855236649513245,-0.32337304949760437
1772698485942491000,9.121490966796875,0.04038137197494507,-0.2792961597442627,-0.34142234921455383
1772698485952448000,9.131447998046875,-0.07183091342449188,-0.03488829359412193,-0.43201330304145813
1772698485962404600,9.141404541015625,-0.11008749157190323,0.12109145522117615,-0.3058135509490967
1772698485972361700,9.15136181640625,-0.02723415568470955,0.18802228569984436,-0.060235727578401566
1772698485982318800,9.16131884765625,0.035067569464445114,0.126373291015625,0.16645760834217072
1772698485992276000,9.17127587890625,0.06702812016010284,0.13812008500099182,0.28579962253570557
1772698486002232800,9.18123291015625,0.11023018509149551,0.1948898881673813,0.29613402485847473
1772698486012190000,9.19118994140625,0.15150977671146393,0.2022353559732437,0.2510860562324524
1772698486022146800,9.201146728515624,0.17800849676132202,0.09700347483158112,0.18670307099819183
1772698486032104700,9.211104736328124,0.20517028868198395,0.014235461130738258,0.11224851757287979
1772698486042061800,9.221061767578124,0.2340400218963623,0.05269310623407364,0.017747849225997925
1772698486052019000,9.23101904296875,0.2026088833808899,0.06431147456169128,-0.10215157270431519
1772698486061976000,9.24097607421875,0.11371149122714996,0.04266716167330742,-0.21936555206775665
1772698486071933000,9.250932861328126,0.031148144975304604,0.05268959701061249,-0.30665749311447144
1772698486081889800,9.260889892578126,-0.020772842690348625,0.07079403102397919,-0.3508606553077698
1772698486091847000,9.270846923828126,-0.052411969751119614,0.07954207062721252,-0.36205819249153137
1772698486101804000,9.280803955078126,-0.07341472059488297,0.05903918668627739,-0.35316696763038635
1772698486111761000,9.290760986328126,-0.08187027275562286,0.03301554173231125,-0.34054237604141235
1772698486121718000,9.300718017578125,-0.08346071094274521,0.011403722688555717,-0.3141126334667206
1772698486131676000,9.310676025390626,-0.07858311384916306,0.0077113318257033825,-0.2798590660095215
1772698486141633000,9.320633056640625,-0.0626044049859047,0.003699012566357851,-0.21197161078453064
1772698486151590000,9.33058984375,-0.039991267025470734,-0.02733675017952919,-0.13550721108913422
1772698486161547000,9.340547119140625,-0.0195632204413414,-0.04922686517238617,-0.04390060156583786
1772698486171504000,9.350504150390625,-0.0027988641522824764,-0.07821928709745407,0.03894156217575073
1772698486181460700,9.360460693359375,0.00028188060969114304,-0.1027267575263977,0.10234051197767258
1772698486191417900,9.37041796875,-0.00603086594492197,-0.12219976633787155,0.14809004962444305
1772698486201375000,9.380375,-0.06751473248004913,-0.17792987823486328,0.11671215295791626
1772698486211331800,9.390331787109375,-0.12931926548480988,-0.157464861869812,-0.0014915778301656246
1772698486221290000,9.4002900390625,-0.16469402611255646,-0.1270156055688858,-0.16490766406059265
1772698486231246800,9.410246826171875,-0.20345421135425568,-0.09245920181274414,-0.1741286814212799
1772698486241204000,9.420203857421875,-0.15775355696678162,-0.11094766855239868,-0.11817406117916107
1772698486251160800,9.430160888671875,-0.1318463385105133,-0.10980969667434692,-0.07140175998210907
1772698486261118000,9.440117919921875,-0.170815572142601,-0.1140233501791954,-0.028388511389493942
1772698486271075000,9.450074951171874,-0.06981491297483444,-0.06986308097839355,-0.04686898738145828
1772698486281032000,9.460031982421874,-0.0712096095085144,-0.08103743940591812,-0.05160914734005928
1772698486290988800,9.46998876953125,-0.06989134848117828,-0.059381432831287384,-0.050307855010032654
1772698486300946000,9.47994580078125,-0.03612380102276802,-0.05700962245464325,-0.023538289591670036
1772698486310903000,9.489903076171874,0.012040265835821629,-0.08164679259061813,0.044156335294246674
1772698486320861000,9.49986083984375,0.05580532178282738,-0.09463076293468475,0.1265537440776825
1772698486330818000,9.509818115234374,0.09208744019269943,-0.10288520902395248,0.1902865618467331
1772698486340775000,9.51977490234375,0.10537102073431015,-0.11425451189279556,0.20895186066627502
1772698486350731800,9.529731689453126,0.10796307772397995,-0.09948408603668213,0.2105574756860733
1772698486360689000,9.53968896484375,0.09589841961860657,-0.07303730398416519,0.19496360421180725
1772698486370646000,9.54964599609375,0.05493449047207832,-0.047763045877218246,0.17786966264247894
1772698486380603100,9.55960302734375,-0.009517466649413109,-0.013703876174986362,0.14763186872005463
1772698486390560000,9.56956005859375,-0.07047006487846375,0.009174702689051628,0.098216712474823
1772698486400516900,9.579516845703125,-0.10259870439767838,0.008373623713850975,0.05225827544927597
1772698486410474000,9.589473876953125,-0.10974186658859253,-0.0012466059997677803,0.004995446186512709
1772698486420432000,9.599431884765625,-0.12024404108524323,-0.015187188982963562,-0.04190068691968918
1772698486430389000,9.609388916015625,-0.1307949423789978,-0.015221266075968742,-0.10449912399053574
1772698486440346000,9.61934619140625,-0.1229865550994873,-0.009717044420540333,-0.16729459166526794
1772698486450303000,9.629302978515625,-0.09455889463424683,-0.0076429275795817375,-0.1887611448764801
1772698486460259800,9.639259765625,-0.05201037600636482,-0.00006623426452279091,-0.17779558897018433
1772698486470217000,9.649217041015625,0.0027053363155573606,-0.002146962098777294,-0.14211587607860565
1772698486480174000,9.659174072265625,0.05801146849989891,-0.016680896282196045,-0.1100921779870987
1772698486490131000,9.669130859375,0.10320962965488434,-0.026835888624191284,-0.07569320499897003
1772698486500088000,9.679088134765625,0.10446291416883469,-0.027690231800079346,-0.05967269092798233
1772698486510046000,9.6890458984375,0.061773475259542465,-0.02394723892211914,-0.06722542643547058
1772698486520002800,9.6990029296875,0.005166124552488327,-0.01797669753432274,-0.10522953420877457
1772698486529960000,9.7089599609375,-0.025477560237050056,-0.02766028791666031,-0.18053579330444336
1772698486539917000,9.7189169921875,-0.026177437976002693,-0.044431280344724655,-0.2664019763469696
1772698486549874200,9.728874267578124,0.003537854179739952,-0.05416564270853996,-0.3107985258102417
1772698486559830800,9.738830810546874,0.03880103677511215,-0.055809613317251205,-0.30906108021736145
1772698486569788000,9.748787841796876,0.06213859096169472,-0.03904125839471817,-0.2627091109752655
1772698486579745000,9.7587451171875,0.07428845763206482,-0.013670124113559723,-0.11699770390987396
1772698486589702000,9.768701904296876,0.08408944308757782,0.007313223090022802,0.05844884365797043
1772698486599659000,9.778658935546876,0.0655229464173317,0.03524099662899971,0.1272641271352768
1772698486609617000,9.788616943359376,0.04944545775651932,0.02654316835105419,0.14346101880073547
1772698486619574000,9.798573974609376,0.0726434588432312,-0.007995633408427238,0.17458964884281158
1772698486629531000,9.80853076171875,0.1009749248623848,-0.04741188883781433,0.1901240348815918
1772698486639488000,9.818488037109375,0.09039817750453949,-0.05058078467845917,0.15041576325893402
1772698486649445000,9.828445068359375,0.037066251039505005,-0.032366879284381866,0.07800624519586563
1772698486659402000,9.838402099609375,-0.020174669101834297,-0.0017783455550670624,0.008945954963564873
1772698486669358800,9.84835888671875,-0.06258551776409149,0.043221596628427505,-0.07181911915540695
1772698486679316000,9.85831591796875,-0.074513278901577,0.07185430824756622,-0.13158446550369263
1772698486689272800,9.86827294921875,-0.07796739041805267,0.07616839557886124,-0.1615760177373886
1772698486699230000,9.87822998046875,-0.06532031297683716,0.06783589720726013,-0.14746686816215515
1772698486709188000,9.88818798828125,-0.020256925374269485,0.03350226208567619,-0.06122017651796341
1772698486719145000,9.89814501953125,0.06165391579270363,-0.0024903586599975824,0.02488594502210617
