time,seconds_elapsed,z,y,x
1772614521230619600,0.06361962890625,-0.0352963543087244,-0.05639876357018947,-0.052526598311960694
1772614521240686800,0.073686767578125,-0.03477466852217913,-0.015546528699994086,-0.011632497061416506
1772614521250753800,0.08375390625,-0.04743862752318382,0.059313189712166786,0.023012407601252196
1772614521260821000,0.093821044921875,-0.058738896955549715,0.08432254328429699,0.025961101339012384
1772614521270888000,0.103887939453125,-0.025669863307476042,0.10186287615001201,0.03133190765716135
1772614521280955000,0.113954833984375,-0.0033949031352996824,0.09415478599071501,0.02173888053409755
1772614521291021800,0.124021728515625,0.041620881155133245,0.06175532216727733,0.009898585940897464
1772614521301088800,0.1340888671875,0.06885404825657605,0.020963293051719664,-0.03907740721739828
1772614521311155700,0.14415576171875,0.08662351370304823,-0.03180558958351612,-0.08840338285714387
1772614521321222700,0.15422265625,0.10853899291306733,-0.05061667303740978,-0.1190741962570697
1772614521331289900,0.164289794921875,0.1168193300023675,-0.030498598638176916,-0.09974610319174826
1772614521341356800,0.174356689453125,0.11043109026998281,0.024169980138540267,-0.06521408431902527
1772614521351423700,0.184423828125,0.11807254493385552,0.04693710774183273,-0.05619345025643706
1772614521361490700,0.19449072265625,0.08313216445595026,0.03385375428497791,-0.09724559161290526
1772614521371557600,0.2045576171875,0.03642185120731592,0.02794482250213623,-0.15640373689383266
1772614521381624600,0.21462451171875,-0.014822890600562095,0.051639001822471615,-0.1237242140199989
1772614521391691800,0.22469189453125,-0.0601207067027688,0.08011281663477421,-0.09592720249071716
1772614521401758700,0.2347587890625,-0.09365618881881237,0.061329790231585496,-0.10863755791671574
1772614521411826000,0.244825927734375,-0.09978928474634885,0.07618190692663192,-0.09731960669718683
1772614521421892900,0.254892822265625,-0.09792816704958676,0.12013386137783527,-0.09086743488311767
1772614521431959800,0.264959716796875,-0.0863715847685933,0.13352291978299616,-0.04511135361939669
1772614521442026800,0.27502685546875,-0.06334580622911452,0.16522037281692026,-0.004825520460307597
1772614521452094000,0.285093994140625,-0.02039630681872368,0.1478039585918188,0.0004873451255261898
1772614521462161000,0.295160888671875,-0.005750526350736617,0.1104553479284048,-0.011532909144461154
1772614521472227800,0.305227783203125,-0.018256956702470777,0.08520750942528248,-0.009918678880855441
1772614521482294800,0.315294677734375,-0.039515141047537325,0.09492343227565288,-0.017528715493157505
1772614521492361700,0.32536181640625,-0.06583703852295875,0.0684358228445053,-0.04314407213442027
1772614521502428700,0.3354287109375,-0.09790624747872352,0.057336336681246755,-0.05954422198906541
1772614521512495900,0.345495849609375,-0.12532236993163823,0.06281038417816162,-0.019630071686580777
1772614521522562800,0.355562744140625,-0.16182663872539996,0.07076455805301665,0.032555604233220216
1772614521532629800,0.365629638671875,-0.15003127925246953,0.13907880034446715,0.055179523973539465
1772614521542696700,0.37569677734375,-0.16565671840757132,0.1170212823152542,0.08717172217033803
1772614521552763600,0.385763671875,-0.15939122827202082,0.12422902173697947,0.020706176485493777
1772614521562830600,0.39583056640625,-0.16464637232124804,0.08861293395459652,-0.06497947184555232
1772614521572897800,0.405897705078125,-0.19545885921418665,0.052390696972608564,-0.036176498144119974
1772614521582964700,0.41596484375,-0.1761190757110715,0.05202829340100288,0.01834931116104126
1772614521593032000,0.426031982421875,-0.14022650907486675,0.030858664122223853,0.05851458668038249
1772614521603099000,0.436098876953125,-0.12421382416784763,0.02977905219197273,0.05676153246797621
1772614521613165800,0.446165771484375,-0.10223755468130111,0.02482815178632736,0.02324095566011965
1772614521623232800,0.456232666015625,-0.10550912369787692,0.033654432320594785,0.02418897709995508
1772614521633299700,0.4662998046875,-0.07391103938519954,0.06262158360779285,0.08906228515729307
1772614521643367000,0.476366943359375,-0.057957975710928436,0.05565291363894939,0.0646634646989405
1772614521653433900,0.486433837890625,-0.06766834560334682,0.02643675602674484,0.015944076650217173
1772614521663500800,0.496500732421875,-0.07099661324322223,0.03357143021225929,0.010529065864160657
1772614521673567700,0.506567626953125,-0.08445084583908319,-0.012830840000510215,0.0007194003157317638
1772614521683634700,0.516634765625,-0.10114332970380782,-0.04640519282221794,0.03678429131153971
1772614521693701600,0.52670166015625,-0.11863719307929277,-0.014001637345552443,0.0585599236594513
1772614521703768800,0.536768798828125,-0.1106882799014449,-0.039463410860300065,0.06522898962721228
1772614521713835800,0.546835693359375,-0.11425824734270572,-0.05268704957067966,0.023049122882448137
1772614521723902700,0.55690283203125,-0.11287468402981757,-0.05207447063028812,-0.04004351230319589
1772614521733969700,0.5669697265625,-0.09305676162093877,-0.06339315250217914,-0.04173742020688951
1772614521744036600,0.57703662109375,-0.08759440456181763,-0.045856326767802234,-0.024015227968245744
1772614521754103600,0.587103515625,-0.08349865968078374,-0.020509119543433187,-0.023816453993134198
1772614521764171000,0.5971708984375,-0.08383943594247102,0.01300970369875431,-0.023248298716358837
1772614521774238000,0.607238037109375,-0.08427256666272878,0.05461304919719696,0.02289645307138562
1772614521784305000,0.617304931640625,-0.0835050894215703,0.08600479728281497,0.04030124992392957
1772614521794371800,0.627371826171875,-0.09704641577899456,0.08674187938570976,0.04294380032196641
1772614521804438800,0.637438720703125,-0.11735416753143071,0.07808043402433396,0.025739531010203064
1772614521814505700,0.647505615234375,-0.11805588605999946,0.03198912945687771,-0.02093815861046314
1772614521824573000,0.657572998046875,-0.1259843409717083,-0.009423661905527115,-0.07010181982796639
1772614521834640000,0.667639892578125,-0.11956219896972178,-0.030554712739586827,-0.11588924607802181
1772614521844706800,0.677706787109375,-0.12360358331501484,-0.04433656985461712,-0.12453648025095462
1772614521854773800,0.687773681640625,-0.11316197653859852,-0.05073591550290584,-0.11185034595075995
1772614521864840700,0.6978408203125,-0.11945318563729523,-0.045474633973836893,-0.12900924175083636
1772614521874907600,0.70790771484375,-0.12494096939861773,-0.008970072919130325,-0.10242997198086232
1772614521884974600,0.717974609375,-0.12901713279634713,0.017391864305734632,-0.10743388121537864
1772614521895041800,0.728041748046875,-0.1354632401958108,0.023472645524144173,-0.124575424021855
1772614521905108700,0.738108642578125,-0.14376315876841544,0.043270986449718475,-0.11662870280109346
1772614521915175700,0.74817578125,-0.1604188177540898,0.0918202055633068,-0.10964180305581539
1772614521925242600,0.75824267578125,-0.12030512629151344,0.13142390167713164,-0.07048822532966732
1772614521935309800,0.768309814453125,-0.0760872143805027,0.11914485034048557,-0.08112235900349915
1772614521945376800,0.778376708984375,-0.03522621168196201,0.09248363790810107,-0.09113868957255035
1772614521955444000,0.78844384765625,-0.009958791695535183,0.06887713687121867,-0.10267101419512181
1772614521965511000,0.798510986328125,-0.00022357962280511855,0.03217851454913616,-0.12401541551891714
1772614521975577900,0.808577880859375,-0.020083295346796513,0.02088204450905323,-0.13886479226760565
1772614521985644800,0.818644775390625,-0.025049977843463418,0.06109831956326961,-0.10545761270634829
1772614521995711700,0.828711669921875,-0.00963087491542101,0.1016629696637392,-0.04562894775271415
1772614522005778000,0.83877783203125,-0.007294833183288574,0.12408698291778564,-0.020604067817889152
1772614522015846000,0.848845947265625,-0.017943360708653926,0.15799918939173221,-0.005157382763177156
1772614522025912800,0.858912841796875,-0.041782501457631585,0.18468319817781448,-0.015224457138776779
1772614522035978800,0.868978759765625,-0.04732727610319853,0.17398177142143248,-0.04529047304596752
1772614522046045700,0.879045654296875,-0.06119914958924055,0.13218962535262108,-0.10446633664667605
1772614522056112600,0.889112548828125,-0.0593821632951498,0.10043956534862518,-0.09862959331721066
1772614522066179800,0.899179931640625,-0.055712827132642265,0.026952304333448408,-0.12704053549375385
1772614522076246800,0.909246826171875,-0.05705927330553531,-0.05840075104236602,-0.13176475100405513
1772614522086313700,0.919313720703125,-0.04989566528648138,-0.08088613909482956,-0.11463511783108114
1772614522096380700,0.929380615234375,-0.048417409427464,-0.08513736679852009,-0.09400591557193547
1772614522106447600,0.939447509765625,-0.057601125097274775,-0.08102408626079559,-0.05918470449429005
1772614522116514000,0.94951416015625,-0.07488865224570035,-0.07564590035378932,-0.05007116798385977
1772614522126581000,0.9595810546875,-0.10808277357816695,-0.08058277223408222,-0.017957937223277987
1772614522136648000,0.96964794921875,-0.10859452249258757,-0.07484042918980122,0.0010392068546265364
1772614522146715000,0.97971484375,-0.11797492977827786,-0.07575228333771228,0.017318397210724652
1772614522156781800,0.98978173828125,-0.13247691786140203,-0.06979834336936473,0.012731690474972128
1772614522166849000,0.99984912109375,-0.14698796603381634,-0.06150865392982959,-0.0008425152387470006
1772614522176916200,1.009916259765625,-0.12304390360563992,-0.05969955868124961,-0.04876373864710331
1772614522186983200,1.019983154296875,-0.10563567268699407,-0.08121814752817154,-0.11766023780591785
1772614522197050000,1.030050048828125,-0.09566548281461,-0.10022679938077926,-0.16001403634548186
1772614522207117000,1.040116943359375,-0.013675766392052173,-0.05722177039086818,-0.15278024916704744
1772614522217184000,1.05018408203125,0.017694646644592284,-0.07480652692019939,-0.13674633880890905
1772614522227251000,1.0602509765625,0.029962007543444632,-0.025281156250834463,-0.11134345587454736
1772614522237318100,1.070318115234375,0.045026305684447286,0.03501461475789547,-0.07313768039252609
1772614522247385000,1.080385009765625,0.026398177582025527,0.06763619689941405,-0.0402596027392894
1772614522257452000,1.0904521484375,0.012104863813519478,0.10220248336791991,-0.03794679575227201
1772614522267519000,1.10051904296875,0.007024491809308528,0.1231429800659418,-0.06275529299005865
1772614522277586000,1.1105859375,-0.02675093654245138,0.14054828837513922,-0.07638886420819908
1772614522287652900,1.12065283203125,-0.08950842148959637,0.14386252748966216,-0.11427834028266369
1772614522297720000,1.130719970703125,-0.14010229817330835,0.1354179397493601,-0.12865882087796926
1772614522307787000,1.140787109375,-0.15702245331406592,0.1161585280060768,-0.13538531612139196
1772614522317854000,1.15085400390625,-0.17329904985427855,0.10282499918043612,-0.14556304779723286
1772614522327921000,1.1609208984375,-0.19272855746746062,0.08604922094643115,-0.16209577452298252
1772614522337988000,1.170988037109375,-0.1744929358139634,0.07802315087914466,-0.18982918276414273
1772614522348055000,1.181054931640625,-0.12987199606001376,0.059897711601853365,-0.17773487687725573
1772614522358122000,1.1911220703125,-0.10209931525439023,0.017635025411844252,-0.1821105712108314
1772614522368189200,1.201189208984375,-0.07226619478762149,-0.006581131955981254,-0.19458861571829764
1772614522378256100,1.211256103515625,-0.03682458678930998,0.007990998753905297,-0.15877718802690505
1772614522388323000,1.221322998046875,-0.011907295414805412,0.04121113131046295,-0.08843512970227747
1772614522398390000,1.23139013671875,0.01613806485235691,0.08874503590166569,-0.03598364245314151
1772614522408457000,1.24145703125,0.02919920647740364,0.10929916363060474,-0.00253934575188905
1772614522418524000,1.25152392578125,0.025007015484571456,0.12023089201152325,0.0065857350658625365
1772614522428591000,1.261591064453125,0.014498188690841197,0.10055763877034186,-0.07086290386095642
1772614522438658000,1.271657958984375,0.007141103926301002,0.0195762226074934,-0.16323614019714294
1772614522448725000,1.28172509765625,-0.001360182437300682,-0.021620880177617072,-0.15368479679133742
1772614522458792000,1.2917919921875,0.01447802268564701,0.0160556472659111,-0.1415838054353371
1772614522468859000,1.30185888671875,0.006431494352221488,-0.0196545485407114,-0.15489596267938613
1772614522478925800,1.31192578125,-0.004423369400203228,-0.07972469410002231,-0.1469695535942912
1772614522488993000,1.321992919921875,-0.013360709093511104,-0.08226619527637959,-0.14663984671588987
1772614522499060000,1.33206005859375,-0.03118511959761381,-0.08571896607875823,-0.168550832413882
1772614522509127200,1.342127197265625,-0.04242372197061777,-0.10755670387744903,-0.17191826302036642
1772614522519194000,1.352194091796875,-0.013160218085348604,-0.07459902164936065,-0.17918098403234034
1772614522529261000,1.362260986328125,-0.058545420210063454,-0.012924363502860069,-0.15735679983496664
1772614522539328000,1.372327880859375,-0.08563859431892633,0.047619244787096976,-0.14070990867763758
1772614522549395200,1.382395263671875,-0.07521686128675938,0.07055997539162635,-0.1474170781660825
1772614522559462100,1.392462158203125,-0.05597440067827701,0.07744330516457557,-0.13495861514192073
1772614522569529000,1.402529052734375,-0.04711655596196651,0.08434533963799476,-0.0712940983524546
1772614522579596000,1.412595947265625,-0.039435061548650265,0.08146013959050179,-0.020704386387206612
1772614522589663000,1.4226630859375,-0.003728372873365879,0.1077934352427721,-0.03847721283454448
1772614522599730000,1.43272998046875,-0.0023728666111826895,0.06979951241314411,-0.0726794152310118
1772614522609797000,1.442797119140625,0.011769640509784221,0.0803565622627735,-0.10823526072613894
1772614522619864000,1.452864013671875,0.06230535726547241,0.06963292367458343,-0.0872154151815921
1772614522629931000,1.462930908203125,0.09518529808223247,0.05730009632408618,-0.10115027090124785
1772614522639998000,1.472998046875,0.09247194747030735,-0.004244797962903976,-0.18846647957619278
1772614522650065000,1.48306494140625,0.06970745021551847,-0.04373509683012962,-0.18156689278818666
1772614522660131800,1.4931318359375,0.0324576237514615,-0.0373182155251503,-0.13394658855516461
1772614522670199000,1.503198974609375,0.012897475495934486,-0.06311082842946052,-0.09991495695263147
1772614522680266200,1.513266357421875,-0.018008827160298824,-0.051746553850173946,-0.09916249461751431
1772614522690333200,1.523333251953125,-0.05622895996123552,-0.02226093164682388,-0.09977299119867383
1772614522700400000,1.533400146484375,-0.05659954683929681,0.012194295662641524,-0.08979816168379039
1772614522710467000,1.543467041015625,-0.06871873143911361,0.04440671248137951,-0.04031812799349427
1772614522720534000,1.553533935546875,-0.06299100144207477,0.11978490180969238,0.0034678953062742945
1772614522730601000,1.56360107421875,-0.05262684381604194,0.12331366045773029,-0.0023763006772845982
1772614522740668200,1.573668212890625,-0.061576166208088395,0.0902870046466589,-0.03445829604938626
1772614522750735000,1.583735107421875,-0.0692810414969921,0.05934650745987892,-0.10293105337079614
1772614522760802000,1.593802001953125,-0.05342442393451929,-0.018276245924830434,-0.1586377795562148
1772614522770869000,1.603868896484375,-0.01009615433961153,-0.08516893098056316,-0.19726371667906642
1772614522780936000,1.61393603515625,-0.03517097436338663,-0.0591425093203783,-0.1591966920806095
1772614522791003000,1.6240029296875,-0.03311871800869703,-0.028414778101444244,-0.07521580184083432
1772614522801070000,1.634070068359375,-0.014196283134818076,-0.03323182299435139,-0.08088617562744765
1772614522811137000,1.644136962890625,-0.026032266879081726,-0.04288403295874595,-0.11693473654296248
1772614522821204000,1.654203857421875,-0.06254676480591297,-0.0020528408765792846,-0.0956141544861719
1772614522831271000,1.66427099609375,-0.09401040908396244,0.05264437947273254,-0.0672212594229728
1772614522841337900,1.674337890625,-0.13541180226951838,0.0744616590052843,-0.037547530768997965
1772614522851405000,1.684405029296875,-0.1603796547874808,0.11323299594819546,-0.020025464212335645
1772614522861472300,1.69447216796875,-0.11265607284307479,0.14628537072241304,-0.03248633838929236
1772614522871539200,1.704539306640625,-0.06590396627932786,0.13283493751883507,-0.041412572166696186
1772614522881606100,1.714606201171875,-0.04142418953925371,0.11012275497317313,-0.05115202202312648
1772614522891673000,1.724673095703125,-0.012013970659673212,0.11553192054033279,-0.06477514491248876
1772614522901740000,1.734739990234375,0.012202478969097137,0.05537351217567921,-0.10192026889305561
1772614522911807000,1.744806884765625,0.0054191024392843245,-0.02469312722980976,-0.16401570973489432
1772614522921874000,1.7548740234375,-0.008271569260954856,-0.02217208431959152,-0.15290595790594816
1772614522931941000,1.764941162109375,-0.0383572031840682,-0.006725508862733841,-0.12437405623085795
1772614522942008000,1.775008056640625,-0.05094546660035848,-0.008068740165233611,-0.11545490978136658
1772614522952075000,1.785074951171875,-0.07964139973074197,0.005379354950785636,-0.11129541548173874
1772614522962142000,1.795141845703125,-0.09691460609287023,0.05513561176657676,-0.08667820303235202
1772614522972209000,1.805208984375,-0.12360007618367672,0.10671499235630034,-0.03951181657928973
1772614522982275800,1.81527587890625,-0.1444488029450178,0.13738310234248638,0.008577420339733362
1772614522992343000,1.825343017578125,-0.12798720522671936,0.14037643893957139,-0.0023318404810503124
1772614523002410000,1.835409912109375,-0.10009177482426165,0.12517244006693362,-0.014480616501532494
1772614523012477000,1.845476806640625,-0.04776508299857378,0.13593056544661522,-0.025068171087279913
1772614523022544100,1.855544189453125,0.0064060676500201225,0.14384499183297156,-0.02575491124242544
1772614523032611000,1.865611083984375,0.057712476517260074,0.13036357896924017,-0.026917781009338795
1772614523042678000,1.875677978515625,0.07941577428132295,0.08452420333623886,-0.05089483239166438
1772614523052745200,1.8857451171875,0.06854074452370405,0.02853518961071968,-0.07233462038133293
1772614523062812200,1.895812255859375,-0.0037082068681716916,0.011115852776169777,-0.07012516417093574
1772614523072879000,1.905879150390625,-0.08550035489201545,-0.009988894572854042,-0.05718892756719142
1772614523082946000,1.915946044921875,-0.14640753579735755,-0.05663958658874035,-0.09080609661731869
1772614523093013000,1.926012939453125,-0.18065730366259813,-0.09331190542578696,-0.12969232864417135
1772614523103080000,1.936079833984375,-0.2111483035162091,-0.10298808078765868,-0.13745850566625595
1772614523113148200,1.946148193359375,-0.2168047218427062,-0.07482172448933123,-0.11988470892235636
1772614523123214300,1.95621435546875,-0.21582973933070898,-0.0825613788306713,-0.1405724364357069
1772614523133281300,1.96628125,-0.18576544045656918,-0.08438567164838313,-0.1314526163149625
1772614523143348200,1.97634814453125,-0.14093611864894628,-0.06691255879998206,-0.07616214278023689
1772614523153415200,1.986415283203125,-0.07570347575992345,-0.005868599772453307,-0.01485715819634497
1772614523163482000,1.996482177734375,-0.048643034876883026,0.021350246542692183,-0.013139431025646625
1772614523173549000,2.006549072265625,-0.060387540945410725,-0.036762919729948045,-0.0596859320146963
1772614523183616300,2.0166162109375,-0.05149608622044324,-0.06093523795604706,-0.11832531411852687
1772614523193683200,2.02668310546875,-0.05418722500056028,-0.028013796085119246,-0.07548493763841688
1772614523203750100,2.036750244140625,-0.030234102483093737,0.016118775629997254,-0.017200835245661437
1772614523213817000,2.046817138671875,-0.03605535598248243,-0.001291208854317665,-0.051182965150661765
1772614523223884000,2.056884033203125,-0.06228869839161634,-0.016104747104644775,-0.11752744173910468
1772614523233951000,2.066950927734375,-0.07007774483263492,-0.04336801708340644,-0.1583271792370826
1772614523244018200,2.07701806640625,-0.049584115119278425,-0.06191840377449989,-0.20499365334399045
1772614523254085400,2.08708544921875,-0.02901186721175909,-0.07682078935205935,-0.16485968627836553
1772614523264152300,2.09715234375,-0.03271656694859266,-0.0355839390784502,-0.0952631490914151
1772614523274219300,2.10721923828125,-0.018685703508555886,0.0010299275696277618,-0.05887443296872079
1772614523284286200,2.1172861328125,-0.020195523549616335,0.02803191626369953,-0.048578079881891605
1772614523294353200,2.127353271484375,-0.016416297271847725,0.0506681109637022,-0.0659581806845963
1772614523304420400,2.13742041015625,-0.018962474623322487,0.07204641455709934,-0.0485179837251082
1772614523314487300,2.1474873046875,-0.03712064712643623,0.11410568712949752,-0.0525387636737898
1772614523324554200,2.15755419921875,-0.029082886621356007,0.13066577678620814,-0.06141198862232267
1772614523334621200,2.16762109375,-0.01351385382860899,0.1557031874090433,-0.05768040087856352
1772614523344688000,2.177688232421875,0.03134673990011215,0.14823767383396624,-0.07603299997523427
1772614523354755000,2.187755126953125,0.07579641474038362,0.1468845056593418,-0.04046265103071928
1772614523364822300,2.197822265625,0.08483896837383509,0.15954875692129133,-0.010401274766027927
1772614523374889200,2.20788916015625,0.061333589623868465,0.17286767269968986,0.04252933776956051
1772614523384956200,2.2179560546875,0.014742811101675033,0.18060323538780212,0.01120411558151245
1772614523395023000,2.228023193359375,-0.0417468456223607,0.14768880777955054,-0.044355055359378455
1772614523405090000,2.238090087890625,-0.10119564441293477,0.1272001465022564,-0.07681340976320207
1772614523415157000,2.248156982421875,-0.13754706073254347,0.09767945298552512,-0.10450352685190736
1772614523425224200,2.25822412109375,-0.1364306239232421,0.03515373096764087,-0.11802505253031849
1772614523435291400,2.26829150390625,-0.13385492821633815,-0.006748305216431617,-0.14841544155366718
1772614523445358300,2.2783583984375,-0.1217684768423438,-0.027684125739336013,-0.14335388384778053
1772614523455425300,2.28842529296875,-0.11277210043817758,-0.02409574585855007,-0.08446607994083315
1772614523465492200,2.2984921875,-0.12629413757324218,0.005742927566170692,-0.03197060741949826
1772614523475559200,2.30855908203125,-0.1344897189885378,0.04705576568543911,0.011383198475465178
1772614523485626000,2.318626220703125,-0.15259469999969005,0.06582827069461346,0.014357793839462101
1772614523495693300,2.328693359375,-0.17869418689608574,0.06706453449130058,0.009331928501464425
1772614523505760300,2.33876025390625,-0.16554916637986897,0.07026479183733463,-0.003508483044989407
1772614523515827200,2.3488271484375,-0.1252390755623579,0.06391337698400021,-0.040265192229859526
1772614523525894100,2.35889404296875,-0.09088555506169796,0.024895956325531005,-0.057615701611898835
1772614523535961000,2.368961181640625,-0.058304889452457424,0.009852700972557067,-0.0649441813364625
1772614523546028000,2.379028076171875,-0.046692777591943735,-0.002800444373488426,-0.07255100307837128
1772614523556095200,2.38909521484375,-0.09365560429692268,-0.00041910219490528107,-0.04852024874743074
1772614523566162200,2.399162109375,-0.11586305219084024,0.02247662022411823,-0.028254874831996856
1772614523576229000,2.40922900390625,-0.1364306239232421,0.01764905393719673,-0.038305728725157674
1772614523586296000,2.419296142578125,-0.13042086211442946,0.00008007949888706206,-0.04383636524751782
1772614523596363300,2.42936328125,-0.06192103412300348,0.030950434058904647,-0.02161108943596482
1772614523606430200,2.43943017578125,-0.033140345318615434,0.01665478220283985,0.004155366113781929
1772614523616497200,2.4494970703125,-0.032678865286707874,0.039086394241452216,0.019705584608204662
1772614523626564400,2.459564453125,-0.033524668461084366,0.04217208529710769,-0.016912026633229105
1772614523636631300,2.46963134765625,-0.0630810178130865,-0.016544307565689087,-0.06305138985980302
1772614523646698200,2.4796982421875,-0.07973083157986402,-0.024499065962433814,-0.10481918693864717
1772614523656765200,2.48976513671875,-0.06800795282125473,-0.034117958179116246,-0.11875097391838207
1772614523666832100,2.49983203125,-0.07004734969437122,-0.034815877315402026,-0.09901092078499496
1772614523676899000,2.509899169921875,-0.04400982211828232,-0.019154782325029374,-0.09822291221246122
1772614523686966300,2.51996630859375,-0.01721767678260803,-0.016402268746495245,-0.07484514189753681
1772614523697033200,2.530033203125,-0.011134265215694904,-0.004244797962903976,-0.07030329721681773
1772614523707100200,2.54010009765625,-0.006019990941882133,0.00855856950879097,-0.08168859631782398
1772614523717167000,2.5501669921875,0.006975684231519699,0.004485620981454849,-0.08252110161921009
1772614523727234000,2.560234130859375,-0.004422784878313541,0.03698445352613926,-0.06112285121632739
1772614523737301000,2.570301025390625,-0.017397417263686654,0.07002104620933532,-0.06323122167242691
1772614523747368200,2.5803681640625,-0.017116846756637095,0.0780477007985115,-0.050398755970411
1772614523757435100,2.59043505859375,-0.014514555303752421,0.0851759452432394,-0.043200569828320295
1772614523767502300,2.60050244140625,-0.03174889096021652,0.06588087766468524,-0.06345023471796885
1772614523777569300,2.6105693359375,-0.05170855992734432,0.05603986712992191,-0.07345021694041788
1772614523787636200,2.62063623046875,-0.06304653102159499,0.06247077696025371,-0.06598872195333243
1772614523797703200,2.630703125,-0.0799623022481799,0.08039747879505157,-0.04505962343215942
1772614523807770400,2.640770263671875,-0.07809300124496221,0.07024491809308528,-0.06719385995939374
1772614523817837300,2.65083740234375,-0.08085077552050352,0.04902385088801384,-0.09622371948556974
1772614523827904300,2.660904296875,-0.0689718294173479,0.061573535859584805,-0.0838531904731877
1772614523837971200,2.67097119140625,-0.05739654243588447,0.08407178339362144,-0.05621975374147296
1772614523848038100,2.6810380859375,-0.03684679862111807,0.07472644742131233,-0.049807877405174075
1772614523858105000,2.69110498046875,-0.019755963088572023,0.053587213280797,-0.06208280055597424
1772614523868172300,2.70117236328125,-0.031527357164025306,0.047262686434388156,-0.07964961956981569
1772614523878239200,2.7112392578125,-0.0369280471637845,0.0453828640371561,-0.08220377929834649
1772614523888306200,2.72130615234375,-0.06319909123480319,0.04752689032852649,-0.08617883867546916
1772614523898373000,2.731373046875,-0.07988602214157581,0.057092591053247446,-0.07875208620820194
1772614523908440000,2.741440185546875,-0.06323123993873596,0.045852819636464114,-0.053874615387432274
1772614523918507000,2.751507080078125,-0.052234337367117405,0.06416881304979324,-0.09038151452969759
1772614523928574200,2.76157421875,-0.03377016765475273,0.03887421279549599,-0.1361940204220824
1772614523938641400,2.771641357421875,-0.03583411444723606,0.027717443487048146,-0.13070592613350598
1772614523948708400,2.781708251953125,-0.03892974237501621,0.037841947138309476,-0.09806271668206899
1772614523958775300,2.791775390625,-0.04127776680588722,0.054659226426482195,-0.07389458144074305
1772614523968842200,2.80184228515625,-0.018259879311919212,0.041140404161810876,-0.05894870378132909
1772614523978909200,2.8119091796875,0.003537526476383209,0.04368307438194752,-0.029004615487065163
1772614523988976000,2.82197607421875,0.029360534518957135,0.05650573107600212,0.0033944464775733647
1772614523999043300,2.832043212890625,0.02010638396143913,0.06683598643243313,0.04908142629414797
1772614524009110300,2.8421103515625,-0.006220774210989475,0.04476385535597801,0.0015463343928568065
1772614524019177200,2.85217724609375,-0.03253974907696247,0.001395253750681877,-0.032108481520228084
1772614524029244200,2.862244140625,-0.07147241406142711,-0.018988778108358383,-0.027049316700827327
1772614524039311000,2.87231103515625,-0.09041180007010698,-0.0567027149528265,-0.037677696487307545
1772614524049378000,2.8823779296875,-0.10582768812775611,-0.1012444519907236,-0.10949790107309817
1772614524059445200,2.8924453125,-0.11801672309339045,-0.14729191741645337,-0.13493985564252362
1772614524069512200,2.90251220703125,-0.12447364414781331,-0.14297989943623543,-0.122338659679424
1772614524079579100,2.9125791015625,-0.11565291657149791,-0.11999883682131766,-0.10210941652329639
1772614524089646000,2.92264599609375,-0.08833090214282274,-0.11059797126948832,-0.11095005437647923
1772614524099713000,2.932713134765625,-0.08638385972827672,-0.0942383726209402,-0.10388000639239325
1772614524109779700,2.94277978515625,-0.05944879879057407,-0.05110241072773933,-0.10386997818872332
1772614524119847000,2.952846923828125,-0.04191109627336263,-0.015299275940656661,-0.09641266618641092
1772614524129913900,2.962913818359375,-0.027904490491747855,0.04511223040223122,-0.07339782916605472
1772614524139980800,2.972980712890625,-0.006713818424940109,0.10475976663529872,-0.010498853388987482
1772614524150048000,2.983048095703125,0.04036182100474834,0.1590273633956909,0.08994736089613288
1772614524160115000,2.993114990234375,0.057630058930814264,0.17681436449885368,0.12483781955139711
1772614524170182000,3.003181884765625,0.04220511078387498,0.127961778524518,0.047287291152682154
1772614524180249000,3.0132490234375,-0.01797112549841404,0.04214928894340992,-0.07135603940645233
1772614524190315000,3.02331494140625,-0.037468729911744596,-0.007179682371020317,-0.17548488772707058
1772614524200383000,3.033383056640625,-0.039030572400987146,-0.01789572217464447,-0.18162176478058098
1772614524210450000,3.043449951171875,-0.023613223038613795,-0.009442366605997085,-0.17012323282975703
1772614524220516900,3.053516845703125,0.0019169395372271537,-0.007409399473667144,-0.1404440608156845
1772614524230583800,3.063583740234375,0.0099231358602643,0.024983634608983993,-0.10691004000436514
1772614524240651000,3.073651123046875,-0.006261398482322693,0.06973229239583015,-0.0532925229168497
1772614524250717000,3.083717041015625,-0.024741642546653748,0.09500584986209869,0.0549772063344717
1772614524260785000,3.093784912109375,-0.03364011153429747,0.12937982862889766,0.03294350757226348
1772614524270851800,3.103851806640625,-0.060035658767819404,0.09658815061748027,-0.021728030346520245
1772614524280917800,3.113917724609375,-0.08121347135305404,0.06773556562066078,-0.05276919316248968
1772614524290985000,3.12398486328125,-0.08028174346089363,0.04940671272575855,-0.08624443299127742
1772614524301052000,3.134052001953125,-0.09696896662861108,0.05081424143612385,-0.11119951735921203
1772614524311118800,3.144118896484375,-0.07378507491797208,0.07051379816234112,-0.08680117182489484
1772614524321185800,3.154185791015625,-0.07172171264737844,0.05160217694342136,-0.07238996729776263
1772614524331252700,3.164252685546875,-0.079025898180902,0.019769699352979658,-0.06096570615954697
1772614524341319700,3.174319580078125,-0.07026157696694135,0.0284428351521492,-0.0757479907550849
1772614524351387000,3.184386962890625,-0.07191343582719564,-0.019924597653746604,-0.1338465987794101
1772614524361454000,3.1944541015625,-0.09238865310102701,-0.04460778801143169,-0.1510840762410313
1772614524371521000,3.20452099609375,-0.0938137174680829,0.009890110373497008,-0.10715594105683267
1772614524381588000,3.214587890625,-0.10863777711242437,0.07050970650911331,-0.03018045433340594
1772614524391655000,3.224655029296875,-0.09377163189202546,0.08245148871541023,-0.023961031829286366
1772614524401721900,3.234721923828125,-0.034815585054457185,0.10804536417722702,-0.03694203915651888
1772614524411789000,3.2447890625,0.020469956576824187,0.08018120569586754,-0.059934426883049306
1772614524421856000,3.25485595703125,0.047884325464069843,0.011156769308447837,-0.13068767809076234
1772614524431923000,3.2649228515625,0.03149403941631317,-0.03555412846207619,-0.15227880245093256
1772614524441990000,3.274989990234375,0.05081920987218618,-0.026564766320586203,-0.13603170599984005
1772614524452056800,3.285056884765625,0.05470394235104322,-0.03545943591594696,-0.10609340812554582
1772614524462123800,3.295123779296875,0.04629793305546045,-0.04209726649522781,-0.10121111597670242
1772614524472191000,3.30519091796875,0.02321750171929598,0.014846855998039244,-0.07691729026278481
1772614524482258000,3.3152578125,0.009897709158062934,0.07726561051011085,-0.011486183925904333
1772614524492324900,3.325324951171875,0.0005056114345788955,0.07981997116804122,-0.05582052529081702
1772614524502391800,3.335391845703125,-0.03110883949100971,0.041783378240466115,-0.07854116513757034
1772614524512458800,3.345458740234375,-0.042427813623845574,0.05424012423157692,-0.05274148317165672
1772614524522525700,3.355525634765625,-0.03432078727483749,0.09046586834490299,-0.02082147342823446
1772614524532593000,3.365593017578125,-0.019244214174151418,0.11587094323635101,0.029196064672246575
1772614524542660000,3.37566015625,0.027453531853854653,0.10282850631177425,0.030975404103379695
1772614524552727000,3.38572705078125,0.02185848832577467,0.07543313438594342,0.002218278837669641
1772614524562794000,3.3957939453125,-0.01169949788302183,0.02970890956521034,-0.04239703489309177
1772614524572861000,3.40586083984375,0.030395430524647233,-0.05478314506709575,-0.11178339992808177
1772614524582928000,3.415927978515625,0.04344721979945898,-0.11468085666894912,-0.14539824915695934
1772614524592994800,3.425994873046875,0.010755202770233153,-0.1373866094738245,-0.14969914295496417
1772614524603062000,3.43606201171875,-0.027848668651282785,-0.13434417303800583,-0.12182972377659752
1772614524613129000,3.44612890625,-0.06488426784276961,-0.11765490404367446,-0.1133615907639265
1772614524623196000,3.45619580078125,-0.11432926675230264,-0.07149988659024238,-0.09398332014763727
1772614524633262800,3.466262939453125,-0.15323065981566905,-0.016125205370783807,-0.0526610018139705
1772614524643329800,3.476329833984375,-0.19677198763936757,-0.007958850049972533,-0.07338127989005297
1772614524653396700,3.486396728515625,-0.22248598234951494,0.020516718327999114,-0.06587888663699851
1772614524663464000,3.4964638671875,-0.2205623208105564,0.08102291721701621,-0.02543983567757532
1772614524673531000,3.50653076171875,-0.1526037600889802,0.12668635176122187,0.03756775157311931
1772614524683597800,3.516597900390625,-0.08605974234044551,0.15696575469076632,0.04363296989621594
1772614524693664800,3.526664794921875,-0.014536182613670826,0.16096914511322974,0.004752418691478669
1772614524703732000,3.53673193359375,0.006660334672033787,0.11665186448097228,-0.028458653775788843
1772614524713799000,3.546798828125,0.05124707989543676,0.07362696174681187,-0.09289481252487748
1772614524723866000,3.5568662109375,0.07628595182299613,0.035925884383916855,-0.1523466069901362
1772614524733933000,3.56693310546875,0.05281944377869367,0.019958499923348427,-0.13526165320910513
1772614524744000000,3.577,0.033382629641890524,0.03534486962556839,-0.1205134352799505
1772614524754067000,3.58706689453125,0.005477846889197826,0.036760581642389295,-0.11629631077526137
1772614524764134000,3.5971337890625,-0.023604747471213338,0.037268531164526934,-0.08990288243358954
1772614524774200800,3.607200927734375,-0.06428513290584087,0.06878302884697914,-0.0734229818736203
1772614524784267800,3.617267822265625,-0.09601794951409101,0.07704056958258151,-0.07337337057823315
1772614524794335000,3.6273349609375,-0.07720540475547313,0.07730769608616829,-0.05640986948609352
1772614524804402000,3.63740185546875,-0.07887596831619739,0.09286533070206641,-0.04575752430213615
1772614524814468900,3.64746875,-0.06755319479107856,0.0960638344824314,-0.030267018372006713
1772614524824535800,3.657535888671875,-0.060789692005515095,0.10628887589871883,-0.014578030727710575
1772614524834602800,3.667602783203125,-0.04530190775543451,0.13171499357819558,0.01602422921434045
1772614524844669700,3.677669677734375,-0.026699206355214118,0.10748071603178977,0.007776460954081267
1772614524854737000,3.68773681640625,0.01830401071459055,0.05199672921895981,-0.0033491460311226547
1772614524864803800,3.697803955078125,0.016505729120969773,0.0022235212683677672,-0.05951263954071328
1772614524874871000,3.70787109375,0.006608896745741367,-0.041242110970616336,-0.10622110789213329
1772614524884938000,3.71793798828125,0.004298866237699985,-0.09677169049084186,-0.14681735870726406
1772614524895005000,3.7280048828125,-0.03572510111480951,-0.12351239790022372,-0.17992341816378757
1772614524905071900,3.73807177734375,-0.08415507776290178,-0.09150397922098637,-0.17691298430142924
1772614524915139000,3.74813916015625,-0.12031243281513451,-0.04824176059961319,-0.16306388890277593
1772614524925206000,3.7582060546875,-0.13239216218739747,-0.009861468800902365,-0.13685016450956464
1772614524935273000,3.76827294921875,-0.10484890622347592,0.026617957812547683,-0.04846681979345158
1772614524945340000,3.77833984375,-0.05354454318284988,0.045637131059169764,0.019897545250039547
1772614524955406800,3.78840673828125,-0.03990063323378563,0.049721770024299616,0.03587261982671916
1772614524965473800,3.798473876953125,-0.05545797558873892,0.018413024047017095,0.031111378507968038
1772614524975541000,3.808541015625,-0.051202948492765424,-0.025893735191226005,-0.05628246198045089
1772614524985608000,3.81860791015625,-0.03702157066613435,-0.07282850484549999,-0.148909928806033
1772614524995675000,3.8286748046875,-0.017201894691586492,-0.10292319885790348,-0.15278857860397546
1772614525005741800,3.838741943359375,0.01043517703562975,-0.08416822950541973,-0.12870050459522753
1772614525015808800,3.848808837890625,0.02005056212097406,-0.03489186516106128,-0.09117655563121661
1772614525025875700,3.858875732421875,0.02078004543930292,0.00720306324660778,-0.08802032008999958
1772614525035943000,3.86894287109375,0.00795855778902769,0.023617606952786443,-0.05623429372347891
1772614525046010000,3.879010009765625,0.008593056300282478,0.07338789229393004,-0.014231518844980745
1772614525056077000,3.8890771484375,0.0020645313143730164,0.11443243486583232,0.006768343357462436
1772614525066144000,3.89914404296875,-0.0036111762344837187,0.11869944466054438,0.010842881053686141
1772614525076211000,3.9092109375,-0.004432721750438213,0.12402268550992011,-0.017290668953582642
1772614525086278000,3.91927783203125,-0.01307633919417858,0.11761223394572734,-0.0273937644906342
1772614525096344800,3.9293447265625,-0.009041969111561774,0.10543196680843829,-0.04553966203406453
1772614525106412000,3.939412109375,0.014906477230787276,0.10489888284504413,-0.053378027509525416
1772614525116478200,3.949478271484375,0.006767009916901588,0.05879705688357353,-0.08061793487900867
1772614525126545200,3.959545166015625,-0.020893150424957273,0.02599544200003147,-0.10576527214972302
1772614525136612000,3.969612060546875,-0.09031155456602573,0.0112847796022892,-0.09829257991518825
1772614525146679000,3.979678955078125,-0.10588321770727634,0.050713119149208064,-0.0771404497604817
1772614525156746500,3.98974658203125,-0.13224369362741709,0.07059387766122818,-0.042018228175956754
1772614525166813400,3.9998134765625,-0.12406652465164661,0.08744739730656147,0.0005206446069292724
1772614525176880400,4.00988037109375,-0.12184767955839633,0.11053718099296092,-0.016366192786116153
1772614525186947300,4.019947265625,-0.1318900578841567,0.11240940460562705,-0.008628675602935254
1772614525197014300,4.03001416015625,-0.1241691082432866,0.13271920218467712,0.00969961103638634
1772614525207081200,4.040081298828125,-0.09656710782945155,0.12723697138130663,-0.0026833390661515294
1772614525217148400,4.0501484375,-0.08505904086530208,0.07357727738618851,-0.06733648330047726
1772614525227215400,4.06021533203125,-0.06079436818063259,0.009516600885987282,-0.10161474660784006
1772614525237282300,4.0702822265625,-0.05875818617790937,-0.03737608319222927,-0.1226017036629375
1772614525247349200,4.080349365234375,-0.07197013445049524,-0.06154138715565204,-0.09561929645217024
1772614525257416200,4.090416259765625,-0.04943213942795992,-0.04036941978931427,-0.08082258147248067
1772614525267483100,4.100483154296875,-0.08510200322419405,-0.06791150670945643,-0.11181387726473621
1772614525277550300,4.11055029296875,-0.09264964212477207,-0.10720715978741645,-0.1376340996951796
1772614525287617300,4.1206171875,-0.07119067451059818,-0.0734773241430521,-0.10343429018519819
1772614525297684200,4.130684326171875,-0.06629296559691429,-0.02608779645860195,-0.07027390672555194
1772614525307751200,4.140751220703125,-0.05399813216924667,0.0013338789522647856,-0.037106490736920385
1772614525317818000,4.150818115234375,-0.036708266933262346,0.038596564897894856,-0.007266611735802143
1772614525327885300,4.16088525390625,0.00701221684962511,0.04647416640520095,-0.021475352493394165
1772614525337952300,4.1709521484375,0.02891863597035408,0.034514848542213435,-0.027476903596287593
1772614525348019500,4.18101953125,-0.008512976801395416,0.03723696698248386,-0.005207943906635045
1772614525358086400,4.19108642578125,0.0029950901627540587,0.09166296917498111,0.03131354088340886
1772614525368153300,4.2011533203125,0.006343816068768501,0.09064414752125739,0.030712542782956733
1772614525378220300,4.21122021484375,-0.00644669192135334,0.057940147793293,-0.021685899104690178
1772614525388287200,4.221287353515625,-0.030026597212255,0.05759118822515011,-0.05269097682712599
1772614525398354200,4.231354248046875,-0.04267915803641081,0.03968669822216034,-0.07374429538301192
1772614525408421400,4.24142138671875,0.010375263541936873,0.014606617501378058,-0.10452933714659884
1772614525418488300,4.25148828125,-0.003707622346282005,-0.008637479963898659,-0.09212412041332572
1772614525428555300,4.26155517578125,-0.02618628839701414,0.0023386720806360243,-0.05445091743804514
1772614525438622200,4.271622314453125,-0.030496552811563014,0.019120295533537862,-0.0723923145184759
1772614525448689200,4.281689208984375,-0.05333236173689365,-0.019746318477392194,-0.1057472067700699
1772614525458756000,4.291756103515625,-0.07457944016605615,-0.013158756780624389,-0.09946806256850249
1772614525468823300,4.3018232421875,-0.06635901657044888,0.008657938230037689,-0.07346083879913202
1772614525478890200,4.31189013671875,-0.059494976019859314,0.021580548167228698,-0.04544086870155297
1772614525488957200,4.321957275390625,-0.04184504529982805,0.05777940427362919,-0.02957272509806789
1772614525499024400,4.3320244140625,-0.034117958179116246,0.08502689216136931,-0.00626621165475808
1772614525509091300,4.34209130859375,-0.03607815233618021,0.09937047481238842,-0.015151702429819851
1772614525519158300,4.352158203125,-0.020472879186272618,0.08722410994470119,-0.030398599729267877
1772614525529225500,4.3622255859375,0.004689619120955467,0.06924597018361091,-0.06337880431641824
1772614525539292400,4.37229248046875,0.022379881851375103,0.025260113462805746,-0.09751958624869585
1772614525549359400,4.382359375,0.04425035287588835,-0.010876198801398276,-0.10099648684533312
1772614525559426300,4.39242626953125,0.036144203309714795,-0.010242577072978019,-0.08946293838005512
1772614525569493200,4.4024931640625,0.0345578109011054,0.008170446974039076,-0.0792369288493879
1772614525579560200,4.412560302734375,0.04155570696443319,0.01770925969183445,-0.027717516552284358
1772614525589627400,4.42262744140625,0.027324644777178764,0.027933716586232185,-0.014939146524528041
1772614525599694300,4.4326943359375,0.00476443792283535,0.026332711130380628,-0.04885235764547251
1772614525609761300,4.44276123046875,-0.010820084699988365,0.023446926560997963,-0.04222376981857232
1772614525619828200,4.452828125,-0.023462416391074655,0.026536709269881248,-0.047455258997576306
1772614525629895200,4.462895263671875,-0.02709463541358709,0.02514145551919937,-0.04077265769480727
1772614525639962000,4.472962158203125,-0.016916355748474596,0.006152677410840988,-0.09132402867735363
1772614525650029000,4.483029052734375,-0.029381577306985852,-0.023835049095749853,-0.1172264494985342
1772614525660096300,4.49309619140625,-0.012220599147677421,-0.021297055050730703,-0.1246126507597044
1772614525670163500,4.50316357421875,0.0016658873856067657,-0.0027308862686157226,-0.13888024556506423
1772614525680230400,4.51323046875,-0.004318739981949329,-0.0030775077491998672,-0.1294785123635549
1772614525690297300,4.52329736328125,-0.022112170825898645,0.020097031611204148,-0.10354688371419905
1772614525700364300,4.5333642578125,-0.039302959601581096,0.06477730033695697,-0.05378218786362558
1772614525710431200,4.54343115234375,-0.0369672101303935,0.09949322440922259,0.01873277578698471
1772614525720498400,4.55349853515625,-0.04427694862186909,0.1278875442445278,0.0667966773353517
1772614525730565400,4.5635654296875,-0.06125263334214687,0.12146189511120319,0.050261712986743076
1772614525740632300,4.57363232421875,-0.09002776918858289,0.07291910573840141,-0.013978402600437402
1772614525750698200,4.5836982421875,-0.11823884141147135,0.024168811094760892,-0.09485982898753136
1772614525760766200,4.59376611328125,-0.13185732465833425,-0.03253565742373466,-0.18628478815555571
1772614525770832400,4.603832275390625,-0.12069617143571376,-0.07166296819746494,-0.2098844941254705
1772614525780899300,4.6138994140625,-0.09604191491156816,-0.0724789607554674,-0.20108422481529414
1772614525790967300,4.62396728515625,-0.09516425529420375,-0.05454349109232425,-0.16357443224079907
1772614525801033200,4.634033203125,-0.07912322107553482,0.00047463177442550657,-0.06892156966798939
1772614525811100200,4.64410009765625,-0.04649754728078842,0.05501110860407352,0.013932453700015321
1772614525821167000,4.6541669921875,-0.08061930485218763,0.08723463133871555,0.05210027179182507
1772614525831234300,4.664234375,-0.11086159064173698,0.13243395550251005,0.0519512917751912
1772614525841301200,4.67430126953125,-0.11151537837535143,0.1473760885685682,0.014185104153677821
1772614525851368200,4.6843681640625,-0.12247224119752645,0.12863164061009882,-0.04896681890457403
1772614525861435100,4.69443505859375,-0.12137129421830177,0.12869593801796436,-0.0907738017829135
1772614525871502000,4.704502197265625,-0.12589753947108984,0.08723287777304649,-0.11251379656186326
1772614525881569300,4.7145693359375,-0.10083265631943941,0.07361293322145938,-0.08131903235306963
1772614525891636500,4.724636474609375,-0.10847016546055674,0.06704582979083061,-0.05891847303984686
1772614525901703400,4.734703369140625,-0.08501505559310317,0.01868424220383167,-0.04955750110698864
1772614525911770400,4.744770263671875,-0.05636003899499774,0.012248656198382377,-0.05782067243235651
1772614525921837300,4.75483740234375,-0.07219312955141068,-0.009156535401940346,-0.0876380610404536
1772614525931904300,4.764904296875,-0.06152502054274082,-0.0034609541088342663,-0.10062168044988065
1772614525941971200,4.77497119140625,-0.04302051881998777,-0.009502572360634804,-0.09869389072507619
1772614525952038400,4.785038330078125,-0.041595162191987035,-0.014765022933483123,-0.10955040757847018
1772614525962105300,4.795105224609375,-0.04776537525951862,-0.008524082717299462,-0.08731497569908388
1772614525972172300,4.80517236328125,-0.08474018417447805,0.019335399588942526,-0.056588139529293396
1772614525982239200,4.8152392578125,-0.12275529592260717,0.03855740193128586,-0.028231612687418237
1772614525992306200,4.82530615234375,-0.131289900033921,0.04331131846010685,-0.07637137421728112
1772614526002373000,4.835373046875,-0.13911007226556538,-0.006421557480096817,-0.0721528843059903
1772614526012440300,4.8454404296875,-0.10524535819515585,0.008140051835775375,-0.06872024297618773
1772614526022507300,4.85550732421875,-0.06442278781086207,0.005814823758602142,-0.0721608940825099
1772614526032574200,4.86557421875,-0.04582286288961768,-0.016135726764798162,-0.06127600051800254
1772614526042641200,4.87564111328125,-0.009088438601791858,0.002375496959686279,-0.04108694780836813
1772614526052708400,4.885708251953125,0.015964754112064838,0.006817278799414635,-0.03439467449495569
1772614526062775300,4.895775390625,0.004812660978734493,0.022625088784098624,-0.007670319998753256
1772614526072842200,4.90584228515625,-0.02062923879176378,0.03852700679302215,-0.017411500587966294
1772614526082909400,4.915909423828125,-0.024632336953282354,0.031895021432638164,-0.037007268146146084
1772614526092976400,4.925976318359375,-0.014712854354828594,0.021480010402202605,-0.01390771198440343
1772614526103043300,4.936043212890625,-0.020261866784095764,0.028511808735132215,0.0006681770185707137
1772614526113111000,4.946111083984375,-0.0328849092528224,0.03439677512049675,0.020625649462034924
1772614526123178000,4.956177978515625,-0.05980301905572414,0.04438216256201267,0.01582011691040825
1772614526133245000,4.966244873046875,-0.07704933741092682,0.0374748673915863,-0.004425552224135026
1772614526143312000,4.976311767578125,-0.08784545671343803,0.03558101646900177,0.002037684406642802
1772614526153379000,4.986379150390625,-0.08468202424645424,0.009589081600308417,-0.015387036422500385
1772614526163446000,4.996446044921875,-0.08517053841575979,-0.021138065096735954,-0.03970543945524841
1772614526173513000,5.006512939453125,-0.07593158542737365,-0.04303951578140258,-0.05324988935152068
1772614526183580000,5.016579833984375,-0.06844429841190576,-0.05470481913387775,-0.08472853026930242
1772614526193646800,5.026646728515625,-0.061506169711798425,-0.05348199934065342,-0.07838272317284718
1772614526203713800,5.0367138671875,-0.07050736842155456,-0.040683308044075966,-0.07579883959291037
1772614526213781000,5.046781005859375,-0.04973492176681757,-0.030166590204834937,-0.05549598777787759
1772614526223848000,5.056847900390625,-0.050175359010696405,-0.019772037440538404,-0.07215290257229935
1772614526233915000,5.066914794921875,-0.0600957183919847,-0.016397592571377753,-0.08527029072949663
1772614526243981800,5.07698193359375,-0.06329305312857031,-0.005240823262929916,-0.0773095044507645
1772614526254048800,5.087048828125,-0.03838876736611128,0.019687866288423537,-0.05129408367520664
1772614526264116000,5.097115966796875,-0.03404182420298457,0.03224690361022949,-0.026188338790205306
1772614526274183000,5.107182861328125,-0.045168198373168704,0.0572387215256691,-0.03411156953752506
1772614526284250000,5.11725,-0.0648375060915947,0.07519991015195845,-0.010128878432279453
1772614526294317000,5.127317138671875,-0.07627016973197459,0.08699030118882656,-0.009589387560985051
1772614526304384000,5.137384033203125,-0.1099281091839075,0.09087561818957328,0.001644492971128784
1772614526314451000,5.147450927734375,-0.11974559271261095,0.08614975871145725,-0.023565452073863707
1772614526324518000,5.157517822265625,-0.11304229568168521,0.05189326884448528,-0.04617382261860184
1772614526334584800,5.167584716796875,-0.08664017257690429,0.017309446719288826,-0.05804416985677089
1772614526344652000,5.177652099609375,-0.04092939175963402,0.029857378125190733,-0.028329145644605157
1772614526354719000,5.187718994140625,-0.017206424736231563,0.04019873939752579,0.006758169023320078
1772614526364786000,5.197785888671875,-0.019722353079915045,0.06413783338963985,0.009028689504880458
1772614526374852900,5.207852783203125,-0.022716274198889733,0.0831108294069767,-0.0019120213335147127
1772614526384919800,5.217919921875,-0.03516483688354492,0.07291209147572517,-0.008112684338237159
1772614526394986800,5.22798681640625,-0.012280220380425453,0.0680962156265974,-0.014112646272243
1772614526405054000,5.238053955078125,0.0030167174726724623,0.04299567663967609,-0.05207142015667632
1772614526415121000,5.248120849609375,0.0017389526218175887,0.008493687579035758,-0.0954916058187373
1772614526425187800,5.258187744140625,-0.04173778553307056,0.0026788638204336165,-0.10506058534593321
1772614526435255000,5.268255126953125,-0.09128595255613327,-0.0007990414232015609,-0.10820855538230388
1772614526445322000,5.278322021484375,-0.061847092103958126,0.0009627075523138045,-0.10611792151229456
1772614526455389000,5.288388916015625,-0.037063948503136636,0.025994272956252097,-0.0918121318547055
1772614526465456000,5.2984560546875,-0.022741700901091098,0.043913960528373715,-0.030295500114397144
1772614526475523000,5.308523193359375,0.023347557839751242,0.06089432142376899,0.03743304667701013
1772614526485589000,5.318589111328125,0.020080372737348078,0.06171440563499927,0.0389526985589182
1772614526495656000,5.328656005859375,0.048940264257788656,0.05155424614846706,0.03728800304997712
1772614526505723000,5.338722900390625,0.04253653469532728,0.012462591210007666,-0.009097402792959473
1772614526515790000,5.3487900390625,0.024012889880686998,-0.004897708913683891,-0.056039227809105065
1772614526525857000,5.35885693359375,-0.008290858483314513,-0.004525952991843224,-0.09727300934279337
1772614526535924000,5.368924072265625,0.00011982698738574981,-0.012313538128137588,-0.10646473478912376
1772614526545991000,5.378990966796875,0.004367255298793316,-0.006570610561966896,-0.10862128263534977
1772614526556057900,5.389057861328125,0.0066308163166046135,0.017848375901579856,-0.08602189454808831
1772614526566124800,5.399124755859375,0.01023278633132577,0.04028700220286846,-0.07159867535617667
1772614526576192000,5.40919189453125,0.050460751823335884,0.041564767053723334,-0.0024355337509652597
1772614526586259000,5.419259033203125,0.05547711868062615,0.06331891822218895,0.026121214671013877
1772614526596326000,5.429325927734375,0.049325610313564534,0.056553077349066734,-0.011608417499507777
1772614526606392800,5.439392822265625,0.009189853149652481,0.04242226066589355,-0.024341158287250437
1772614526616459800,5.449459716796875,-0.005693243205547332,0.05157353537082672,-0.004055285006482154
1772614526626526700,5.459526611328125,0.00326864640712738,0.05162088164389133,0.005368080071522854
1772614526636594200,5.46959423828125,-0.03195931884050369,0.011834230178594588,-0.03904483838835731
1772614526646661000,5.4796611328125,-0.05787935751676559,-0.013896423405408859,-0.05238375577516854
1772614526656728000,5.48972802734375,-0.05570785869657993,-0.0016086042404174804,-0.015262135967775247
1772614526666795000,5.499794921875,-0.041405484838783736,0.002596446233987808,0.00672349500216078
1772614526676862000,5.509862060546875,-0.0305308934725821,-0.015723638832569123,0.0070066273590549824
1772614526686929000,5.519928955078125,-0.015839666427671907,-0.03575111233890056,-0.04845111533424351
1772614526696996000,5.52999609375,-0.04288154874071479,-0.06401625283658505,-0.089197419311665
1772614526707063000,5.54006298828125,-0.07890490214973687,-0.04376315388083458,-0.11464605935020372
1772614526717130000,5.5501298828125,-0.08056289848983288,-0.0023223054677248,-0.06347985810467507
1772614526727197000,5.560197021484375,-0.0663537558734417,0.05677285757958889,0.002651035098591819
1772614526737263900,5.570263916015625,-0.036854543536156414,0.09341770388782024,0.012869098784821106
1772614526747330800,5.580330810546875,-0.023498949009180068,0.10690730005800723,0.02882345023388043
1772614526757398000,5.59039794921875,-0.019338614459335803,0.10377309368550777,0.016963318429049103
1772614526767465000,5.60046484375,-0.007787585136294364,0.06923837139904498,-0.021408575434074737
1772614526777532000,5.610531982421875,-0.029359219344705343,0.033704116681218144,-0.06283974270338658
1772614526787598800,5.620598876953125,-0.07840688949972391,0.04023848688602447,-0.061903845526184886
1772614526797665800,5.630665771484375,-0.07583528544604778,0.025596213549375534,-0.07619635557709262
1772614526807733000,5.64073291015625,-0.05804623851627111,0.021176059019565582,-0.097687727623526
1772614526817800000,5.650800048828125,-0.04185629734620452,0.021232173120975494,-0.08022671620487234
1772614526827867100,5.6608671875,-0.033861791460961105,0.033738018950819966,-0.06917253505464177
1772614526837934000,5.67093408203125,-0.0037660745352506636,0.04098141420781612,-0.0630066237028921
1772614526848001000,5.6810009765625,-0.009626783262193203,0.030243747094273566,-0.03765549378865398
1772614526858068000,5.69106787109375,-0.008251110994815826,0.04182955546975135,-0.01599815405816771
1772614526868135000,5.701135009765625,-0.025577801109850404,0.05939852990806102,-0.00852892785577569
1772614526878201900,5.711201904296875,-0.030710487823188304,0.06299041692018509,0.007628476451290771
1772614526888269000,5.72126904296875,-0.0148553315654397,0.0627893413901329,-0.006360990965855308
1772614526898336800,5.731336669921875,0.0031260230660438535,0.06995148810446263,0.016349581861321346
1772614526908404000,5.741404052734375,0.012628595426678657,0.08233809146881103,0.015930299286614172
1772614526918471000,5.751470947265625,-0.0033908114820718764,0.054417234364151953,-0.011677425331820267
1772614526928537900,5.761537841796875,-0.020899287904798985,0.02559855163693428,-0.039300731111876666
1772614526938604800,5.771604736328125,-0.018678981506824493,0.0008662614405155182,-0.0562913028740324
1772614526948672000,5.781672119140625,-0.02089987242668867,-0.02485036361813545,-0.04661863007692154
1772614526958739000,5.791739013671875,-0.048614685565233226,-0.03181318836808204,-0.043438415438495574
1772614526968806100,5.80180615234375,-0.06772767457515001,-0.02922317187488079,-0.040808587524713946
1772614526978873000,5.811873046875,-0.05171542805954814,-0.05112812969088554,-0.03786534171362873
1772614526988940000,5.82193994140625,-0.039849049177020784,-0.05875730939507484,-0.017955665351089556
1772614526999007000,5.832007080078125,-0.02984656447023153,-0.03744797938466072,-0.02445554191453848
1772614527009074000,5.842073974609375,-0.028606939672678706,-0.033656185886263845,-0.05351005182478111
1772614527019140900,5.852140869140625,-0.02713350611925125,-0.051394671672582624,-0.07968264505658298
1772614527029208000,5.8622080078125,-0.010966215172410011,-0.0370697937220335,-0.06950698660681955
1772614527039275000,5.87227490234375,0.018240005567669866,-0.028802316114306448,-0.06630115803652442
1772614527049342000,5.882342041015625,-0.005227086998522281,-0.006243862825632095,-0.04174803293244913
1772614527059409000,5.892408935546875,-0.02223229007422924,0.036139234873652455,-0.018941500333952716
1772614527069475800,5.902475830078125,-0.019474515798687933,0.054122635331749915,0.032182030813628804
1772614527079542800,5.912542724609375,-0.022090105124562977,0.06001520050168037,0.02849138471832266
1772614527089610000,5.92260986328125,-0.007778817307949066,0.07779343377649783,0.0347902725166874
1772614527099677000,5.932677001953125,-0.008478490009903908,0.08159165701568126,0.024595955032226627
1772614527109743900,5.942743896484375,-0.024807108998298643,0.06714169138073921,-0.03951573470258154
1772614527119810300,5.952810302734375,-0.04676934995949268,0.06490531063079834,-0.036362120376713575
1772614527129877200,5.962877197265625,-0.046346156111359595,0.06216156488060951,-0.0487555416409159
1772614527139944200,5.972944091796875,-0.043109366147220135,0.06418108800947665,-0.033196393204655034
1772614527150011400,5.983011474609375,-0.04706804064512252,0.06614215894937515,0.02165064969479572
1772614527160078300,5.993078369140625,-0.06090761929675936,0.06875614084005355,0.04575090733168181
1772614527170145300,6.003145263671875,-0.07641030885502696,0.051665889829397196,-0.0010890419122995807
1772614527180212200,6.013212158203125,-0.1219669220238924,0.01989770964682102,-0.06756147856223396
1772614527190279200,6.023279052734375,-0.13495382936894892,0.007770634001493453,-0.08222946172887459
1772614527200346000,6.03334619140625,-0.1323363403469324,0.019003975677490233,-0.08002596946838311
1772614527210413300,6.043413330078125,-0.12000322073549032,0.04377016814351081,-0.06947574665176216
1772614527220480300,6.053480224609375,-0.0811760619521141,0.08424830900430678,-0.02149248172470834
1772614527230547500,6.06354736328125,-0.0323104703657329,0.14029402135312558,0.06922876332048326
1772614527240614400,6.073614501953125,-0.001052577792853117,0.16667641684412957,0.12567074497789144
1772614527250681300,6.083681396484375,-0.009880758023262024,0.16613222696483135,0.1216362287648022
1772614527260748300,6.093748291015625,-0.05376461567431688,0.13267770113050936,0.05281397301913239
1772614527270815500,6.1038154296875,-0.10855959730967879,0.07287526659667491,-0.05621052012224682
1772614527280882400,6.11388232421875,-0.1273135437488556,0.012953005075454712,-0.12263108502104877
1772614527290949400,6.123949462890625,-0.13432692964226006,-0.019833412238955496,-0.1543999045244418
1772614527301016300,6.134016357421875,-0.1161611583545804,-0.01537117213308811,-0.11998049744702875
1772614527311083300,6.144083251953125,-0.08366466389745474,-0.010701426756381988,-0.08374581197542139
1772614527321150200,6.154150146484375,-0.0592404167369008,-0.023976503393054006,-0.07263090904732235
1772614527331217400,6.164217529296875,-0.06753302878588438,-0.03553425471782684,-0.060090763655654154
1772614527341284400,6.174284423828125,-0.08351239594519137,-0.003456277933716774,-0.029086909775924867
1772614527351351300,6.184351318359375,-0.09208236363083123,0.028894670572876927,-0.002804647337037022
1772614527361418200,6.194418212890625,-0.10062690461426972,0.03623918811678886,-0.021451154200476594
1772614527371485200,6.204485107421875,-0.08397387597709893,0.0320329685986042,-0.04884649872684385
1772614527381552000,6.21455224609375,-0.04801891162917018,0.017945406535267827,-0.06239916389561258
1772614527391619300,6.224619384765625,-0.00888181011378765,-0.00502279659807682,-0.05048277642547618
1772614527401686500,6.2346865234375,0.01667085655480623,-0.045430210310220716,-0.10165139795695431
1772614527411753500,6.24475341796875,0.04483355959132313,-0.07847147916853428,-0.12523729459722527
1772614527421820400,6.2548203125,0.05263634229674935,-0.08639467338323592,-0.0976658263189718
1772614527431887400,6.264887451171875,0.0688023180693388,-0.06205109024345874,-0.05351449510445818
1772614527441954300,6.274954345703125,0.041592824104428286,-0.01967149967551231,-0.02130916789692128
1772614527452021200,6.285021240234375,0.020910101559758185,0.019014497071504592,0.0005656082683068234
1772614527462088400,6.29508837890625,0.006860095027834177,0.04581891736686229,0.014421184781740884
1772614527472155400,6.3051552734375,-0.013916151019185781,0.07724339867830277,0.03610242826091126
1772614527482222300,6.315222412109375,-0.023687018927186727,0.07772796732485295,-0.015521520981256616
1772614527492289300,6.325289306640625,-0.014178162956237791,0.027586510583758352,-0.07331948496652767
1772614527502356200,6.335356201171875,0.00043780689537525175,-0.014151859471201896,-0.07216599494931288
1772614527512423200,6.345423095703125,0.006612257746607065,-0.001360182437300682,-0.1004591559650842
1772614527522490400,6.355490478515625,0.01691314087808132,-0.016624387064576147,-0.07503395616763736
1772614527532557300,6.365557373046875,0.01845773997157812,-0.017963526713848113,-0.05052361532594077
1772614527542624300,6.375624267578125,0.0051817865520715715,-0.005444236880540848,-0.06212145206592977
1772614527552691200,6.385691162109375,-0.04908697925209999,-0.01312953068614006,-0.09298888401649892
1772614527562758100,6.395758056640625,-0.08546163031682372,0.011885668104887007,-0.10818749432796612
1772614527572825300,6.405825439453125,-0.1294457334719598,0.020119243443012236,-0.1057536547771655
1772614527582892500,6.415892578125,-0.13632730967923998,0.01819675094783306,-0.0861683538140729
1772614527592959500,6.42595947265625,-0.10934943251311778,0.06185585993230343,-0.0704388971620705
1772614527603026400,6.4360263671875,-0.07384718036875128,0.08890694846510887,-0.035699258854077195
1772614527613093400,6.44609326171875,-0.05655234669670462,0.09571487491428851,-0.03800625943810446
1772614527623160300,6.456160400390625,-0.031168752984702584,0.08446341305971145,-0.040612882289523256
1772614527633227300,6.466227294921875,-0.028366262784600256,0.08586275846362114,-0.035489997734280763
1772614527643294200,6.476294189453125,-0.057887979214638466,0.08371288695335388,-0.04967014486833941
1772614527653361400,6.486361328125,-0.07921601392552256,0.059575640040636056,-0.08218179579540155
1772614527663428400,6.496428466796875,-0.09722118782401085,0.007447393396496772,-0.11538094949601217
1772614527673495300,6.506495361328125,-0.10964330089315771,-0.027483634731173514,-0.08686841010851785
1772614527683562200,6.516562255859375,-0.10007526208087801,-0.013403671452403067,-0.07553775010446552
1772614527693629200,6.526629150390625,-0.10292466016262769,0.005277648141980171,-0.03185211387267336
1772614527703696100,6.536696044921875,-0.10947481245845556,0.018335867157578466,-0.018710579938197042
1772614527713763300,6.546763427734375,-0.11077625044584273,0.04406827430725097,-0.018376996035699266
1772614527723830300,6.556830322265625,-0.09599836803078651,0.053390813925862306,-0.016499845086166167
1772614527733897200,6.566897216796875,-0.08464782971590756,0.061279521349072455,-0.015740556859684875
1772614527743964400,6.57696435546875,-0.05933832415342331,0.04075754232406616,-0.01403997376167681
1772614527754031400,6.58703125,-0.04457447026371956,0.02799742947220802,-0.02246908080505673
1772614527764098300,6.597098388671875,-0.023610592690110205,0.01051613331735134,-0.06774041989229153
1772614527774165500,6.60716552734375,-0.0034396190598607063,-0.013227145841717719,-0.06819880378481466
1772614527784232400,6.617232421875,0.011495938134938478,-0.002279050847887993,-0.05441344867160078
1772614527794299400,6.62729931640625,0.01113309617191553,0.0179249482691288,-0.031688173748925325
1772614527804366300,6.637366455078125,-0.010819792439043522,0.03188859169185161,-0.01775108040641062
1772614527814433300,6.647433349609375,-0.029561902309954164,0.04384381790161133,0.011180490394041407
1772614527824500200,6.657500244140625,-0.02308656881600618,0.051993222087621686,0.01667627251544036
1772614527834567400,6.6675673828125,-0.005595043528079986,0.02307575516104698,0.0005579441246038186
1772614527844634400,6.67763427734375,0.026742607105523345,-0.009368716847896575,-0.04784179693001788
1772614527854701300,6.687701416015625,0.04217705373317003,-0.05819207672774791,-0.08798373267296701
1772614527864768300,6.697768310546875,0.04889437928944826,-0.06292378142476081,-0.10194315657829865
1772614527874835200,6.707835205078125,0.032604338745772836,-0.05489478874802589,-0.09740375044983811
1772614527884902100,6.717902099609375,-0.008417699733376503,-0.044157706156373024,-0.05720540834453422
1772614527894969300,6.72796923828125,-0.042159225815534586,0.00983516531586647,-0.013430883686314336
1772614527905036300,6.738036376953125,-0.06711947954893112,0.03940203606188297,0.018305444619851185
1772614527915103500,6.748103515625,-0.07813523295149206,0.047889878422021866,0.013577531323611038
1772614527925170400,6.75817041015625,-0.06995119584351778,0.05710603505671024,0.019466825682576745
1772614527935237400,6.7682373046875,-0.05947451775372028,0.05949672958552837,-0.009115199886198388
1772614527945304300,6.77830419921875,-0.05018222714290022,0.03367430606484413,-0.04404614467383362
1772614527955371300,6.788371337890625,-0.036999358834326264,-0.0019476269364356994,-0.10113530166097916
1772614527965438500,6.7984384765625,-0.041593408626317975,-0.018981763845682145,-0.11379104082291014
1772614527975505400,6.80850537109375,-0.045901188822835684,0.00636953503191471,-0.050444960599159816
1772614527985572400,6.818572265625,-0.025873130794614552,0.07123918982744216,0.03165873302530963
1772614527995639300,6.828639404296875,-0.03445055113434791,0.10480652838647365,0.09151641857745126
1772614528005706200,6.838706298828125,-0.03968786726593971,0.11127835474908351,0.10563990133753977
1772614528015773200,6.848773193359375,-0.05809592287689447,0.08109013723433017,0.041334346698177975
1772614528025840400,6.85884033203125,-0.07361994748413563,0.0034527708023786544,-0.07329878923837095
1772614528035907300,6.8689072265625,-0.08928104247450828,-0.058709963122010225,-0.142340149361128
1772614528045974300,6.878974365234375,-0.07543123468980192,-0.06705401309728622,-0.12831893966542557
1772614528056041200,6.889041259765625,-0.04479103562384844,-0.037919104027748105,-0.06527039478325751
1772614528066108200,6.899108154296875,-0.01492810454070568,0.000021627309918403625,-0.02450284023854183
1772614528076175000,6.909175048828125,0.00009089315384626388,0.007597031000256538,-0.014663560436561238
1772614528086242300,6.9192421875,0.006970715795457363,0.028469138637185094,0.0031190521858516147
1772614528096309500,6.9293095703125,0.011006254921853541,0.06255144098103047,0.002673161307076225
1772614528106376400,6.93937646484375,0.011103139425069092,0.06874035874903202,-0.008881254133005858
1772614528116444200,6.949444091796875,0.011413666678965092,0.0694903003334999,-0.03929075770713389
1772614528126511000,6.959510986328125,0.031098025836050508,0.053984688165783876,-0.053298925258172675
1772614528136578000,6.969578125,0.04527560427039862,0.03428162430822849,-0.041634740717126986
1772614528146645200,6.979645263671875,0.02562719320952892,0.05543780958354473,-0.020472796987881882
1772614528156712200,6.989712158203125,-0.0006684007808566093,0.07451368145346642,-0.021013972926186397
1772614528166779400,6.999779296875,-0.041192134349048136,0.09157879802286624,-0.020476498198753686
1772614528176846300,7.009846435546875,0.021318682360649106,0.08927227464616298,-0.06813169793193229
1772614528186913300,7.019913330078125,0.061920741862058634,-0.02252805815041065,-0.11125483687617815
1772614528196980200,7.029980224609375,0.11640183524265885,-0.050072483158111566,-0.16759727628240362
1772614528207047200,7.040047119140625,0.09838555542826652,-0.04862403791546821,-0.17001670371536165
1772614528217114000,7.050114013671875,0.009081424339115619,-0.031793899145722386,-0.130202707585413
1772614528227181300,7.060181396484375,-0.07275514734834432,0.040461774247884746,-0.09657395769534632
1772614528237248300,7.070248291015625,-0.10455562236532569,0.09009177433550357,-0.03399340935084037
