time,seconds_elapsed,z,y,x
1772614521230619600,0.06361962890625,-0.04878254234790802,0.020010193809866905,-0.1207457184791565
1772614521240686800,0.073686767578125,-0.05162157118320465,0.012576308101415634,-0.10254421085119247
1772614521250753800,0.08375390625,-0.049597833305597305,0.009113133884966373,-0.07147816568613052
1772614521260821000,0.093821044921875,-0.04169260337948799,0.0038020287174731493,-0.039356786757707596
1772614521270888000,0.103887939453125,-0.03609010949730873,-0.003998902626335621,-0.004093605559319258
1772614521280955000,0.113954833984375,-0.024035081267356873,-0.013784470967948437,0.023230792954564095
1772614521291021800,0.124021728515625,-0.01602615788578987,-0.033900659531354904,0.03997408598661423
1772614521301088800,0.1340888671875,-0.018428705632686615,-0.0437542125582695,0.048286061733961105
1772614521311155700,0.14415576171875,-0.02351454459130764,-0.050388678908348083,0.04174293950200081
1772614521321222700,0.15422265625,-0.02951929159462452,-0.04163149744272232,0.021838126704096794
1772614521331289900,0.164289794921875,-0.027204472571611404,-0.025312714278697968,-0.004598540719598532
1772614521341356800,0.174356689453125,-0.01764630526304245,-0.01997809298336506,-0.026287944987416267
1772614521351423700,0.184423828125,-0.011883491650223732,-0.029162535443902016,-0.04190125688910484
1772614521361490700,0.19449072265625,-0.017616283148527145,-0.04708227142691612,-0.04336893931031227
1772614521371557600,0.2045576171875,-0.027017775923013687,-0.06097730994224548,-0.039012808352708817
1772614521381624600,0.21462451171875,-0.0249521192163229,-0.06207704544067383,-0.032347217202186584
1772614521391691800,0.22469189453125,-0.021445002406835556,-0.06555113941431046,-0.019828494638204575
1772614521401758700,0.2347587890625,-0.023153049871325493,-0.0638284906744957,-0.00909112486988306
1772614521411826000,0.244825927734375,-0.026713430881500244,-0.05777325853705406,0.0012592509156093001
1772614521421892900,0.254892822265625,-0.02547558583319187,-0.05392976105213165,0.00603902293369174
1772614521431959800,0.264959716796875,-0.017508206889033318,-0.04553867504000664,0.008292590267956257
1772614521442026800,0.27502685546875,-0.010796001181006432,-0.0393003486096859,0.006294418592005968
1772614521452094000,0.285093994140625,-0.007289151195436716,-0.05151520296931267,-0.006604068912565708
1772614521462161000,0.295160888671875,-0.005630980711430311,-0.06231081113219261,-0.01740354858338833
1772614521472227800,0.305227783203125,0.0015228026313707232,-0.06472869217395782,-0.03190206363797188
1772614521482294800,0.315294677734375,0.0004219324328005314,-0.060972798615694046,-0.04636683687567711
1772614521492361700,0.32536181640625,-0.00645967572927475,-0.06359334290027618,-0.050794076174497604
1772614521502428700,0.3354287109375,-0.015430361032485962,-0.06332007050514221,-0.051769405603408813
1772614521512495900,0.345495849609375,-0.009714152663946152,-0.06106597185134888,-0.044967956840991974
1772614521522562800,0.355562744140625,0.0009146815864369273,-0.05147900804877281,-0.03908420726656914
1772614521532629800,0.365629638671875,0.017013756558299065,-0.04218777269124985,-0.03613928332924843
1772614521542696700,0.37569677734375,0.03548450022935867,-0.04363885894417763,-0.022898713126778603
1772614521552763600,0.385763671875,0.040672868490219116,-0.05702071264386177,-0.014826406724750996
1772614521562830600,0.39583056640625,0.036080460995435715,-0.06268951296806335,-0.0025324621237814426
1772614521572897800,0.405897705078125,0.04134766012430191,-0.05603613704442978,0.005361413583159447
1772614521582964700,0.41596484375,0.04648547247052193,-0.04556211456656456,0.001986767165362835
1772614521593032000,0.426031982421875,0.051104724407196045,-0.04447607696056366,-0.0012279344955459237
1772614521603099000,0.436098876953125,0.05330685153603554,-0.05092819407582283,-0.00477218022570014
1772614521613165800,0.446165771484375,0.048229802399873734,-0.04733319208025932,-0.010941925458610058
1772614521623232800,0.456232666015625,0.048701465129852295,-0.03689977899193764,-0.010323967784643173
1772614521633299700,0.4662998046875,0.05960231274366379,-0.040430065244436264,-0.018448207527399063
1772614521643367000,0.476366943359375,0.05725647136569023,-0.05303535610437393,-0.017247091978788376
1772614521653433900,0.486433837890625,0.03611816093325615,-0.05037911236286163,-0.01624654233455658
1772614521663500800,0.496500732421875,0.033437181264162064,-0.05252549424767494,-0.01967216469347477
1772614521673567700,0.506567626953125,0.03244675323367119,-0.052903130650520325,-0.016031889244914055
1772614521683634700,0.516634765625,0.03183738514780998,-0.04412806034088135,-0.010260187089443207
1772614521693701600,0.52670166015625,0.04036615788936615,-0.036595843732357025,-0.011151812970638275
1772614521703768800,0.536768798828125,0.051767498254776,-0.023843547329306602,-0.012801144272089005
1772614521713835800,0.546835693359375,0.048007916659116745,-0.017409082502126694,-0.013926862739026546
1772614521723902700,0.55690283203125,0.03043084591627121,-0.001968428259715438,-0.01607080176472664
1772614521733969700,0.5669697265625,0.02037847973406315,0.004909984301775694,-0.022973716259002686
1772614521744036600,0.57703662109375,0.01741056703031063,0.012333260849118233,-0.027682946994900703
1772614521754103600,0.587103515625,0.013099176809191704,0.01828116364777088,-0.02863316237926483
1772614521764171000,0.5971708984375,0.007319935597479343,0.021163521334528923,-0.029406316578388214
1772614521774238000,0.607238037109375,0.010815600864589214,0.01651098020374775,-0.01729292795062065
1772614521784305000,0.617304931640625,0.019533749669790268,0.00789738167077303,-0.007162522524595261
1772614521794371800,0.627371826171875,0.023901332169771194,0.0032344532664865255,0.012020226567983627
1772614521804438800,0.637438720703125,0.027530035004019737,-0.0032837260514497757,0.023242443799972534
1772614521814505700,0.647505615234375,0.025726541876792908,-0.007249971851706505,0.030689174309372902
1772614521824573000,0.657572998046875,0.026012031361460686,-0.00035875197499990463,0.02525733970105648
1772614521834640000,0.667639892578125,0.029030725359916687,0.012396723963320255,0.014750638045370579
1772614521844706800,0.677706787109375,0.026525938883423805,0.02179897204041481,0.006865636445581913
1772614521854773800,0.687773681640625,0.01795615442097187,0.02451512962579727,-0.0014120012056082487
1772614521864840700,0.6978408203125,0.015667468309402466,0.02318173460662365,-0.003004138357937336
1772614521874907600,0.70790771484375,0.01563284732401371,0.02414846234023571,-0.0018834801157936454
1772614521884974600,0.717974609375,0.01590648666024208,0.02261713147163391,0.0005312386201694608
1772614521895041800,0.728041748046875,0.013388200663030148,0.01790706440806389,0.007093533873558044
1772614521905108700,0.738108642578125,0.01842956431210041,0.0158175490796566,0.014040390029549599
1772614521915175700,0.74817578125,0.02529226429760456,0.02749764174222946,0.026277614757418633
1772614521925242600,0.75824267578125,0.036158908158540726,0.029926909133791924,0.03425684571266174
1772614521935309800,0.768309814453125,0.03677969053387642,0.024263963103294373,0.04054376855492592
1772614521945376800,0.778376708984375,0.03918248787522316,0.02336137928068638,0.032635848969221115
1772614521955444000,0.78844384765625,0.04135669395327568,0.013783853501081467,0.02478005550801754
1772614521965511000,0.798510986328125,0.033487558364868164,0.01872497797012329,0.015999559313058853
1772614521975577900,0.808577880859375,0.02486291341483593,0.024900315329432487,0.005979950074106455
1772614521985644800,0.818644775390625,0.030291952192783356,0.030388779938220978,-0.004127193242311478
1772614521995711700,0.828711669921875,0.03769713640213013,0.024780696257948875,-0.004798576235771179
1772614522005778000,0.83877783203125,0.04764905199408531,0.017745962366461754,0.0007133657345548272
1772614522015846000,0.848845947265625,0.057769328355789185,0.01216104719787836,0.01164484303444624
1772614522025912800,0.858912841796875,0.0638817623257637,0.0034070820547640324,0.02482938952744007
1772614522035978800,0.868978759765625,0.06271210312843323,-0.008559299632906914,0.03260182589292526
1772614522046045700,0.879045654296875,0.05482826009392738,-0.012466441839933395,0.03893166035413742
1772614522056112600,0.889112548828125,0.05052778869867325,-0.010470137000083923,0.03695080429315567
1772614522066179800,0.899179931640625,0.04092562571167946,-0.008937765844166279,0.03070092387497425
1772614522076246800,0.909246826171875,0.030353408306837082,-0.009643503464758396,0.016186963766813278
1772614522086313700,0.919313720703125,0.024734698235988617,-0.004655272699892521,0.002594724763184786
1772614522096380700,0.929380615234375,0.03112788312137127,0.00016984250396490097,-0.01713636890053749
1772614522106447600,0.939447509765625,0.028887279331684113,0.0027634762227535248,-0.030670518055558205
1772614522116514000,0.94951416015625,0.023864557966589928,0.0029749313835054636,-0.032118476927280426
1772614522126581000,0.9595810546875,0.024353256449103355,-0.0024880669079720974,-0.028645336627960205
1772614522136648000,0.96964794921875,0.02492743358016014,-0.011405128985643387,-0.019138118252158165
1772614522146715000,0.97971484375,0.025777166709303856,-0.022401897236704826,-0.0019225612049922347
1772614522156781800,0.98978173828125,0.03537973016500473,-0.028601203113794327,0.010650754906237125
1772614522166849000,0.99984912109375,0.04059721156954765,-0.028306374326348305,0.02416812628507614
1772614522176916200,1.009916259765625,0.03689701482653618,-0.02194993942975998,0.028988981619477272
1772614522186983200,1.019983154296875,0.021841365844011307,-0.018991967663168907,0.029055293649435043
1772614522197050000,1.030050048828125,0.010110673494637012,-0.019321933388710022,0.02861054614186287
1772614522207117000,1.040116943359375,-0.002751788590103388,-0.011878297664225101,0.0077649857848882675
1772614522217184000,1.05018408203125,-0.006588605232536793,-0.01235207449644804,-0.011228945106267929
1772614522227251000,1.0602509765625,-0.004033688921481371,0.0024307980202138424,-0.04025034233927727
1772614522237318100,1.070318115234375,0.004297744017094374,0.00838402844965458,-0.06324327737092972
1772614522247385000,1.080385009765625,0.012029396370053291,0.013823751360177994,-0.07824210077524185
1772614522257452000,1.0904521484375,0.025820309296250343,0.015530304983258247,-0.09083778411149979
1772614522267519000,1.10051904296875,0.03138512745499611,0.01892201416194439,-0.09491942077875137
1772614522277586000,1.1105859375,0.0326533243060112,0.02126399800181389,-0.09245546162128448
1772614522287652900,1.12065283203125,0.03245144337415695,0.0292943324893713,-0.07985147088766098
1772614522297720000,1.130719970703125,0.031992580741643906,0.025475360453128815,-0.0637875497341156
1772614522307787000,1.140787109375,0.02919306978583336,0.025064410641789436,-0.03936284780502319
1772614522317854000,1.15085400390625,0.02805083990097046,0.02766924723982811,-0.014452970586717129
1772614522327921000,1.1609208984375,0.028654905036091805,0.02824280597269535,0.012597991153597832
1772614522337988000,1.170988037109375,0.02446841634809971,0.0333574041724205,0.027592653408646584
1772614522348055000,1.181054931640625,0.027942147105932236,0.03617482632398605,0.03567202761769295
1772614522358122000,1.1911220703125,0.02423129603266716,0.04393447935581207,0.035841938108205795
1772614522368189200,1.201189208984375,0.014589769765734673,0.059015411883592606,0.02441008947789669
1772614522378256100,1.211256103515625,0.011279726400971413,0.06420218199491501,0.013537201099097729
1772614522388323000,1.221322998046875,0.01592247746884823,0.06780905276536942,0.006974328309297562
1772614522398390000,1.23139013671875,0.022286634892225266,0.058680806308984756,0.0057282354682683945
1772614522408457000,1.24145703125,0.031368788331747055,0.041783981025218964,0.011234850622713566
1772614522418524000,1.25152392578125,0.04305234178900719,0.030416013672947884,0.021194539964199066
1772614522428591000,1.261591064453125,0.03967490792274475,0.014244314283132553,0.02634732611477375
1772614522438658000,1.271657958984375,0.02168365940451622,0.006045772694051266,0.02779502049088478
1772614522448725000,1.28172509765625,0.0178690068423748,0.003922613803297281,0.02400844544172287
1772614522458792000,1.2917919921875,0.02074655145406723,0.004689870402216911,0.010485447011888027
1772614522468859000,1.30185888671875,0.01806662604212761,0.0038769938983023167,-0.0018365721916779876
1772614522478925800,1.31192578125,0.017087114974856377,0.004947850946336985,-0.01710900291800499
1772614522488993000,1.321992919921875,0.019964855164289474,0.007113168016076088,-0.03494718670845032
1772614522499060000,1.33206005859375,0.01533494796603918,0.005414603278040886,-0.0447273813188076
1772614522509127200,1.342127197265625,0.011831583455204964,0.00673909904435277,-0.055909398943185806
1772614522519194000,1.352194091796875,0.006067171227186918,0.007797439582645893,-0.06281045079231262
1772614522529261000,1.362260986328125,0.0126512935385108,0.016812054440379143,-0.057214781641960144
1772614522539328000,1.372327880859375,0.015777045860886574,0.02208218351006508,-0.046210333704948425
1772614522549395200,1.382395263671875,0.012818284332752228,0.014235365204513073,-0.026600513607263565
1772614522559462100,1.392462158203125,0.006032017525285482,0.00044205482117831707,0.0005647944053635001
1772614522569529000,1.402529052734375,0.006609669886529446,-0.014458919875323772,0.03387918323278427
1772614522579596000,1.412595947265625,0.016337664797902107,-0.029806451871991158,0.05136176943778992
1772614522589663000,1.4226630859375,0.022961199283599854,-0.02902315929532051,0.059634771198034286
1772614522599730000,1.43272998046875,0.027897369116544724,-0.019916214048862457,0.06182175874710083
1772614522609797000,1.442797119140625,0.02919306978583336,-0.0057944366708397865,0.05537031590938568
1772614522619864000,1.452864013671875,0.03353855013847351,-0.006857038475573063,0.05079527199268341
1772614522629931000,1.462930908203125,0.030223309993743896,-0.02423710562288761,0.04712813347578049
1772614522639998000,1.472998046875,0.014853142201900482,-0.032562676817178726,0.043694786727428436
1772614522650065000,1.48306494140625,-0.001955576241016388,-0.031663019210100174,0.03362154960632324
1772614522660131800,1.4931318359375,0.005048803519457579,-0.02713032066822052,0.020703621208667755
1772614522670199000,1.503198974609375,0.010379374958574772,-0.009892397560179234,0.004024344962090254
1772614522680266200,1.513266357421875,0.01361165288835764,0.007221075240522623,-0.008084248751401901
1772614522690333200,1.523333251953125,0.013362404890358448,0.020433679223060608,-0.01756163500249386
1772614522700400000,1.533400146484375,0.005650156643241644,0.01599712111055851,-0.00406100507825613
1772614522710467000,1.543467041015625,0.00493422569707036,0.0026335204020142555,0.016866635531187057
1772614522720534000,1.553533935546875,0.012364445254206657,-0.01860412396490574,0.0400819405913353
1772614522730601000,1.56360107421875,0.019783442839980125,-0.03716957941651344,0.05959177017211914
1772614522740668200,1.573668212890625,0.018211113288998604,-0.03878451883792877,0.06922575831413269
1772614522750735000,1.583735107421875,0.01173075009137392,-0.03821120411157608,0.07159639894962311
1772614522760802000,1.593802001953125,-0.0033033268991857767,-0.04124561324715614,0.061297956854104996
1772614522770869000,1.603868896484375,-0.02332279644906521,-0.036807648837566376,0.04156668856739998
1772614522780936000,1.61393603515625,-0.02363252267241478,-0.020452110096812248,0.019534625113010406
1772614522791003000,1.6240029296875,-0.00838180910795927,-0.005359108559787273,-0.007898997515439987
1772614522801070000,1.634070068359375,-0.008331742137670517,0.006411796435713768,-0.04198160022497177
1772614522811137000,1.644136962890625,-0.01562025398015976,0.0140116848051548,-0.056563232094049454
1772614522821204000,1.654203857421875,-0.015272977761924267,0.015528887510299683,-0.057418372482061386
1772614522831271000,1.66427099609375,-0.006492997519671917,0.0027094329707324505,-0.04138418659567833
1772614522841337900,1.674337890625,-0.0029946689028292894,-0.005027849227190018,-0.0033593045081943274
1772614522851405000,1.684405029296875,0.0023657293058931828,-0.012718711979687214,0.023848718032240868
1772614522861472300,1.69447216796875,-0.0007259343401528895,-0.019964372739195824,0.04900786653161049
1772614522871539200,1.704539306640625,-0.0014970771735534072,-0.02614062838256359,0.059862613677978516
1772614522881606100,1.714606201171875,0.0011929819593206048,-0.029256261885166168,0.0613236278295517
1772614522891673000,1.724673095703125,0.005559306126087904,-0.025392737239599228,0.04966948926448822
1772614522901740000,1.734739990234375,0.0062096500769257545,-0.021040335297584534,0.026215828955173492
1772614522911807000,1.744806884765625,-0.003230443224310875,-0.00975098367780447,-0.001861507073044777
1772614522921874000,1.7548740234375,-0.007516534999012947,0.003791190218180418,-0.02366613782942295
1772614522931941000,1.764941162109375,-0.0030057227704674006,0.016388747841119766,-0.044590599834918976
1772614522942008000,1.775008056640625,-0.0016408526571467519,0.014533855952322483,-0.05058404430747032
1772614522952075000,1.785074951171875,-0.002752273343503475,0.012858442962169647,-0.044080037623643875
1772614522962142000,1.795141845703125,-0.0022659802343696356,0.0110988924279809,-0.0315229669213295
1772614522972209000,1.805208984375,0.011106453835964203,0.01167233195155859,-0.004776169545948505
1772614522982275800,1.81527587890625,0.023053128272294998,0.005548393353819847,0.021791525185108185
1772614522992343000,1.825343017578125,0.02616569772362709,-0.00392954284325242,0.04674670472741127
1772614523002410000,1.835409912109375,0.02314860187470913,-0.008839080110192299,0.060803405940532684
1772614523012477000,1.845476806640625,0.021107351407408714,-0.007825035601854324,0.06410428881645203
1772614523022544100,1.855544189453125,0.022668495774269104,-0.007751798722893,0.04901961609721184
1772614523032611000,1.865611083984375,0.01923881657421589,-0.006806022487580776,0.024812908843159676
1772614523042678000,1.875677978515625,0.01634502410888672,-0.012046591378748417,-0.010616454295814037
1772614523052745200,1.8857451171875,0.013281626626849174,-0.013853229582309723,-0.03566012158989906
1772614523062812200,1.895812255859375,0.019776809960603714,-0.010063285939395428,-0.05542104318737984
1772614523072879000,1.905879150390625,0.03069976344704628,-0.007501058280467987,-0.05940939486026764
1772614523082946000,1.915946044921875,0.03240688517689705,-0.009821130894124508,-0.05293166637420654
1772614523093013000,1.926012939453125,0.021701276302337646,-0.017225516960024834,-0.029191965237259865
1772614523103080000,1.936079833984375,0.014726990833878517,-0.01936217024922371,-0.0058522881008684635
1772614523113148200,1.946148193359375,0.007504347246140242,-0.02284780889749527,0.015467015095055103
1772614523123214300,1.95621435546875,-0.0014681086177006364,-0.023369789123535156,0.0373760387301445
1772614523133281300,1.96628125,-0.011197024025022984,-0.020641982555389404,0.04494994133710861
1772614523143348200,1.97634814453125,-0.00680946558713913,-0.015188626013696194,0.04336429759860039
1772614523153415200,1.986415283203125,0.003026456804946065,-0.009884333238005638,0.03460049256682396
1772614523163482000,1.996482177734375,0.012054306454956532,-0.008808416314423084,0.021974977105855942
1772614523173549000,2.006549072265625,0.009920112788677216,-0.005424424074590206,0.015511387959122658
1772614523183616300,2.0166162109375,-0.0005250718677416444,0.00008672126568853855,0.003758590668439865
1772614523193683200,2.02668310546875,0.0018561807228252292,0.0025715185329318047,-0.00204110867343843
1772614523203750100,2.036750244140625,0.01584416814148426,-0.010216182097792625,0.00464608846232295
1772614523213817000,2.046817138671875,0.015795864164829254,-0.030985603109002113,0.01379957515746355
1772614523223884000,2.056884033203125,0.003541062120348215,-0.03242477774620056,0.02766292542219162
1772614523233951000,2.066950927734375,-0.015739837661385536,-0.02653805911540985,0.033808834850788116
1772614523244018200,2.07701806640625,-0.029195459559559822,-0.017251083627343178,0.02745054103434086
1772614523254085400,2.08708544921875,-0.03863148018717766,-0.01101737841963768,0.022244755178689957
1772614523264152300,2.09715234375,-0.03273630887269974,-0.004340833984315395,0.014607875607907772
1772614523274219300,2.10721923828125,-0.02757306769490242,-0.0029247694183140993,0.011170404963195324
1772614523284286200,2.1172861328125,-0.0261330958455801,-0.008961089886724949,0.012019953690469265
1772614523294353200,2.127353271484375,-0.024280797690153122,-0.015234091319143772,0.01926148310303688
1772614523304420400,2.13742041015625,-0.020325204357504845,-0.019494883716106415,0.032597530633211136
1772614523314487300,2.1474873046875,-0.016295308247208595,-0.02176176756620407,0.03972814232110977
1772614523324554200,2.15755419921875,-0.003851955523714423,-0.020408082753419876,0.04490106925368309
1772614523334621200,2.16762109375,0.0019686520099639893,-0.015868430957198143,0.04659237712621689
1772614523344688000,2.177688232421875,-0.001935808453708887,-0.01928207091987133,0.04177738353610039
1772614523354755000,2.187755126953125,-0.005469096824526787,-0.023342426866292953,0.027643920853734016
1772614523364822300,2.197822265625,0.003953699953854084,-0.03198837861418724,0.005228093825280666
1772614523374889200,2.20788916015625,0.01981661096215248,-0.03950286656618118,-0.00837776716798544
1772614523384956200,2.2179560546875,0.024457968771457672,-0.0470699705183506,-0.00937299057841301
1772614523395023000,2.228023193359375,0.02310347557067871,-0.05000719800591469,-0.005808542016893625
1772614523405090000,2.238090087890625,0.022886695340275764,-0.0494505949318409,0.0023210234940052032
1772614523415157000,2.248156982421875,0.02547357976436615,-0.04384718835353851,0.008213303051888943
1772614523425224200,2.25822412109375,0.022847969084978104,-0.044273827224969864,0.010201885364949703
1772614523435291400,2.26829150390625,0.009117181412875652,-0.039171259850263596,0.006000280845910311
1772614523445358300,2.2783583984375,-0.003039349801838398,-0.030794817954301834,-0.0059400019235908985
1772614523455425300,2.28842529296875,-0.008601327426731586,-0.023574963212013245,-0.014227267354726791
1772614523465492200,2.2984921875,-0.004647331777960062,-0.017001483589410782,-0.01946410909295082
1772614523475559200,2.30855908203125,0.004484684206545353,-0.013026665896177292,-0.021715909242630005
1772614523485626000,2.318626220703125,0.013354342430830002,-0.007938696071505547,-0.008082123473286629
1772614523495693300,2.328693359375,0.019791139289736748,-0.008499737828969955,0.010547056794166565
1772614523505760300,2.33876025390625,0.022259090095758438,-0.01081562228500843,0.024851959198713303
1772614523515827200,2.3488271484375,0.021856848150491714,-0.014623533934354782,0.03287949413061142
1772614523525894100,2.35889404296875,0.012932862155139446,-0.019210295751690865,0.03644866123795509
1772614523535961000,2.368961181640625,0.00662251329049468,-0.021319599822163582,0.02462225966155529
1772614523546028000,2.379028076171875,0.0031300438567996025,-0.017071325331926346,0.01722240075469017
1772614523556095200,2.38909521484375,0.005112014710903168,-0.014271842315793037,0.021576736122369766
1772614523566162200,2.399162109375,0.012518532574176788,-0.00971890240907669,0.02809615433216095
1772614523576229000,2.40922900390625,0.012126771733164787,0.0025847163051366806,0.03605031594634056
1772614523586296000,2.419296142578125,0.010121677070856094,0.010260745882987976,0.03606416657567024
1772614523596363300,2.42936328125,0.015454813838005066,0.006822988390922546,0.026971900835633278
1772614523606430200,2.43943017578125,0.0231926292181015,0.0009184943046420813,0.02144104801118374
1772614523616497200,2.4494970703125,0.030526909977197647,-0.0014228702057152987,0.018799826502799988
1772614523626564400,2.459564453125,0.027999836951494217,-0.011334623210132122,0.018720198422670364
1772614523636631300,2.46963134765625,0.017685331404209137,-0.011478186585009098,0.026679620146751404
1772614523646698200,2.4796982421875,0.009081723168492317,-0.0036559496074914932,0.02870814874768257
1772614523656765200,2.48976513671875,0.0012827182654291391,0.0035243788734078407,0.028606049716472626
1772614523666832100,2.49983203125,0.0007474229205399752,0.013369552791118622,0.027587125077843666
1772614523676899000,2.509899169921875,0.0004903541412204504,0.01507043931633234,0.030824342742562294
1772614523686966300,2.51996630859375,0.005899500567466021,0.01362274494022131,0.01954958401620388
1772614523697033200,2.530033203125,0.010790674015879631,0.012713702395558357,0.017433123663067818
1772614523707100200,2.54010009765625,0.006461705081164837,0.008827351033687592,0.010503577999770641
1772614523717167000,2.5501669921875,0.001749314833432436,0.002752780681475997,0.008027970790863037
1772614523727234000,2.560234130859375,0.0012419826816767454,0.0018430448835715652,0.006782410200685263
1772614523737301000,2.570301025390625,0.0006257647182792425,0.005948115140199661,0.0031230696476995945
1772614523747368200,2.5803681640625,0.004959260579198599,0.0053667472675442696,0.006701825652271509
1772614523757435100,2.59043505859375,0.010266311466693878,0.004128946922719479,0.0033179395832121372
1772614523767502300,2.60050244140625,0.008981335908174515,0.0016748443013057113,0.00765196792781353
1772614523777569300,2.6105693359375,0.005976890213787556,-0.003650425001978874,0.01922716200351715
1772614523787636200,2.62063623046875,0.008184384554624557,-0.0006485097110271454,0.02686936780810356
1772614523797703200,2.630703125,0.016137564554810524,-0.0014200462028384209,0.03323009982705116
1772614523807770400,2.640770263671875,0.017726140096783638,-0.00914667546749115,0.04224436730146408
1772614523817837300,2.65083740234375,0.011460254900157452,-0.009062785655260086,0.04941359534859657
1772614523827904300,2.660904296875,0.012904752977192402,-0.002972136251628399,0.045146144926548004
1772614523837971200,2.67097119140625,0.019974777474999428,0.002940868027508259,0.0395069345831871
1772614523848038100,2.6810380859375,0.021650971844792366,0.0005283104255795479,0.029691852629184723
1772614523858105000,2.69110498046875,0.023482151329517365,0.0006618152838200331,0.017602266743779182
1772614523868172300,2.70117236328125,0.020896222442388535,0.0007936416659504175,0.01136274728924036
1772614523878239200,2.7112392578125,0.020316997542977333,0.004583530593663454,0.005481794476509094
1772614523888306200,2.72130615234375,0.023590289056301117,0.010754074901342392,0.00831220205873251
1772614523898373000,2.731373046875,0.025735972449183464,0.0131840780377388,0.01152024231851101
1772614523908440000,2.741440185546875,0.033794697374105453,0.012050637975335121,0.01717519760131836
1772614523918507000,2.751507080078125,0.033746108412742615,0.009004445746541023,0.02117779664695263
1772614523928574200,2.76157421875,0.027553725987672806,0.006715991534292698,0.025194643065333366
1772614523938641400,2.771641357421875,0.019284356385469437,0.0008532283827662468,0.0256227757781744
1772614523948708400,2.781708251953125,0.021387986838817596,0.0019208895973861217,0.02623104304075241
1772614523958775300,2.791775390625,0.02014201506972313,0.004345499444752932,0.024760045111179352
1772614523968842200,2.80184228515625,0.016083624213933945,0.007022775709629059,0.019423868507146835
1772614523978909200,2.8119091796875,0.015533510595560074,0.0039390637539327145,0.00915984995663166
1772614523988976000,2.82197607421875,0.01977486163377762,0.001156060490757227,-0.0006626870017498732
1772614523999043300,2.832043212890625,0.026349594816565514,-0.002210298553109169,-0.01353081502020359
1772614524009110300,2.8421103515625,0.02578660286962986,-0.005154955666512251,-0.01786644011735916
1772614524019177200,2.85217724609375,0.024705935269594193,-0.0011979569680988789,-0.015823164954781532
1772614524029244200,2.862244140625,0.029703622683882713,0.0004454797599464655,-0.014721681363880634
1772614524039311000,2.87231103515625,0.03260977566242218,-0.0036548408679664135,-0.009168756194412708
1772614524049378000,2.8823779296875,0.01654052548110485,-0.0031461771577596664,-0.0017364062368869781
1772614524059445200,2.8924453125,0.0016743701416999102,0.0011643227189779282,0.004252440761774778
1772614524069512200,2.90251220703125,-0.0006636190228164196,0.009087493643164635,0.007624002173542976
1772614524079579100,2.9125791015625,0.002168485661968589,0.01666095480322838,0.007221665699034929
1772614524089646000,2.92264599609375,-0.0036305475514382124,0.025212362408638,0.003492973744869232
1772614524099713000,2.932713134765625,-0.00774681381881237,0.032282505184412,0.001011741696856916
1772614524109779700,2.94277978515625,-0.00891674030572176,0.029666747897863388,0.0043012783862650394
1772614524119847000,2.952846923828125,-0.01517859473824501,0.02691814862191677,0.015282989479601383
1772614524129913900,2.962913818359375,-0.019193043932318687,0.02246880531311035,0.021147537976503372
1772614524139980800,2.972980712890625,-0.016036605462431908,0.018260100856423378,0.033594850450754166
1772614524150048000,2.983048095703125,0.002891011768952012,0.009273797273635864,0.03501671180129051
1772614524160115000,2.993114990234375,0.030665917322039604,0.0019820863381028175,0.031394489109516144
1772614524170182000,3.003181884765625,0.041506052017211914,-0.004601513966917992,0.029472216963768005
1772614524180249000,3.0132490234375,0.03090827539563179,-0.004657546058297157,0.02765936404466629
1772614524190315000,3.02331494140625,0.014892823994159698,-0.007194739766418934,0.030578454956412315
1772614524200383000,3.033383056640625,0.0008579441346228123,-0.006110671907663345,0.0315384566783905
1772614524210450000,3.043449951171875,-0.0127638578414917,-0.00446936534717679,0.021245604380965233
1772614524220516900,3.053516845703125,-0.01647431030869484,-0.008667584508657455,0.010899524204432964
1772614524230583800,3.063583740234375,-0.021935122087597847,-0.009124317206442356,0.006870960351079702
1772614524240651000,3.073651123046875,-0.011618715710937977,-0.012419111095368862,0.0015735347988083959
1772614524250717000,3.083717041015625,0.011331341229379177,-0.009365797974169254,-0.003472622949630022
1772614524260785000,3.093784912109375,0.02755293808877468,-0.011078798212110996,-0.0022746340837329626
1772614524270851800,3.103851806640625,0.023288417607545853,-0.015910837799310684,0.005906596779823303
1772614524280917800,3.113917724609375,0.016294632107019424,-0.028634244576096535,0.015659397467970848
1772614524290985000,3.12398486328125,0.007383693940937519,-0.034107040613889694,0.023581236600875854
1772614524301052000,3.134052001953125,0.006534314714372158,-0.0179730411618948,0.02662808820605278
1772614524311118800,3.144118896484375,0.006086637265980244,-0.010505272075533867,0.016853222623467445
1772614524321185800,3.154185791015625,0.008079105988144875,-0.0070736706256866455,0.015128323808312416
1772614524331252700,3.164252685546875,0.01431250013411045,-0.007616156712174416,0.010947427712380886
1772614524341319700,3.174319580078125,0.0152687793597579,-0.005588073283433914,0.011027421802282333
1772614524351387000,3.184386962890625,0.0002626650966703892,-0.007533778436481953,0.013467143289744854
1772614524361454000,3.1944541015625,-0.007048641797155142,0.0012288328725844622,0.014516131021082401
1772614524371521000,3.20452099609375,0.00216110167093575,0.008640943095088005,0.014483640901744366
1772614524381588000,3.214587890625,0.02079108916223049,0.018806910142302513,0.023336222395300865
1772614524391655000,3.224655029296875,0.026423141360282898,0.019008778035640717,0.03845179080963135
1772614524401721900,3.234721923828125,0.031411007046699524,0.010354860685765743,0.043527476489543915
1772614524411789000,3.2447890625,0.028111616149544716,-0.010206873528659344,0.04789292812347412
1772614524421856000,3.25485595703125,0.009638217277824879,-0.013643992133438587,0.04121538996696472
1772614524431923000,3.2649228515625,-0.0022416117135435343,-0.00903219636529684,0.026238037273287773
1772614524441990000,3.274989990234375,-0.0025689455214887857,0.0032426908146589994,-0.00032426463440060616
1772614524452056800,3.285056884765625,-0.005041690543293953,0.006904004607349634,-0.020961366593837738
1772614524462123800,3.295123779296875,-0.004494016990065575,0.012104718014597893,-0.03881353884935379
1772614524472191000,3.30519091796875,0.0004267054609954357,0.019200444221496582,-0.04432947561144829
1772614524482258000,3.3152578125,0.01617886871099472,0.01055552065372467,-0.03785153478384018
1772614524492324900,3.325324951171875,0.010154531337320805,-0.003972822334617376,-0.021449923515319824
1772614524502391800,3.335391845703125,0.0030985642224550247,-0.013096552342176437,-0.006466945633292198
1772614524512458800,3.345458740234375,-0.0014746160013601184,-0.014911763370037079,0.004853619262576103
1772614524522525700,3.355525634765625,0.004452182911336422,-0.006033124402165413,0.0035242997109889984
1772614524532593000,3.365593017578125,0.016543202102184296,-0.013013269752264023,-0.0009865626925602555
1772614524542660000,3.37566015625,0.029218334704637527,-0.019495651125907898,-0.008046104572713375
1772614524552727000,3.38572705078125,0.030084125697612762,-0.017849817872047424,-0.020723285153508186
1772614524562794000,3.3957939453125,0.028678400442004204,-0.011461308225989342,-0.0379248708486557
1772614524572861000,3.40586083984375,0.01709604822099209,-0.0038350808899849653,-0.07825605571269989
1772614524582928000,3.415927978515625,0.004379700403660536,0.004132886417210102,-0.11229134351015091
1772614524592994800,3.425994873046875,-0.007978432811796665,0.009145754389464855,-0.13909819722175598
1772614524603062000,3.43606201171875,-0.014607178047299385,0.012744043953716755,-0.15568749606609344
1772614524613129000,3.44612890625,-0.02823350951075554,0.014079619199037552,-0.1506112515926361
1772614524623196000,3.45619580078125,-0.026128049939870834,0.0182785764336586,-0.13551075756549835
1772614524633262800,3.466262939453125,-0.026578389108181,0.016154173761606216,-0.10833665728569031
1772614524643329800,3.476329833984375,-0.03311818093061447,0.01090536080300808,-0.06155266985297203
1772614524653396700,3.486396728515625,-0.035010889172554016,0.009650479070842266,-0.008157621137797832
1772614524663464000,3.4964638671875,-0.023900305852293968,0.0049208784475922585,0.03611469641327858
1772614524673531000,3.50653076171875,-0.008133859373629093,0.00032080034725368023,0.06742255389690399
1772614524683597800,3.516597900390625,0.002817159052938223,-0.00211150199174881,0.08383248746395111
1772614524693664800,3.526664794921875,0.014110293239355087,-0.004797832574695349,0.08218452334403992
1772614524703732000,3.53673193359375,0.02169833891093731,-0.0036094929091632366,0.0695783868432045
1772614524713799000,3.546798828125,0.02050071395933628,0.0018089747754856944,0.043742790818214417
1772614524723866000,3.5568662109375,0.014236563816666603,0.01420120894908905,0.011774439364671707
1772614524733933000,3.56693310546875,0.00877308938652277,0.024750521406531334,-0.007759580854326487
1772614524744000000,3.577,0.009013100527226925,0.01747947372496128,-0.01631108857691288
1772614524754067000,3.58706689453125,0.006539289839565754,0.0041197254322469234,-0.013871099799871445
1772614524764134000,3.5971337890625,0.009372476488351822,-0.005794381257146597,0.007897778414189816
1772614524774200800,3.607200927734375,0.011034821160137653,-0.010623756796121597,0.023755570873618126
1772614524784267800,3.617267822265625,0.017394356429576874,-0.010064697824418545,0.03529544174671173
1772614524794335000,3.6273349609375,0.02326210029423237,-0.0074691809713840485,0.048864249140024185
1772614524804402000,3.63740185546875,0.02539268508553505,-0.012479497119784355,0.06208042427897453
1772614524814468900,3.64746875,0.026737846434116364,-0.011956717818975449,0.0656309500336647
1772614524824535800,3.657535888671875,0.03188323602080345,-0.015247710980474949,0.07500684261322021
1772614524834602800,3.667602783203125,0.0411560982465744,-0.01763337105512619,0.08164450526237488
1772614524844669700,3.677669677734375,0.04804092273116112,-0.020036768168210983,0.07412007451057434
1772614524854737000,3.68773681640625,0.05246070399880409,-0.015054792165756226,0.05023444816470146
1772614524864803800,3.697803955078125,0.05250926315784454,-0.00853559747338295,0.02476147934794426
1772614524874871000,3.70787109375,0.048129696398973465,-0.005116365384310484,-0.0035146342124789953
1772614524884938000,3.71793798828125,0.030994152650237083,-0.007127534598112106,-0.024628009647130966
1772614524895005000,3.7280048828125,0.012487049214541912,-0.003084057243540883,-0.02987763285636902
1772614524905071900,3.73807177734375,0.004201458767056465,-0.0007609319873154163,-0.02869262360036373
1772614524915139000,3.74813916015625,-0.007486356422305107,0.008769189938902855,-0.013185570016503334
1772614524925206000,3.7582060546875,-0.016735879704356194,0.008669624105095863,0.008078103885054588
1772614524935273000,3.76827294921875,-0.0110921086743474,-0.001055174507200718,0.026366829872131348
1772614524945340000,3.77833984375,-0.0008288409444503486,-0.014310631901025772,0.036668408662080765
1772614524955406800,3.78840673828125,0.00808369368314743,-0.024264728650450706,0.049662504345178604
1772614524965473800,3.798473876953125,0.014148266986012459,-0.02366621047258377,0.05003567412495613
1772614524975541000,3.808541015625,0.011198017746210098,-0.012846319936215878,0.0468265637755394
1772614524985608000,3.81860791015625,0.0011257738806307316,-0.001406216062605381,0.03703818470239639
1772614524995675000,3.8286748046875,-0.012343163602054119,0.0034380739089101553,0.023588156327605247
1772614525005741800,3.838741943359375,-0.012268729507923126,0.00578989926725626,0.008949323557317257
1772614525015808800,3.848808837890625,-0.013016810640692711,0.009058929048478603,-0.0018894750392064452
1772614525025875700,3.858875732421875,-0.01754157990217209,0.005367899313569069,-0.0023586873430758715
1772614525035943000,3.86894287109375,-0.021727271378040314,0.0013952619628980756,0.005742914974689484
1772614525046010000,3.879010009765625,-0.01337166503071785,-0.008094027638435364,0.017865454778075218
1772614525056077000,3.8890771484375,-0.0072309477254748344,-0.015259262174367905,0.024644531309604645
1772614525066144000,3.89914404296875,0.00009708967991173267,-0.020700348541140556,0.033720552921295166
1772614525076211000,3.9092109375,0.0068625835701823235,-0.022062288597226143,0.030232874676585197
1772614525086278000,3.91927783203125,0.009173544123768806,-0.02129635028541088,0.026276716962456703
1772614525096344800,3.9293447265625,0.005724484100937843,-0.020971711724996567,0.015248035080730915
1772614525106412000,3.939412109375,0.0032294050324708223,-0.024156268686056137,0.004930583294481039
1772614525116478200,3.949478271484375,-0.01042515505105257,-0.03532743081450462,-0.005568396765738726
1772614525126545200,3.959545166015625,-0.020738743245601654,-0.03892184793949127,-0.016318878158926964
1772614525136612000,3.969612060546875,-0.013860063627362251,-0.02826654352247715,-0.01833941787481308
1772614525146679000,3.979678955078125,-0.007472825702279806,-0.015062633901834488,-0.020586496219038963
1772614525156746500,3.98974658203125,0.0024242796935141087,-0.007907518185675144,-0.012222306802868843
1772614525166813400,3.9998134765625,0.015537578612565994,-0.007368086371570826,-0.0028176496271044016
1772614525176880400,4.00988037109375,0.025830164551734924,-0.014377793297171593,0.006993702147156
1772614525186947300,4.019947265625,0.03318093344569206,-0.015836158767342567,0.017640257254242897
1772614525197014300,4.03001416015625,0.04302823916077614,-0.009795576333999634,0.024740511551499367
1772614525207081200,4.040081298828125,0.04778490960597992,-0.00595319177955389,0.021802039816975594
1772614525217148400,4.0501484375,0.04099864140152931,-0.004295108374208212,0.013588317669928074
1772614525227215400,4.06021533203125,0.030211085453629494,-0.001074664993211627,0.008379939943552017
1772614525237282300,4.0702822265625,0.022804835811257362,-0.004249152727425098,-0.0019206340657547116
1772614525247349200,4.080349365234375,0.025388946756720543,-0.0017668516375124454,-0.0066428836435079575
1772614525257416200,4.090416259765625,0.02759777195751667,0.007681244984269142,-0.014283493161201477
1772614525267483100,4.100483154296875,0.025031190365552902,0.010033677332103252,-0.010499540716409683
1772614525277550300,4.11055029296875,0.010471689514815807,0.012614279985427856,-0.006258456502109766
1772614525287617300,4.1206171875,0.00645097903907299,0.008360400795936584,0.002983544487506151
1772614525297684200,4.130684326171875,0.00765446200966835,0.007501797750592232,0.019640818238258362
1772614525307751200,4.140751220703125,0.009985608980059624,0.01144409365952015,0.03062259778380394
1772614525317818000,4.150818115234375,0.013446120545268059,0.012965823523700237,0.037092480808496475
1772614525327885300,4.16088525390625,0.011013166978955269,0.0035391810815781355,0.04155191034078598
1772614525337952300,4.1709521484375,0.004915326833724976,0.00022061611525714397,0.04149838164448738
1772614525348019500,4.18101953125,0.0074212877079844475,0.004871727898716927,0.047304537147283554
1772614525358086400,4.19108642578125,0.01571037620306015,0.004675719421356916,0.045870158821344376
1772614525368153300,4.2011533203125,0.02315780334174633,-0.0056960852816700935,0.050002288073301315
1772614525378220300,4.21122021484375,0.02273009903728962,-0.010496965609490871,0.051015887409448624
1772614525388287200,4.221287353515625,0.01678304187953472,-0.010605653747916222,0.0539342425763607
1772614525398354200,4.231354248046875,0.009516872465610504,-0.010259177535772324,0.04731708765029907
1772614525408421400,4.24142138671875,-0.004688548855483532,-0.01446890365332365,0.03265651687979698
1772614525418488300,4.25148828125,-0.009932579472661018,-0.008708219975233078,0.022323187440633774
1772614525428555300,4.26155517578125,-0.002276632934808731,0.0005924555007368326,0.005963155534118414
1772614525438622200,4.271622314453125,-0.0034353742375969887,0.000009223120287060738,-0.0114611079916358
1772614525448689200,4.281689208984375,-0.011320764198899269,-0.002561842557042837,-0.016809169203042984
1772614525458756000,4.291756103515625,-0.015608720481395721,0.0005689698737114668,-0.01768774539232254
1772614525468823300,4.3018232421875,-0.011008154600858688,0.005742885172367096,-0.016989290714263916
1772614525478890200,4.31189013671875,-0.006021386012434959,0.006152745336294174,-0.013574586249887943
1772614525488957200,4.321957275390625,-0.0005465231370180845,0.0025858995504677296,-0.010835133492946625
1772614525499024400,4.3320244140625,0.009579348377883434,0.002218649722635746,-0.001083702314645052
1772614525509091300,4.34209130859375,0.013656610623002052,0.004909191746264696,0.001139338011853397
1772614525519158300,4.352158203125,0.013549817726016045,0.004441540688276291,0.005817979574203491
1772614525529225500,4.3622255859375,0.013778802938759327,-0.00023866770789027214,0.005914852488785982
1772614525539292400,4.37229248046875,0.007892684079706669,-0.0057625966146588326,-0.0022365509066730738
1772614525549359400,4.382359375,0.003250407287850976,-0.006476391106843948,-0.0064729731529951096
1772614525559426300,4.39242626953125,-0.002821067115291953,-0.006945108063519001,-0.016415884718298912
1772614525569493200,4.4024931640625,0.0021329564042389393,-0.008780106902122498,-0.017218397930264473
1772614525579560200,4.412560302734375,0.012264952063560486,-0.011801996268332005,-0.018803777173161507
1772614525589627400,4.42262744140625,0.021213779225945473,-0.018203603103756905,-0.013417466543614864
1772614525599694300,4.4326943359375,0.020216424018144608,-0.01726404018700123,-0.0048649911768734455
1772614525609761300,4.44276123046875,0.02204090915620327,-0.02128884568810463,0.0013470336562022567
1772614525619828200,4.452828125,0.022356228902935982,-0.024150941520929337,0.01602105051279068
1772614525629895200,4.462895263671875,0.019482871517539024,-0.027884794399142265,0.02145330049097538
1772614525639962000,4.472962158203125,0.01770174875855446,-0.03367024287581444,0.02217528223991394
1772614525650029000,4.483029052734375,0.0062766303308308125,-0.03097098134458065,0.017453201115131378
1772614525660096300,4.49309619140625,-0.00176451844163239,-0.029556578025221825,0.004475615918636322
1772614525670163500,4.50316357421875,-0.006700458005070686,-0.02969963848590851,-0.003330808598548174
1772614525680230400,4.51323046875,-0.01150586549192667,-0.02995796874165535,-0.012870783917605877
1772614525690297300,4.52329736328125,-0.0129257682710886,-0.025614945217967033,-0.012044806964695454
1772614525700364300,4.5333642578125,-0.0075363293290138245,-0.021539509296417236,-0.014686396345496178
1772614525710431200,4.54343115234375,0.005605168174952269,-0.022357111796736717,-0.016978543251752853
1772614525720498400,4.55349853515625,0.02338416501879692,-0.025179263204336166,-0.011521992273628712
1772614525730565400,4.5635654296875,0.035005636513233185,-0.0348777212202549,-0.0035085089039057493
1772614525740632300,4.57363232421875,0.03237017244100571,-0.04584621638059616,0.009722075425088406
1772614525750698200,4.5836982421875,0.02766955830156803,-0.053209338337183,0.014399150386452675
1772614525760766200,4.59376611328125,0.010340902023017406,-0.04977679252624512,0.016609840095043182
1772614525770832400,4.603832275390625,-0.010470976121723652,-0.04407479241490364,0.010004602372646332
1772614525780899300,4.6138994140625,-0.02113187499344349,-0.027514725923538208,-0.0029000111389905214
1772614525790967300,4.62396728515625,-0.022480232641100883,-0.012247332371771336,-0.01933283917605877
1772614525801033200,4.634033203125,-0.017834879457950592,-0.00806483719497919,-0.030323440209031105
1772614525811100200,4.64410009765625,-0.0034772027283906937,-0.011287317611277103,-0.03382563591003418
1772614525821167000,4.6541669921875,0.010088673792779446,-0.01599738374352455,-0.020057890564203262
1772614525831234300,4.664234375,0.024269912391901016,-0.021780909970402718,-0.0002963055158033967
1772614525841301200,4.67430126953125,0.029674533754587173,-0.03407352790236473,0.02354644238948822
1772614525851368200,4.6843681640625,0.023599814623594284,-0.033786144107580185,0.043874818831682205
1772614525861435100,4.69443505859375,0.010067228227853775,-0.04405502602458,0.06980229169130325
1772614525871502000,4.704502197265625,0.00418658135458827,-0.051713280379772186,0.08641708642244339
1772614525881569300,4.7145693359375,0.0033018793910741806,-0.05774401128292084,0.09725002944469452
1772614525891636500,4.724636474609375,0.009138410910964012,-0.05285896360874176,0.0931713879108429
1772614525901703400,4.734703369140625,0.01575024239718914,-0.0404832549393177,0.07263202965259552
1772614525911770400,4.744770263671875,0.025495620444417,-0.02775484323501587,0.048512645065784454
1772614525921837300,4.75483740234375,0.025880979374051094,-0.0073094903491437435,0.024997200816869736
1772614525931904300,4.764904296875,0.025014230981469154,0.00793192908167839,0.0024796072393655777
1772614525941971200,4.77497119140625,0.022770516574382782,0.011465943418443203,-0.019327420741319656
1772614525952038400,4.785038330078125,0.014130470342934132,0.01309017464518547,-0.031427957117557526
1772614525962105300,4.795105224609375,0.009685122407972813,0.008773723617196083,-0.03394651040434837
1772614525972172300,4.80517236328125,0.013464114628732204,0.009581169113516808,-0.026932772248983383
1772614525982239200,4.8152392578125,0.0198983121663332,0.01748276688158512,-0.014887293800711632
1772614525992306200,4.82530615234375,0.019784554839134216,0.01772051304578781,-0.0004301617154851556
1772614526002373000,4.835373046875,0.013140233233571053,0.013907399028539658,0.019900677725672722
1772614526012440300,4.8454404296875,0.015267731621861458,0.014718901365995407,0.03254450485110283
1772614526022507300,4.85550732421875,0.01049614604562521,0.01281287707388401,0.03404625877737999
1772614526032574200,4.86557421875,0.004281724337488413,0.014664753340184689,0.030448494479060173
1772614526042641200,4.87564111328125,0.0026697125285863876,0.012275631539523602,0.0171984676271677
1772614526052708400,4.885708251953125,0.0007449074182659388,0.009202597662806511,0.006832152605056763
1772614526062775300,4.895775390625,0.0038573439233005047,0.0031489660032093525,0.006133338436484337
1772614526072842200,4.90584228515625,0.0028097019530832767,0.006850834004580975,0.0005306728417053819
1772614526082909400,4.915909423828125,-0.0013565472327172756,0.014445103704929352,-0.0006730759050697088
1772614526092976400,4.925976318359375,-0.004974186420440674,0.00896421354264021,-0.002804158255457878
1772614526103043300,4.936043212890625,0.0026421877555549145,0.009221474640071392,-0.006661480758339167
1772614526113111000,4.946111083984375,0.005753367207944393,0.009605707600712776,-0.002605398651212454
1772614526123178000,4.956177978515625,0.006460702046751976,0.008548432029783726,0.00021755194757133722
1772614526133245000,4.966244873046875,0.0021480731666088104,0.0019447959493845701,0.010326512157917023
1772614526143312000,4.976311767578125,0.003558749333024025,-0.001345805823802948,0.01807844080030918
1772614526153379000,4.986379150390625,0.006730177905410528,-0.007487042807042599,0.021381260827183723
1772614526163446000,4.996446044921875,0.0003764081047847867,-0.0026741777546703815,0.02587268128991127
1772614526173513000,5.006512939453125,-0.0008710792753845453,-0.0009467652998864651,0.021437551826238632
1772614526183580000,5.016579833984375,-0.004006685223430395,0.005796625278890133,0.016580212861299515
1772614526193646800,5.026646728515625,-0.006642630323767662,0.01141668763011694,0.012181205675005913
1772614526203713800,5.0367138671875,-0.008642930537462234,0.02102404087781906,0.010120186023414135
1772614526213781000,5.046781005859375,-0.01013158354908228,0.017747603356838226,0.010307088494300842
1772614526223848000,5.056847900390625,-0.016218770295381546,0.013723567128181458,0.015263230539858341
1772614526233915000,5.066914794921875,-0.02294609509408474,0.009394722990691662,0.02361755073070526
1772614526243981800,5.07698193359375,-0.029297200962901115,0.011285301297903061,0.024191461503505707
1772614526254048800,5.087048828125,-0.024147938936948776,0.01173438411206007,0.012671263888478279
1772614526264116000,5.097115966796875,-0.01421408262103796,0.024475213140249252,-0.00003281317185610533
1772614526274183000,5.107182861328125,-0.007299015298485756,0.03712979331612587,-0.010852242819964886
1772614526284250000,5.11725,-0.004200427792966366,0.0394723080098629,-0.013798764906823635
1772614526294317000,5.127317138671875,-0.0036083324812352657,0.03271080553531647,-0.0010227411985397339
1772614526304384000,5.137384033203125,-0.000714541703928262,0.028729110956192017,0.015405233949422836
1772614526314451000,5.147450927734375,-0.0010629832977429032,0.02608313597738743,0.026195522397756577
1772614526324518000,5.157517822265625,-0.011092182248830795,0.020705148577690125,0.03650195524096489
1772614526334584800,5.167584716796875,-0.01713446155190468,0.022602155804634094,0.03612079471349716
1772614526344652000,5.177652099609375,-0.009599314071238041,0.018976794555783272,0.025677740573883057
1772614526354719000,5.187718994140625,-0.00019407738000154495,0.020713118836283684,0.017247866839170456
1772614526364786000,5.197785888671875,0.012048207223415375,0.022180521860718727,0.011710889637470245
1772614526374852900,5.207852783203125,0.01397671177983284,0.0239399541169405,0.01612185128033161
1772614526384919800,5.217919921875,0.009266112931072712,0.022488798946142197,0.02550363540649414
1772614526394986800,5.22798681640625,0.010822281241416931,0.013570423237979412,0.02751588448882103
1772614526405054000,5.238053955078125,0.0098861800506711,0.005368952639400959,0.029644815251231194
1772614526415121000,5.248120849609375,0.0021923549938946962,0.004645606968551874,0.028148718178272247
1772614526425187800,5.258187744140625,-0.006885029375553131,0.005849089473485947,0.03785727173089981
1772614526435255000,5.268255126953125,-0.006959087215363979,0.009400309063494205,0.044954266399145126
1772614526445322000,5.278322021484375,-0.007029927335679531,0.0187301617115736,0.050065670162439346
1772614526455389000,5.288388916015625,-0.0050237830728292465,0.023777972906827927,0.045411162078380585
1772614526465456000,5.2984560546875,0.0016503650695085526,0.02649626135826111,0.043610863387584686
1772614526475523000,5.308523193359375,0.013476783409714699,0.015541416592895985,0.03830678388476372
1772614526485589000,5.318589111328125,0.021812478080391884,0.00450128223747015,0.028655752539634705
1772614526495656000,5.328656005859375,0.025247110053896904,-0.002324901521205902,0.020961545407772064
1772614526505723000,5.338722900390625,0.019191348925232887,0.0008474558126181364,0.015132418833673
1772614526515790000,5.3487900390625,0.009906742721796036,0.004079870879650116,0.013250098563730717
1772614526525857000,5.35885693359375,0.010934722609817982,0.0022457516752183437,0.01902329921722412
1772614526535924000,5.368924072265625,0.008738577365875244,0.0015722759999334812,0.022697603330016136
1772614526545991000,5.378990966796875,0.007673046551644802,0.010131675750017166,0.021438194438815117
1772614526556057900,5.389057861328125,0.006045765243470669,0.014302779920399189,0.0197307001799345
1772614526566124800,5.399124755859375,0.006844180636107922,0.0046616047620773315,0.015793481841683388
1772614526576192000,5.40919189453125,0.012691086158156395,-0.004682010039687157,0.014186371117830276
1772614526586259000,5.419259033203125,0.009212997741997242,-0.004608239978551865,0.012709914706647396
1772614526596326000,5.429325927734375,0.00828707218170166,0.000820341520011425,0.01079509500414133
1772614526606392800,5.439392822265625,0.014938583597540855,0.00148906116373837,0.009045664221048355
1772614526616459800,5.449459716796875,0.018986504524946213,-0.001322190510109067,0.003959858790040016
1772614526626526700,5.459526611328125,0.01999557577073574,0.003987353760749102,0.010049176402390003
1772614526636594200,5.46959423828125,0.01216163206845522,0.011986344121396542,0.013684824109077454
1772614526646661000,5.4796611328125,0.015674341470003128,0.008791083469986916,0.012453112751245499
1772614526656728000,5.48972802734375,0.01536510232836008,0.00648907758295536,0.014893033541738987
1772614526666795000,5.499794921875,0.012442282401025295,-0.002203213283792138,0.011695376597344875
1772614526676862000,5.509862060546875,0.00001880235504359007,-0.010589737445116043,0.0072787245735526085
1772614526686929000,5.519928955078125,-0.016783880069851875,-0.013968223705887794,0.010227909311652184
1772614526696996000,5.52999609375,-0.023053575307130814,-0.003177621169015765,0.007656865753233433
1772614526707063000,5.54006298828125,-0.016427095979452133,0.0036917366087436676,0.010143459774553776
1772614526717130000,5.5501298828125,-0.011404570192098618,-0.0002491343766450882,0.018948262557387352
1772614526727197000,5.560197021484375,-0.005798616446554661,0.0002515397500246763,0.020634308457374573
1772614526737263900,5.570263916015625,0.0010289850179105997,-0.003101757727563381,0.017527170479297638
1772614526747330800,5.580330810546875,0.0076698437333106995,-0.008561237715184689,0.009808531031012535
1772614526757398000,5.59039794921875,0.00328155979514122,-0.01160433329641819,0.00318424915894866
1772614526767465000,5.60046484375,-0.0009336911607533693,-0.007713987026363611,-0.0012200865894556046
1772614526777532000,5.610531982421875,0.0026411800645291805,-0.0074469903483986855,0.009928404353559017
1772614526787598800,5.620598876953125,0.0004246312892064452,-0.008015841245651245,0.015226230956614017
1772614526797665800,5.630665771484375,-0.00484168715775013,-0.008454179391264915,0.01584644988179207
1772614526807733000,5.64073291015625,-0.004306924529373646,-0.0067444294691085815,0.01519663818180561
1772614526817800000,5.650800048828125,-0.006753616500645876,-0.006047981791198254,0.013260982930660248
1772614526827867100,5.6608671875,-0.010756613686680794,-0.004637039266526699,0.008509637787938118
1772614526837934000,5.67093408203125,-0.010124169290065765,-0.003366866149008274,0.011501199565827847
1772614526848001000,5.6810009765625,0.0023008082062005997,-0.0011058421805500984,0.010270819067955017
1772614526858068000,5.69106787109375,0.009747575968503952,0.0070219081826508045,0.013644677586853504
1772614526868135000,5.701135009765625,0.015306392684578896,0.0024439343251287937,0.022157737985253334
1772614526878201900,5.711201904296875,0.012292732484638691,-0.006223720032721758,0.030627388507127762
1772614526888269000,5.72126904296875,0.01259207259863615,-0.01699460856616497,0.03223353996872902
1772614526898336800,5.731336669921875,0.017181074246764183,-0.02198469266295433,0.03342260792851448
1772614526908404000,5.741404052734375,0.02005036547780037,-0.02523934096097946,0.03156904876232147
1772614526918471000,5.751470947265625,0.01565614901483059,-0.020498380064964294,0.025147102773189545
1772614526928537900,5.761537841796875,0.009430477395653725,-0.015811216086149216,0.02096540667116642
1772614526938604800,5.771604736328125,0.005665199365466833,-0.016970986500382423,0.017382590100169182
1772614526948672000,5.781672119140625,0.0016571421874687076,-0.018924415111541748,0.01586006209254265
1772614526958739000,5.791739013671875,0.00035155657678842545,-0.01689973846077919,0.01994132250547409
1772614526968806100,5.80180615234375,0.0034871625248342752,-0.017230501398444176,0.024406911805272102
1772614526978873000,5.811873046875,-0.00015805207658559084,-0.019924061372876167,0.02676711417734623
1772614526988940000,5.82193994140625,0.0025996509939432144,-0.02469564601778984,0.024025123566389084
1772614526999007000,5.832007080078125,0.0055269901640713215,-0.02107313461601734,0.01899717003107071
1772614527009074000,5.842073974609375,-0.004430036526173353,-0.017718084156513214,0.012533677741885185
1772614527019140900,5.852140869140625,-0.013638090342283249,-0.012544318102300167,0.003982695285230875
1772614527029208000,5.8622080078125,-0.02019798941910267,-0.015704423189163208,-0.00864175334572792
1772614527039275000,5.87227490234375,-0.022770263254642487,-0.01660740189254284,-0.012313652783632278
1772614527049342000,5.882342041015625,-0.02646220289170742,-0.014812699519097805,-0.0158814899623394
1772614527059409000,5.892408935546875,-0.022982966154813766,-0.010057073086500168,-0.012928877025842667
1772614527069475800,5.902475830078125,-0.014718111604452133,-0.0072418455965816975,-0.008120805956423283
1772614527079542800,5.912542724609375,-0.005845883395522833,-0.012931733392179012,0.0020107654854655266
1772614527089610000,5.92260986328125,0.0005446376744657755,-0.01570728048682213,0.007257725112140179
1772614527099677000,5.932677001953125,0.0002402671379968524,-0.023951763287186623,0.013586189597845078
1772614527109743900,5.942743896484375,-0.006397661752998829,-0.02707378752529621,0.018455246463418007
1772614527119810300,5.952810302734375,-0.011264207772910595,-0.029853686690330505,0.02028740383684635
1772614527129877200,5.962877197265625,-0.012377675622701645,-0.022871145978569984,0.014964808709919453
1772614527139944200,5.972944091796875,-0.010766458697617054,-0.01690656878054142,0.006503115873783827
1772614527150011400,5.983011474609375,0.0004289377247914672,-0.011542430147528648,-0.004442210309207439
1772614527160078300,5.993078369140625,0.01331457681953907,-0.009510617703199387,-0.0121175991371274
1772614527170145300,6.003145263671875,0.014079436659812927,-0.0068384017795324326,-0.010094662196934223
1772614527180212200,6.013212158203125,0.005644390359520912,-0.0002469171304255724,-0.003957218024879694
1772614527190279200,6.023279052734375,-0.0012172441929578781,0.0044290609657764435,0.006121515762060881
1772614527200346000,6.03334619140625,-0.002351264236494899,0.004408851731568575,0.01459882128983736
1772614527210413300,6.043413330078125,-0.006054122932255268,0.009829983115196228,0.019002623856067657
1772614527220480300,6.053480224609375,-0.001492156065069139,0.014183055609464645,0.015027858316898346
1772614527230547500,6.06354736328125,0.013733402825891972,0.013240562751889229,0.0081944540143013
1772614527240614400,6.073614501953125,0.03318430110812187,0.003507378278300166,-0.0019194275373592973
1772614527250681300,6.083681396484375,0.0435091108083725,-0.004589163698256016,-0.005803115665912628
1772614527260748300,6.093748291015625,0.04799281805753708,-0.008882155641913414,0.0004131606547161937
1772614527270815500,6.1038154296875,0.039012640714645386,-0.011804974637925625,0.007116337306797504
1772614527280882400,6.11388232421875,0.0226445235311985,-0.008112149313092232,0.0124875009059906
1772614527290949400,6.123949462890625,0.015101385302841663,0.0020065319258719683,0.01486144308000803
1772614527301016300,6.134016357421875,0.011590833775699139,0.01598373055458069,0.007890351116657257
1772614527311083300,6.144083251953125,0.014674507081508636,0.015988789498806,-0.005064329132437706
1772614527321150200,6.154150146484375,0.014806129038333893,0.02078239433467388,-0.01754533126950264
1772614527331217400,6.164217529296875,0.011352009139955044,0.020523801445961,-0.021975234150886536
1772614527341284400,6.174284423828125,0.011951847933232784,0.020364215597510338,-0.019236041232943535
1772614527351351300,6.184351318359375,0.020783688873052597,0.021191660314798355,-0.01222447119653225
1772614527361418200,6.194418212890625,0.022313058376312256,0.025397304445505142,0.0029843426309525967
1772614527371485200,6.204485107421875,0.02071969024837017,0.027683628723025322,0.011458521708846092
1772614527381552000,6.21455224609375,0.023833751678466797,0.022163452580571175,0.015477737411856651
1772614527391619300,6.224619384765625,0.02318873442709446,0.01660783216357231,0.017126500606536865
1772614527401686500,6.2346865234375,0.008777929469943047,0.017767682671546936,0.006139789242297411
1772614527411753500,6.24475341796875,-0.006076117977499962,0.016555411741137505,-0.005426052957773209
1772614527421820400,6.2548203125,-0.01250262837857008,0.015051741153001785,-0.020438458770513535
1772614527431887400,6.264887451171875,-0.007304936647415161,0.019086165353655815,-0.03460408002138138
1772614527441954300,6.274954345703125,-0.0037349145859479904,0.024639543145895004,-0.03780309855937958
1772614527452021200,6.285021240234375,0.002879844978451729,0.022725261747837067,-0.031349457800388336
1772614527462088400,6.29508837890625,0.009390594437718391,0.01467486098408699,-0.01671525277197361
1772614527472155400,6.3051552734375,0.0173899307847023,0.005137548316270113,0.0038709836080670357
1772614527482222300,6.315222412109375,0.010767357423901558,-0.01122831366956234,0.023168375715613365
1772614527492289300,6.325289306640625,-0.005827066022902727,-0.024142246693372726,0.03891937434673309
1772614527502356200,6.335356201171875,-0.01417564507573843,-0.02888317033648491,0.03469713777303696
1772614527512423200,6.345423095703125,-0.015407090075314045,-0.017500819638371468,0.019231628626585007
1772614527522490400,6.355490478515625,-0.012454085052013397,-0.003486157162114978,-0.007424322422593832
1772614527532557300,6.365557373046875,-0.0024848084431141615,0.0004662398714572191,-0.027374859899282455
1772614527542624300,6.375624267578125,-0.001441262080334127,-0.0007251901552081108,-0.038350678980350494
1772614527552691200,6.385691162109375,-0.006123898550868034,-0.007559394463896751,-0.030879715457558632
1772614527562758100,6.395758056640625,-0.010103626176714897,-0.014360078610479832,-0.016357962042093277
1772614527572825300,6.405825439453125,-0.017014529556035995,-0.02015964686870575,0.006410200614482164
1772614527582892500,6.415892578125,-0.01745593547821045,-0.020147569477558136,0.021227071061730385
1772614527592959500,6.42595947265625,-0.010984985157847404,-0.013379144482314587,0.026387210935354233
1772614527603026400,6.4360263671875,-0.002860644133761525,-0.008940757252275944,0.023068705573678017
1772614527613093400,6.44609326171875,0.0005628493381664157,-0.004098596982657909,0.009531060233712196
1772614527623160300,6.456160400390625,0.0005266210064291954,-0.007247439119964838,0.0027416953817009926
1772614527633227300,6.466227294921875,0.005574376322329044,-0.01121954433619976,-0.007538639008998871
1772614527643294200,6.476294189453125,0.003093583742156625,-0.011466306634247303,-0.00726562924683094
1772614527653361400,6.486361328125,0.0005004636477679014,-0.014805112965404987,-0.007398521061986685
1772614527663428400,6.496428466796875,-0.007236734498292208,-0.013899724930524826,-0.0059945606626570225
1772614527673495300,6.506495361328125,-0.010626139119267464,-0.012701567262411118,-0.011161626316606998
1772614527683562200,6.516562255859375,-0.00822795182466507,-0.004804471507668495,-0.010007754899561405
1772614527693629200,6.526629150390625,0.00020414870232343674,0.008494822308421135,-0.011938813142478466
1772614527703696100,6.536696044921875,0.0013809888623654842,0.013667293824255466,-0.009904058650135994
1772614527713763300,6.546763427734375,0.004530176520347595,0.01366116851568222,-0.0007712796796113253
1772614527723830300,6.556830322265625,0.007919839583337307,0.011679752729833126,0.0069058858789503574
1772614527733897200,6.566897216796875,0.00893024355173111,0.007987279444932938,0.01738489232957363
1772614527743964400,6.57696435546875,0.0101729491725564,0.0035550794564187527,0.02193576656281948
1772614527754031400,6.58703125,0.00935562513768673,0.0051849340088665485,0.0163913331925869
1772614527764098300,6.597098388671875,0.007264673709869385,0.011614108458161354,0.004662445280700922
1772614527774165500,6.60716552734375,0.0008275466971099377,0.01996658183634281,-0.008920208550989628
1772614527784232400,6.617232421875,-0.002237980952486396,0.021968794986605644,-0.021872326731681824
1772614527794299400,6.62729931640625,-0.000780699192546308,0.021802613511681557,-0.024877171963453293
1772614527804366300,6.637366455078125,0.0010123710380867124,0.021104121580719948,-0.017708618193864822
1772614527814433300,6.647433349609375,0.009379757568240166,0.01997893676161766,-0.006690055597573519
1772614527824500200,6.657500244140625,0.017075540497899055,0.011735357344150543,0.0011407694546505809
1772614527834567400,6.6675673828125,0.01777462102472782,0.00500581506639719,0.00888391025364399
1772614527844634400,6.67763427734375,0.006431951187551022,-0.007763509638607502,0.003186609596014023
1772614527854701300,6.687701416015625,-0.006838314235210419,-0.011426154524087906,-0.00988445058465004
1772614527864768300,6.697768310546875,-0.022227836772799492,-0.009905713610351086,-0.02920551411807537
1772614527874835200,6.707835205078125,-0.026219116523861885,-0.006573299877345562,-0.03701150417327881
1772614527884902100,6.717902099609375,-0.021763000637292862,-0.0013252310454845428,-0.04241619259119034
1772614527894969300,6.72796923828125,-0.012112235650420189,0.0019525876268744469,-0.03286902606487274
1772614527905036300,6.738036376953125,-0.0012960205785930157,0.004080180544406176,-0.020013418048620224
1772614527915103500,6.748103515625,0.005508888512849808,0.009371615946292877,-0.008060884661972523
1772614527925170400,6.75817041015625,0.0146228251978755,0.008198566734790802,0.003958897199481726
1772614527935237400,6.7682373046875,0.01011089701205492,0.017169691622257233,0.00785616785287857
1772614527945304300,6.77830419921875,0.0038590342737734318,0.015517529100179672,0.011355423368513584
1772614527955371300,6.788371337890625,-0.0059054456651210785,0.015257338061928749,0.0004441862693056464
1772614527965438500,6.7984384765625,-0.018196752294898033,0.013254430145025253,0.0009245268302038312
1772614527975505400,6.80850537109375,-0.01776079274713993,0.014411574229598045,0.005361619405448437
1772614527985572400,6.818572265625,-0.002476709196344018,0.018091987818479538,0.0021568983793258667
1772614527995639300,6.828639404296875,0.01613958552479744,0.023930968716740608,0.002115619368851185
1772614528005706200,6.838706298828125,0.03132788836956024,0.025531819090247154,0.002493229229003191
1772614528015773200,6.848773193359375,0.03072308376431465,0.025284411385655403,0.005455196835100651
1772614528025840400,6.85884033203125,0.009981933981180191,0.021495122462511063,0.01382816955447197
1772614528035907300,6.8689072265625,-0.009184570051729679,0.017134463414549828,0.017891619354486465
1772614528045974300,6.878974365234375,-0.01545382384210825,0.02049131505191326,0.023467347025871277
1772614528056041200,6.889041259765625,-0.012487861327826977,0.02168814092874527,0.011652766726911068
1772614528066108200,6.899108154296875,-0.000578407954890281,0.02533285692334175,0.008894696831703186
1772614528076175000,6.909175048828125,0.001756651676259935,0.024397021159529686,0.004483702592551708
1772614528086242300,6.9192421875,0.003022791352123022,0.02995407208800316,0.0013196679065003991
1772614528096309500,6.9293095703125,0.006015917751938105,0.026620062068104744,-0.0035906685516238213
1772614528106376400,6.93937646484375,0.00476742722094059,0.026907844468951225,-0.005116149317473173
1772614528116444200,6.949444091796875,-0.005122753791511059,0.018060822039842606,-0.0049734036438167095
1772614528126511000,6.959510986328125,-0.012434707954525948,0.0056714750826358795,-0.0027762062381953
1772614528136578000,6.969578125,-0.009266878478229046,-0.0023393130395561457,-0.00673899007961154
1772614528146645200,6.979645263671875,-0.0014147772453725338,0.004461650736629963,-0.012555433437228203
1772614528156712200,6.989712158203125,0.005598923657089472,0.00026797084137797356,0.005055517889559269
1772614528166779400,6.999779296875,0.009773565456271172,-0.02697508968412876,0.051360663026571274
1772614528176846300,7.009846435546875,0.015736382454633713,-0.014245712198317051,0.03176086023449898
1772614528186913300,7.019913330078125,0.018161876127123833,0.013635998591780663,-0.009082688950002193
1772614528196980200,7.029980224609375,0.00680669117718935,0.012042895890772343,-0.053971067070961
1772614528207047200,7.040047119140625,-0.006764838472008705,-0.005812341347336769,-0.06211676076054573
1772614528217114000,7.050114013671875,-0.017539720982313156,-0.021319927647709846,-0.04563525319099426
1772614528227181300,7.060181396484375,-0.013418139889836311,-0.021304648369550705,-0.019607052206993103
1772614528237248300,7.070248291015625,0.00015146448276937008,-0.012708231806755066,0.0026985201984643936
