time,seconds_elapsed,z,y,x
1772615929613050000,0.069050048828125,0.11904197448790073,-0.05408873306214809,0.43756658381335434
1772615929623118000,0.0791181640625,0.17399813803434372,-0.040675124737620354,0.6029858402032405
1772615929633186300,0.089186279296875,0.23582594091594217,-0.03353051367998123,0.7036915091421455
1772615929643254300,0.099254150390625,0.2414057868748903,0.0032417584002017974,0.7257449355181306
1772615929653322200,0.109322265625,0.21636077746748922,0.013514146089553833,0.7616522613320499
1772615929663390200,0.11939013671875,0.14957213730812072,-0.026812603601813315,0.7083788632407784
1772615929673458400,0.12945849609375,0.04665361462533474,-0.020056699600815773,0.5789538072306663
1772615929683526400,0.1395263671875,-0.010879705932736397,-0.0372527490735054,0.5430912338739261
1772615929693594000,0.149593994140625,-0.03488368185460567,-0.21762451379299164,0.5928629074545577
1772615929703662000,0.159662109375,-0.00028700024783611294,-0.24573475598990915,0.6395033338047563
1772615929713731300,0.1697314453125,0.02609597976505756,-0.22911679866611956,0.7764157498955726
1772615929723799300,0.17979931640625,0.05088555310666561,-0.2247714629381895,0.9782754891280084
1772615929733867300,0.1898671875,0.08907412172555923,-0.17650222980976105,1.1552215902477503
1772615929743935200,0.199935302734375,0.11170213311910629,-0.16395371388196944,1.218682839550078
1772615929754003200,0.210003173828125,0.14404548284113405,-0.1508493176370859,1.2518122250832617
1772615929764071200,0.2200712890625,0.17322481557428837,-0.15907938584387302,1.2626159431703388
1772615929774139000,0.230138916015625,0.1674368798226118,-0.23083353945612906,1.2287611659720539
1772615929784206800,0.240206787109375,0.1506920812487602,-0.3238385708898306,1.1348816897913814
1772615929794275000,0.250275146484375,0.08207564114034176,-0.3993260658115148,0.969922598259151
1772615929804343000,0.260343017578125,-0.03769464762210846,-0.4374690417230129,0.838363818155974
1772615929814411000,0.270410888671875,-0.11585106949210167,-0.42114568343162534,0.7922430682983249
1772615929824479000,0.28047900390625,-0.11363748509585857,-0.36401217584609985,0.8622624340072274
1772615929834547000,0.290546875,-0.10061842904686927,-0.24579145461320875,0.992165921184048
1772615929844615000,0.300614990234375,-0.050260699206590646,-0.07260112583041191,1.1536198541395366
1772615929854684000,0.310683837890625,0.05428747050464153,0.07597323261201382,1.3229917936779558
1772615929864752000,0.320752197265625,0.15265081410109996,0.16606091529428957,1.4359671616032719
1772615929874820000,0.330820068359375,0.2411222937583923,0.24684710114598274,1.4787395508810877
1772615929884887800,0.3408876953125,0.3178191644698381,0.31926760971248147,1.4840420412033795
1772615929894955800,0.350955810546875,0.34299276869297024,0.35028175665736194,1.4611436884358524
1772615929905024000,0.36102392578125,0.3060077306449413,0.3808130885213613,1.391488991320878
1772615929915092000,0.371092041015625,0.2284703174561262,0.41856618833243847,1.3237838208384811
1772615929925160000,0.381159912109375,0.1383925716459751,0.44287762276828285,1.2659767979055643
1772615929935228000,0.391227783203125,0.023390227937698363,0.46830140236020085,1.1462849812068046
1772615929945296100,0.401296142578125,-0.04750175588726997,0.4621662606060505,1.0816716392599046
1772615929955364000,0.411364013671875,-0.0969265887916088,0.39572073479592795,0.9796963887766003
1772615929965431800,0.421431884765625,-0.1750666440486908,0.42034138131141663,0.8513046213369816
1772615929975499800,0.431499755859375,-0.2881412345647812,0.41563773366510864,0.7329981945820152
1772615929985568000,0.441568115234375,-0.42779052827358244,0.3997241252183914,0.6225026607736944
1772615929995636000,0.451635986328125,-0.5457365242183209,0.43962358940839763,0.5594049475541338
1772615930005705000,0.461705078125,-0.67597150837183,0.4759247368454933,0.5747639543253928
1772615930015773200,0.471773193359375,-0.7976923466801643,0.4328513187944889,0.6387657402452082
1772615930025841000,0.4818408203125,-0.863324218019843,0.3634042730808258,0.6176054633166641
1772615930035908900,0.491908935546875,-0.8444611121177673,0.32560382699668405,0.5754053209688514
1772615930045976800,0.501976806640625,-0.8164525767296552,0.1340443133085966,0.5414032807869836
1772615930056045000,0.512045166015625,-0.7133025833785533,-0.05038169523775577,0.5109554990205913
1772615930066113000,0.522113037109375,-0.4556389046639204,-0.2548158880680799,0.4904716965815052
1772615930076181000,0.532180908203125,-0.12163432906866073,-0.4480132320910692,0.41782713346816597
1772615930086249000,0.5422490234375,0.11729717664718627,-0.5572194567412138,0.22063231730684638
1772615930096317000,0.55231689453125,0.1668400829732418,-0.6888023483723401,-0.09189264974500984
1772615930106385000,0.562385009765625,0.04524725495874882,-0.9239519974619149,-0.5562431225223466
1772615930116452900,0.572452880859375,-0.0639484482973814,-0.9397644836217165,-0.9693059276655316
1772615930126520800,0.582520751953125,-0.16650807453989983,-0.9318126478344202,-1.1568149969190358
1772615930136589000,0.592589111328125,-0.2470493457198143,-0.8207832994103431,-1.1192270245417952
1772615930146657000,0.602656982421875,-0.2733516617119312,-0.6058844111889601,-0.9737273973695934
1772615930156725800,0.612725830078125,-0.2945113541185856,-0.40866497204303737,-0.7814812896568327
1772615930166794000,0.6227939453125,-0.31084055762887,-0.1873959642678499,-0.5345339064741507
1772615930176862000,0.632862060546875,-0.3135901485979557,0.0035229134291410442,-0.22901094540515912
1772615930186930000,0.642929931640625,-0.2832633993953466,0.09757365452349186,0.06752464455002918
1772615930196998000,0.652997802734375,-0.23825462936758993,0.09462474159002303,0.3140402304530144
1772615930207066000,0.663066162109375,-0.2339642386972904,0.023306056785583496,0.403192824242264
1772615930217134000,0.673134033203125,-0.26719255456030366,-0.021498715102672577,0.32329496553242204
1772615930227202000,0.6832021484375,-0.3813485105723142,-0.056363692256808276,0.13339459896190092
1772615930237269800,0.693269775390625,-0.5390227057933807,-0.09518763616979121,-0.11202634183848276
1772615930247338000,0.703337890625,-0.7225473815858364,-0.14089081820249558,-0.37089744184780865
1772615930257406000,0.713406005859375,-0.9500321951359509,-0.22521862218379973,-0.6671148326992988
1772615930267474000,0.723473876953125,-1.1262906793177128,-0.2851122421324253,-1.0330644063487648
1772615930277542000,0.7335419921875,-1.1539093386054038,-0.3121989865005016,-1.2911170843809843
1772615930287610000,0.743610107421875,-1.008466848447919,-0.34322950005829334,-1.5118873488537967
1772615930297678800,0.753678955078125,-0.7183113514512777,-0.2430576457351446,-1.6509833925940096
1772615930307746800,0.763746826171875,-0.3461445107221603,-0.06662555855214596,-1.6088897793605923
1772615930317815000,0.77381494140625,0.05619359638690948,0.11638356893360614,-1.3922723967835307
1772615930327883000,0.783883056640625,0.43128947630524633,0.2689373524010181,-1.1001252875782548
1772615930337951000,0.793950927734375,0.78968088966012,0.49099721829295156,-0.8187728363707661
1772615930348019000,0.80401904296875,1.0203419951587915,0.709211514672637,-0.6202359579507262
1772615930358087200,0.814087158203125,1.1284972494512795,0.9326742330998182,-0.4470887376572937
1772615930368155000,0.82415478515625,1.1550935799539088,1.0462830766230822,-0.2605198535970412
1772615930378222800,0.834222900390625,1.1322913810372353,1.0963432848215102,-0.1334272773887962
1772615930388290800,0.844290771484375,1.0616145012676714,1.1097627383649349,-0.058158558050636196
1772615930398359000,0.854359130859375,0.9162427382588386,1.0957371356219052,-0.012296112069301306
1772615930408427000,0.864427001953125,0.7363888599336147,0.9994722256094216,-0.0020003069717437027
1772615930418495000,0.874494873046875,0.5178957466125488,0.8909276797384024,-0.05803135147439316
1772615930428563000,0.88456298828125,0.334054259955883,0.7960574389547109,-0.13926716252341867
1772615930438631200,0.894631103515625,0.26268530626893044,0.6715770728051662,-0.21918193583544343
1772615930448700000,0.904699951171875,0.23242460803985596,0.5719014775663614,-0.26286901053907347
1772615930458768000,0.914767822265625,0.28315409380197526,0.49748073509335516,-0.32319822715967894
1772615930468836000,0.924836181640625,0.4235568362265825,0.3691372637748718,-0.3735198627732694
1772615930478904000,0.934904052734375,0.6617384003579616,0.1506055720090866,-0.38953181702792644
1772615930488972000,0.944971923828125,0.9413491224646567,-0.009508417579531669,-0.4676007798101753
1772615930499040000,0.9550400390625,1.0964777248561381,-0.13287293144166468,-0.49048404460642486
1772615930509108000,0.96510791015625,1.0240946256905794,-0.29579905584156513,-0.5664924581296742
1772615930519176000,0.975176025390625,0.7578215240627527,-0.35403730979859827,-0.7523563174594193
1772615930529244000,0.985243896484375,0.4284504534870386,-0.2963841622531414,-0.8270167139071971
1772615930539311900,0.995311767578125,0.006171382111310958,-0.24977672485709188,-0.715651192331314
1772615930549380000,1.005380126953125,-0.3653413786232471,-0.16248481037318704,-0.5485465036051348
1772615930559448000,1.015447998046875,-0.5915291381001472,-0.03234393424391746,-0.34364001708794384
1772615930569516000,1.02551611328125,-0.6649965253710747,0.0077437459945678706,-0.17936390285119413
1772615930579585000,1.0355849609375,-0.6095014326423406,-0.01629880837202072,-0.07599621162880212
1772615930589653000,1.045653076171875,-0.4800380173832178,-0.0123696522295475,0.04485032806303352
1772615930599721000,1.055720947265625,-0.33658056356310845,-0.0690115769058466,0.13116452008858323
1772615930609789000,1.065788818359375,-0.19431728796362877,-0.14523147775530815,0.14595942670367656
1772615930619857200,1.075857177734375,-0.040247254714369775,-0.18130699974298475,0.12241879397723823
1772615930629925000,1.085925048828125,0.10577508115768432,-0.2797176896125078,0.09029149815868585
1772615930639992800,1.095992919921875,0.19960721106529233,-0.3833516670882702,0.024593795041181147
1772615930650060800,1.106060791015625,0.20011282249987125,-0.43246378078162667,-0.14877663954887538
1772615930660129000,1.11612890625,0.1783247690618038,-0.43924365018010136,-0.30143567348904904
1772615930670197000,1.126197021484375,0.2073258226186037,-0.4248907151788473,-0.3291569894336164
1772615930680265000,1.136264892578125,0.21921090620160102,-0.372126508718729,-0.35032157721109686
1772615930690333000,1.1463330078125,0.23280337822437286,-0.2876876455783844,-0.3349363400200382
1772615930700401200,1.156401123046875,0.26865736641585825,-0.2582341720789671,-0.2847829736454412
1772615930710469000,1.16646923828125,0.3342319546103477,-0.19019231698811054,-0.1199869271878153
1772615930720536800,1.176536865234375,0.4047480908602476,-0.046916064953804015,-0.07770560936257243
1772615930730606000,1.186606201171875,0.42928398170173165,-0.05931494327783584,-0.0485753034029156
1772615930740674000,1.196674072265625,0.4256973553866148,0.02504384036362171,0.081369063773565
1772615930750742000,1.206741943359375,0.4668412666797638,0.13424305075109005,0.08125442441795021
1772615930760810000,1.21681005859375,0.4859212302029133,0.16757891864180563,0.16530337492525576
1772615930770878000,1.2268779296875,0.5135153395712375,0.25472353360950944,0.25476813993621616
1772615930780946000,1.23694580078125,0.48285132123827934,0.3045364890486002,0.36251547101493925
1772615930791014000,1.247013916015625,0.4235825551897287,0.2877291466325521,0.42750864259228105
1772615930801082000,1.25708203125,0.39950434498786924,0.2435983284831047,0.37245091836750505
1772615930811150000,1.267150146484375,0.44286125615537164,0.2326701072335243,0.3327363822903484
1772615930821218000,1.277218017578125,0.4910077396869659,0.20823884581029414,0.36265447762683034
1772615930831286000,1.2872861328125,0.5645078601837158,0.10794307284653186,0.4710694423014298
1772615930841354200,1.297354248046875,0.629652240267396,-0.013633973076939582,0.5775639968400821
1772615930851422000,1.307421875,0.645616702118516,-0.13407763105630874,0.6188049752995372
1772615930861490000,1.317489990234375,0.6155763686418533,-0.23477964673340318,0.5851106493599713
1772615930871558000,1.327557861328125,0.5374035801589488,-0.33636545950770375,0.4851176587350666
1772615930881627100,1.337627197265625,0.4177431815117597,-0.4297743955671787,0.3500206215031445
1772615930891695000,1.347695068359375,0.30926994731128216,-0.511356700232625,0.29345461160726843
1772615930901763000,1.35776318359375,0.2081447377860546,-0.598379734647274,0.2606409409597516
1772615930911830800,1.367830810546875,0.09805763864815234,-0.6679103669911622,0.20444069563634693
1772615930921899000,1.37789892578125,-0.031820202630758285,-0.7042986081898212,0.14706008142195642
1772615930931967000,1.387967041015625,-0.15806582488715648,-0.760804923787713,0.03959814315587282
1772615930942035000,1.398034912109375,-0.22273089702129362,-0.753106185978651,-0.10108538897149265
1772615930952103000,1.40810302734375,-0.20908172637522218,-0.7139379586726426,-0.1428259509835392
1772615930962171100,1.418171142578125,-0.14444997198879717,-0.7134165651470422,-0.1392067375730723
1772615930972239000,1.428239013671875,-0.016693360647559163,-0.6656394994497299,-0.03594495441056788
1772615930982307000,1.43830712890625,0.18980419445335864,-0.6116922206848859,0.15597601300105451
1772615930992375000,1.448375,0.38263855038285255,-0.6445581329762935,0.4862849854813888
1772615931002443000,1.458443115234375,0.4675099597215652,-0.695654698485136,0.782884288322553
1772615931012511000,1.468510986328125,0.4311503600955009,-0.7609136448591947,0.7924198131047189
1772615931022580000,1.478580078125,0.3218471048116684,-0.7517033334434032,0.6252477216981351
1772615931032648200,1.488648193359375,0.14474164841175077,-0.8026450006514787,0.44216406767144795
1772615931042716000,1.4987158203125,-0.10638356844484806,-0.8887830689251423,0.2576147615389898
1772615931052783900,1.508783935546875,-0.3930442090630531,-0.9243459652155637,0.0843995905758813
1772615931062851800,1.518851806640625,-0.6532920590519905,-0.8674643865644931,-0.14237437129113822
1772615931072920000,1.528920166015625,-0.8797282403320074,-0.7445797651737928,-0.40777003249730914
1772615931082988000,1.538988037109375,-1.0143073911696672,-0.5415145226091146,-0.6556927635181695
1772615931093056000,1.549055908203125,-1.0425988351523876,-0.31494565486013887,-0.8456877313032746
1772615931103124000,1.5591240234375,-1.0120429533690214,-0.14826047018766403,-0.840064411528781
1772615931113192200,1.569192138671875,-0.9675093996375799,-0.03510229304134845,-0.7736305030912161
1772615931123260000,1.579260009765625,-0.8284913895696401,0.059604281613230704,-0.6863564895901828
1772615931133328000,1.589327880859375,-0.537985179439187,0.1440875684171915,-0.5214559233121574
1772615931143395800,1.599395751953125,-0.22622926053106784,0.132637369120121,-0.26583602538481355
1772615931153464000,1.609464111328125,0.03142565035521984,0.12132453246712684,-0.057922648669220506
1772615931163532000,1.619531982421875,0.22435177622139452,0.162913849440217,0.007004837260767817
1772615931173600000,1.62960009765625,0.36337972316145895,0.19896131437718867,-0.006557531884685159
1772615931183669000,1.6396689453125,0.42290509431958195,0.24807050546109674,-0.048660424403101206
1772615931193737000,1.649737060546875,0.457183796018362,0.31179625091850754,-0.030620252256467938
1772615931203805000,1.659804931640625,0.44341362934112544,0.41312838119268414,0.010834149757958949
1772615931213873000,1.669872802734375,0.34018414101302624,0.5630068079710007,0.05003792330138385
1772615931223941000,1.679941162109375,0.2078694279760122,0.6351870780408382,0.09812873112298548
1772615931234009000,1.690009033203125,0.1090261919081211,0.7067892559617758,0.20691150619667023
1772615931244077000,1.7000771484375,0.0659790773421526,0.7800473843961954,0.31391189136561004
1772615931254145000,1.71014501953125,0.009355272844433785,0.802066323980689,0.4116968505522236
1772615931264213000,1.720212890625,-0.007243395256996154,0.8518950615108013,0.45417233924269673
1772615931274281000,1.730281005859375,-0.026072598889470097,0.8771855701118707,0.4712836330413818
1772615931284349000,1.740348876953125,-0.09415303242504597,0.9430804763019084,0.4174089080560952
1772615931294417000,1.7504169921875,-0.18768764069080351,0.9789736274600028,0.2686003389989957
1772615931304485000,1.760485107421875,-0.26448271107971666,0.9862783975154161,0.2801012090373784
1772615931314553900,1.770553955078125,-0.32405309042334557,1.0117758268654347,0.3933485257718712
1772615931324621800,1.780621826171875,-0.3684913670867681,1.0760223813265561,0.5190859062451869
1772615931334690000,1.79068994140625,-0.44004269160330295,1.0702508121877907,0.6719287357870489
1772615931344758000,1.800758056640625,-0.5210486576855182,1.0249410133868455,0.7966352388426661
1772615931354826000,1.810825927734375,-0.5925514668852091,0.9531886133402585,0.9500132712397724
1772615931364894000,1.82089404296875,-0.6358908423960209,0.813892370852828,1.1020993641301988
1772615931374962200,1.830962158203125,-0.7101730531811714,0.6637076546043157,1.141518132131174
1772615931385030100,1.841030029296875,-0.8838847754895687,0.519172926941514,1.0313819331545382
1772615931395097900,1.851097900390625,-1.14158878621459,0.2999608516961336,0.8003825356122106
1772615931405165800,1.861165771484375,-1.366012458628416,0.08404840251803397,0.48923864765521136
1772615931415234000,1.871234130859375,-1.5506453879237174,-0.09309797041416168,0.17028839679621158
1772615931425302000,1.881302001953125,-1.642805200704932,-0.21301088251769543,-0.08215334601905197
1772615931435370000,1.891369873046875,-1.6245307083457707,-0.2632721662461758,-0.27915559875033796
1772615931445438000,1.90143798828125,-1.5167133077055215,-0.1960965725958347,-0.40456827731393274
1772615931455506200,1.911506103515625,-1.3283721715420485,0.007455576702952385,-0.4123179781252518
1772615931465575000,1.921574951171875,-1.0417565391093493,0.23703882383704183,-0.24919340854380279
1772615931475643000,1.931642822265625,-0.6735971804559231,0.4231085079371929,0.05422726475000381
1772615931485711000,1.941711181640625,-0.32133331007063387,0.5578150845468044,0.38792014404758807
1772615931495779000,1.951779052734375,0.004805938977003097,0.7039566628843545,0.6374365374680608
1772615931505847000,1.961846923828125,0.27321955976486206,0.7353145087003707,0.8005050660133362
1772615931515915000,1.9719150390625,0.4357692520678043,0.6717933459043502,0.8732720499299466
1772615931525983000,1.98198291015625,0.5199520946204662,0.6307435426354407,0.866625305391848
1772615931536051000,1.992051025390625,0.5468430241554976,0.5517886638641357,0.7955125184230506
1772615931546119000,2.002118896484375,0.5447983665853738,0.46538230004310605,0.703029026645422
1772615931556187000,2.012186767578125,0.559229627519846,0.4256885875582695,0.7039874964140355
1772615931566255000,2.022255126953125,0.4526408918917179,0.2684463540136814,0.7526837958481163
1772615931576323000,2.032322998046875,0.29423838239610195,0.14109540086388586,0.7086060230601579
1772615931586391000,2.04239111328125,0.17809972813427447,0.23565993669927118,0.7688649691898375
1772615931596459000,2.052458984375,0.10678513498306273,0.33112814337611196,0.9401179732345044
1772615931606527000,2.06252685546875,-0.01972293760180473,0.1761474250227213,0.9005460604984312
1772615931616596000,2.072595947265625,-0.23668460357189178,0.017985738545656202,0.744134505624324
1772615931626664000,2.082663818359375,-0.3567734567642212,-0.0224953249245882,0.642306993048638
1772615931636732200,2.092732177734375,-0.4622270508825779,-0.04055295966267586,0.4958926256516948
1772615931646800100,2.102800048828125,-0.5719570071458816,-0.09966098219156265,0.4150716972801834
1772615931656868000,2.1128681640625,-0.6421095707803964,-0.16702946806550026,0.3863365646505728
1772615931666935800,2.122935791015625,-0.7250590721458197,-0.13985562993586062,0.3379541534712538
1772615931677004000,2.133004150390625,-0.7882488110303878,-0.04781681318581104,0.33000527682602404
1772615931687072000,2.143072021484375,-0.7741255931317805,0.023802315869927405,0.4221740400986746
1772615931697140000,2.153139892578125,-0.6424363185167312,0.07481295666098595,0.552203601340577
1772615931707208000,2.1632080078125,-0.5176040701895952,0.08892623768746852,0.6510261599466204
1772615931717276200,2.173276123046875,-0.39183074162006376,0.13132687104344368,0.7068724772658199
1772615931727344000,2.18334423828125,-0.24641806207895278,0.15851064604520798,0.7815585196115076
1772615931737412000,2.193412109375,-0.14310674068629742,0.14045534939467907,0.8487510643966496
1772615931747479800,2.203479736328125,-0.10405717132389544,0.08696399770379067,0.8609624573245644
1772615931757549000,2.213549072265625,-0.14385668227076528,0.04790916764438152,0.7552863795619458
1772615931767617000,2.223616943359375,-0.169252989333868,0.02481646134853363,0.5808488637296483
1772615931777684700,2.233684814453125,-0.19239070381522178,-0.030188802036643026,0.4235946474863216
1772615931787752700,2.243752685546875,-0.18943886827230452,-0.10369009157717227,0.32252336010541766
1772615931797820700,2.253820556640625,-0.13118132509291172,-0.11951660626232623,0.2878836065419018
1772615931807888600,2.263888671875,-0.02246609883010387,-0.2262865436762571,0.32971308894641693
1772615931817956600,2.27395654296875,0.10771744739711284,-0.2560509828209877,0.3969449062960222
1772615931828024600,2.284024658203125,0.16179858167469502,-0.18064999713897703,0.5201684773175046
1772615931838092500,2.294092529296875,0.20351824702918528,-0.161436762624979,0.6309300051182508
1772615931848160800,2.304160888671875,0.37004736435711383,-0.12277531579732893,0.6801621649947017
1772615931858228700,2.314228759765625,0.5206120198339224,-0.0643143590003252,0.6951479180067778
1772615931868296700,2.324296630859375,0.5865536877751351,-0.08034194921553134,0.7599340592373162
1772615931878364700,2.33436474609375,0.6375222429901362,-0.14948387450277806,0.8067384074449538
1772615931888432600,2.3444326171875,0.6460019020438194,-0.15396189669966698,0.7936054426927119
1772615931898500600,2.35450048828125,0.6148375329732895,-0.1778407849371433,0.8340293691482394
1772615931908569600,2.364569580078125,0.4877426004111767,-0.30186990018785,0.9168352973245084
1772615931918637800,2.374637939453125,0.3258849820256233,-0.3660445584565401,0.916045681316778
1772615931928705800,2.384705810546875,0.1163157643944025,-0.39835985112786293,0.7911163292907178
1772615931938773800,2.394773681640625,-0.10436462983787059,-0.42869186102747914,0.6349382178463041
1772615931948841500,2.404841552734375,-0.3412216673672199,-0.5343342557162046,0.5034991551326587
1772615931958909700,2.41490966796875,-0.5304086067050695,-0.5838672251701355,0.3480176841828972
1772615931968977700,2.424977783203125,-0.7233142743051052,-0.5568196437686681,0.19200590574871748
1772615931979045600,2.435045654296875,-0.8443021221637725,-0.48221010072529313,0.11286094776540993
1772615931989113600,2.445113525390625,-0.9029998103260993,-0.4347451697170734,0.14263441046681255
1772615931999181800,2.455181884765625,-0.902892258298397,-0.3055243310421705,0.18034151571169493
1772615932009249800,2.465249755859375,-0.866285990434885,-0.13885785107016563,0.24218718304354697
1772615932019317500,2.4753173828125,-0.8391548224031925,0.0033089784175157544,0.3410658192183822
1772615932029385500,2.485385498046875,-0.8086375190645456,0.14054653480947016,0.4188005450775847
1772615932039453700,2.49545361328125,-0.74978843973279,0.2592605925172567,0.42872083139363676
1772615932049521700,2.505521728515625,-0.6639870560675859,0.3331698783367872,0.3559316356452182
1772615932059590700,2.515590576171875,-0.6124982763707637,0.39146658448278904,0.25759269583765415
1772615932069659000,2.525658935546875,-0.6238023451954126,0.4463216257423162,0.15939542952310293
1772615932079726600,2.5357265625,-0.5948071368575096,0.488937363153696,0.08983929741177707
1772615932089794600,2.545794677734375,-0.5438116936355829,0.4993634801000356,0.03418751628398895
1772615932099862500,2.555862548828125,-0.44493104816675183,0.5357172345072031,0.009834726924449205
1772615932109930800,2.5659306640625,-0.307681216815114,0.5237473952502012,0.011715955827478319
1772615932119998700,2.575998779296875,-0.15427169330120086,0.51614042737782,0.0124239944989793
1772615932130066700,2.586066650390625,-0.05874211182594299,0.48440907207429407,-0.014481182757113128
1772615932140134700,2.596134765625,-0.011640753433108329,0.49868718827366826,-0.10923725910922512
1772615932150202600,2.60620263671875,-0.003985270243883132,0.5324187774837017,-0.21025871599903329
1772615932160270600,2.6162705078125,0.008218962290883064,0.5652028567105531,-0.2774991002475843
1772615932170338600,2.626338623046875,0.0026940613895654678,0.6297212138503789,-0.22796063263462854
1772615932180406500,2.636406494140625,0.0102390699416399,0.7096972523629665,-0.10147976771709509
1772615932190474800,2.646474853515625,0.03412263435423374,0.7967389914780855,0.008503861913178116
1772615932200543700,2.656543701171875,0.017249240964651108,0.875432004442811,0.07497973719579167
1772615932210611500,2.666611572265625,-0.07961538850665092,0.8898322857171297,0.033253550768969575
1772615932220679700,2.6766796875,-0.13452888195514678,0.9586001169949769,0.004115221333061345
1772615932230747600,2.68674755859375,-0.17016075182855128,0.9348264426976441,0.04002976690563373
1772615932240815600,2.696815673828125,-0.14327040681540965,0.8968255056053399,0.14966993512678892
1772615932250883600,2.706883544921875,-0.04936345810592174,0.9013719168633222,0.30516695070555433
1772615932260951800,2.716951904296875,0.05645780028104782,0.8316039686322212,0.4336779058117419
1772615932271019800,2.727019775390625,0.15958382823467254,0.7174018353909254,0.4595482601273805
1772615932281087700,2.737087646484375,0.22109540477395057,0.5968588086903095,0.4227567353574559
1772615932291155500,2.747155517578125,0.1927566145181656,0.3938555254459381,0.3154765468664467
1772615932301223700,2.7572236328125,0.0955325040847063,0.2451882280230522,0.09164129619929008
1772615932311291600,2.767291748046875,0.011639584389328956,0.09577741875648497,-0.17061262378189712
1772615932321359600,2.777359619140625,-0.09962240374684334,-0.05584814395010471,-0.379335197988525
1772615932331427600,2.787427490234375,-0.21069266870319842,-0.23406243837475776,-0.5071935892038048
1772615932341495800,2.797495849609375,-0.2554711371064186,-0.36393326539099213,-0.5803369686847553
1772615932351564500,2.807564453125,-0.27422201480567454,-0.4550923766970634,-0.5999692323284224
1772615932361632500,2.817632568359375,-0.3102466833889484,-0.48595104081928725,-0.4860747402641922
1772615932371700500,2.827700439453125,-0.2819815428912639,-0.4660848953545093,-0.39762952755931763
1772615932381768700,2.837768798828125,-0.24151684603393075,-0.4091390192955732,-0.2741651883182116
1772615932391836700,2.847836669921875,-0.15049159024059772,-0.34063597643375393,-0.22518756945841012
1772615932401904600,2.857904541015625,-0.06350304261744022,-0.2787929759830236,-0.2890808352361433
1772615932411972900,2.867972900390625,0.03250058611035347,-0.17641630509197712,-0.24872516997754573
1772615932422040600,2.87804052734375,0.13655074317157267,-0.1264110419511795,-0.18815566006135195
1772615932432108500,2.888108642578125,0.24371640190482138,-0.08916121548712252,-0.09723134389184415
1772615932442176500,2.898176513671875,0.39755554900765416,0.019531214421987533,-0.05533657769877463
1772615932452244700,2.90824462890625,0.5658960996717214,0.0998024364888668,0.05772170556990895
1772615932462312700,2.918312744140625,0.6974117712855339,0.16671557981073856,0.2172483374243602
1772615932472380700,2.928380615234375,0.8250345271140337,0.2089987242668867,0.34287794667426497
1772615932482448600,2.93844873046875,0.9122714965403079,0.2595464237213135,0.44153271096535024
1772615932492516900,2.948516845703125,0.960802595475316,0.2460901452988386,0.4944208725987002
1772615932502585600,2.958585693359375,0.9303495895445346,0.19309329912662504,0.43119083823636173
1772615932512653600,2.968653564453125,0.8417933542132378,0.17392215018868445,0.25398718215897675
1772615932522721500,2.978721435546875,0.7323866385549307,0.11423019029200077,0.05336151476614177
1772615932532789800,2.988789794921875,0.5930027177840471,0.0029091654449701306,-0.06796352915763855
1772615932542857700,2.998857666015625,0.4628092346847057,-0.044692543685436244,-0.16978042900776488
1772615932552925700,3.00892578125,0.3297060016185045,-0.09896657018661499,-0.27810393427293745
1772615932562993400,3.018993408203125,0.25580840623676776,-0.12780278857052327,-0.3615944471798837
1772615932573061600,3.0290615234375,0.19520693027973174,-0.13716507567763328,-0.3816218110883608
1772615932583129600,3.039129638671875,0.18240005567669867,-0.12363748558461665,-0.3625908012734726
1772615932593197600,3.049197509765625,0.2124006416648626,-0.11044774914383887,-0.29544724672921
1772615932603265500,3.059265625,0.26010055047273634,-0.0948661491304636,-0.18412519896887242
1772615932613333800,3.069333740234375,0.3177209647923708,-0.08487491647005081,-0.11048256472889334
1772615932623401700,3.079401611328125,0.39658465814888477,-0.08778349739313125,-0.05345704756248742
1772615932633469700,3.0894697265625,0.41790626311898227,-0.10954583186805247,-0.044005620867200196
1772615932643538700,3.09953857421875,0.42079263221025465,-0.1148123740941286,-0.07628580569252372
1772615932653606700,3.109606689453125,0.4149573501855135,-0.14409458267986774,-0.08866024369504302
1772615932663674600,3.119674560546875,0.40298458831906314,-0.16607260573208332,-0.1189289791001007
1772615932673742600,3.12974267578125,0.40551732166707516,-0.14471768301427362,-0.15340879286155104
1772615932683810800,3.139810791015625,0.4191606470942497,-0.11088029534220695,-0.12512951424065977
1772615932693878500,3.14987841796875,0.4387982445001602,-0.10597031146883965,-0.08829988595005124
1772615932703946500,3.159946533203125,0.5310264463424682,-0.06096154144108295,-0.05538458155896514
1772615932714014500,3.170014404296875,0.6894400617539882,-0.0742395406872034,0.05827087758500129
1772615932724082700,3.180082763671875,0.8051309722483158,-0.12401099507212639,0.25791739774737504
1772615932734150700,3.190150634765625,0.8303104216903447,-0.18302023340165613,0.4169329245747998
1772615932744218600,3.200218505859375,0.6942132675051689,-0.27562837447226046,0.4535563262362033
1772615932754286600,3.21028662109375,0.42108021697998044,-0.38100013552606105,0.31499723891690373
1772615932764354800,3.220354736328125,0.10149521188139915,-0.4408411485046148,0.07439369006929919
1772615932774422500,3.230422607421875,-0.19138591068685054,-0.569602552974224,-0.14633503681672735
1772615932784490800,3.24049072265625,-0.3720131114721298,-0.6211462777286768,-0.19107344720419495
1772615932794559700,3.250559814453125,-0.4402706551402807,-0.7044137590020895,-0.023120471085608003
1772615932804627700,3.260627685546875,-0.4215922581553459,-0.8179185576289891,0.16780801468994466
1772615932814696000,3.270696044921875,-0.33862229852378367,-0.8227461239159106,0.33146891963779923
1772615932824763600,3.280763671875,-0.35554888340532775,-0.9025251785516738,0.41467564716730265
1772615932834831600,3.29083154296875,-0.447616341727972,-0.94688220667243,0.3237459972355515
1772615932844899600,3.300899658203125,-0.5256915150552988,-0.9724947868347167,0.15459929955406113
1772615932854967800,3.3109677734375,-0.5914280158132315,-1.0085101030677557,-0.04948255444094538
1772615932865035800,3.321035888671875,-0.6588818418830633,-1.0194207886606454,-0.2410775778338313
1772615932875103700,3.331103759765625,-0.727924982970953,-1.0313210698127746,-0.4156555615827441
1772615932885171700,3.341171630859375,-0.7002882035046816,-0.9991039768189192,-0.5687187924096361
1772615932895240000,3.351239990234375,-0.6564052226364612,-1.0049842670291662,-0.6128126760821789
1772615932905307600,3.3613076171875,-0.595632481765747,-0.9128940123528242,-0.7134479831986129
1772615932915375600,3.371375732421875,-0.47181028726398944,-0.7509229967206716,-0.786058899770677
1772615932925443600,3.381443603515625,-0.3604980302453041,-0.5946820491731166,-0.6880483151346445
1772615932935512800,3.391512939453125,-0.16735446223616599,-0.40749125208854675,-0.5432501872953027
1772615932945580800,3.401580810546875,0.10825462301373481,-0.23656360754072664,-0.3935452904529869
1772615932955648800,3.411648681640625,0.44773383062779903,-0.054233694490790366,-0.27188668545959516
1772615932965716700,3.421716796875,0.7480828048586845,0.10797463702857493,-0.0817283620726317
1772615932975784700,3.43178466796875,0.9922510421842337,0.20229133558273316,0.04035055069206282
1772615932985852700,3.441852783203125,1.1391536680221557,0.2738794849783182,0.055531808009929955
1772615932995920600,3.451920654296875,1.152832649284601,0.29321897622048854,-0.018810352801531552
1772615933005988900,3.46198876953125,1.0452496419221162,0.32999767804145813,-0.14365471169156954
1772615933016056800,3.472056884765625,0.8598492353856563,0.3470639636546373,-0.21162297182325274
1772615933026124800,3.482124755859375,0.6498515632092953,0.3829822492539882,-0.2621610814654268
1772615933036192800,3.49219287109375,0.4155383649438619,0.4728887301504612,-0.26274774051327254
1772615933046260700,3.5022607421875,0.14839841735363005,0.5223784449845552,-0.14690472646346314
1772615933056328700,3.51232861328125,-0.10033961210548877,0.5580073922485113,0.026627145766001194
1772615933066396700,3.522396728515625,-0.2884270657688379,0.6097346568763256,0.20503919125245884
1772615933076464600,3.532464599609375,-0.4559136299520731,0.620575199842453,0.28863974040513857
1772615933086534000,3.542533935546875,-0.5870569611221551,0.641666503188014,0.2799714817104861
1772615933096601600,3.5526015625,-0.6566285099983215,0.6987865667700767,0.27694471776783464
1772615933106669600,3.562669677734375,-0.669615417343378,0.7257248425781726,0.29506354464124884
1772615933116737800,3.57273779296875,-0.6336281581610441,0.7431412568032741,0.3401186014961451
1772615933126805800,3.5828056640625,-0.6215688870549202,0.8091904767721891,0.3995832554429769
1772615933136873700,3.592873779296875,-0.6270891117811203,0.766213504832983,0.44285007717423136
1772615933146941700,3.602941650390625,-0.5947387477964162,0.7034843691974878,0.40637518060542643
1772615933157010000,3.613010009765625,-0.5549719700753688,0.6429968750089406,0.37851124131977554
1772615933167078000,3.623077880859375,-0.5456085139244794,0.5673100581228733,0.3877909647099674
1772615933177145600,3.6331455078125,-0.5609282481312752,0.4021089745283127,0.3967853683527559
1772615933187213600,3.643213623046875,-0.6569429827749729,0.3557861992925405,0.4846632660310715
1772615933197281800,3.65328173828125,-0.8196084104120731,0.2347574349015951,0.5060733530022203
1772615933207349800,3.663349853515625,-0.9901531931221484,0.16529986779391764,0.5082688172198832
1772615933217417700,3.673417724609375,-1.223100948253274,0.057039984083175656,0.46146066961996257
1772615933227486700,3.68348681640625,-1.4143150095045565,-0.03269873903095722,0.2126107224852778
1772615933237554700,3.6935546875,-1.5768156019687651,-0.07834288435280323,-0.06583625307166949
1772615933247622700,3.70362255859375,-1.6297347067296504,-0.027324644777178764,-0.36054771460592744
1772615933257690600,3.713690673828125,-1.5139239692479372,0.09460603688955306,-0.5531675510019064
1772615933267758600,3.723758544921875,-1.2624661594361066,0.2514005266666412,-0.4776300794586539
1772615933277826800,3.733826904296875,-0.8501151923567056,0.4602431835889816,-0.16999697610158473
1772615933287894800,3.743894775390625,-0.3585556640058756,0.6287210968971252,0.22936136627802625
1772615933297962800,3.753962646484375,0.17402268795371054,0.7719985179752111,0.6060567355485633
1772615933308030700,3.76403076171875,0.64697045481503,0.8636351836651563,0.9081697603099047
1772615933318098700,3.7740986328125,1.0159428834170103,0.873945565277338,1.1017045195937156
1772615933328166700,3.784166748046875,1.312694125416875,0.8201818263858556,1.2111609926778824
1772615933338234600,3.794234619140625,1.4858160651385783,0.7194009002536534,1.2124173494145274
1772615933348302800,3.804302734375,1.4758359383940696,0.5920458554506302,1.1294804152697324
1772615933358370800,3.814370849609375,1.3069839310765266,0.41465339880287644,0.9747669695504009
1772615933368438800,3.824438720703125,1.0596598600685596,0.2014081230074167,0.7231890404902398
1772615933378507500,3.834507568359375,0.8108172011911868,0.052474283602833745,0.4922700147077441
1772615933388575700,3.84457568359375,0.6135451550751924,-0.08379998071491718,0.39956498913392424
1772615933398643700,3.854643798828125,0.4491840294361114,-0.12764146052896977,0.4816168110072612
1772615933408711700,3.864711669921875,0.26102058792710303,-0.19121639933884144,0.6143086867935955
1772615933418779600,3.874779541015625,0.07317921797931194,-0.20355039573311803,0.6391367655146867
1772615933428847900,3.884847900390625,-0.05594692814946174,-0.16855097854435444,0.5811238812787458
1772615933438915800,3.894915771484375,-0.16896598908603191,-0.21796879718601703,0.5748493675865233
1772615933448983600,3.904983642578125,-0.24689970811605452,-0.27060323978662487,0.5221106608938425
1772615933459051500,3.915051513671875,-0.2706581848442554,-0.23041735987067222,0.456574870339781
1772615933469119700,3.92511962890625,-0.27939444900751115,-0.25432138254940506,0.43977125425077973
1772615933479187700,3.935187744140625,-0.3397054175853729,-0.2526934890866279,0.41184685348216443
1772615933489255700,3.945255615234375,-0.354224356803298,-0.14159750516712666,0.39194421193189916
1772615933499324000,3.955323974609375,-0.3199994311183691,-0.05952420211434364,0.37545141535773874
1772615933509392000,3.965391845703125,-0.28743337855637074,-0.04360357940495014,0.37460181279107924
1772615933519460600,3.975460693359375,-0.19580723426043986,0.04168634760677814,0.4400501442573964
1772615933529528600,3.985528564453125,-0.07348258484005928,0.09231354203820229,0.6075640348389745
1772615933539596800,3.9955966796875,0.037865912535786625,0.08800152405798435,0.7722343725576997
1772615933549664800,4.005664794921875,0.15633914722502232,0.10167758271098136,0.8510121411964297
1772615933559732700,4.015732666015625,0.24163433493375777,0.07701777322888374,0.8389139263194054
1772615933569800700,4.02580078125,0.29439854139387606,0.04368541246950626,0.7707069437947124
1772615933579868700,4.03586865234375,0.3250409324169159,-0.00042670097947120663,0.6871922828271985
1772615933589936600,4.0459365234375,0.29889819090068337,-0.040891397836804386,0.5916571849266067
1772615933600004600,4.056004638671875,0.2339297519057989,-0.10978548584282398,0.48737866246961054
1772615933610072600,4.066072509765625,0.1661953553289175,-0.16719605680406094,0.3921012291245162
1772615933620140800,4.076140869140625,0.09303484205007552,-0.17887714224755763,0.3346286623103544
1772615933630208800,4.086208740234375,0.055042672786116596,-0.21012451342642305,0.301790880134888
1772615933640276700,4.09627685546875,0.0005558803170919418,-0.23961364276111125,0.33071813780311493
1772615933650344700,4.1063447265625,0.015870353826880453,-0.2603758602827787,0.44414552381224925
1772615933660412700,4.11641259765625,0.10489888284504413,-0.26074060194194315,0.6504888381995261
1772615933670481700,4.126481689453125,0.18853928908407688,-0.30156770237088204,0.9146007432054728
1772615933680549600,4.136549560546875,0.24549568653702736,-0.3101642658025026,1.1100786724463105
1772615933690617900,4.146617919921875,0.2733224356174469,-0.3740636142611503,1.1132280033227056
1772615933700685800,4.156685791015625,0.23379180473983285,-0.4541565571516752,0.9077601565957069
1772615933710753800,4.16675390625,0.11042378374636172,-0.5541285049885512,0.5285760575156658
1772615933720821500,4.176821533203125,-0.10077508091330528,-0.6393459512859583,0.15494984829109162
1772615933730889700,4.1868896484375,-0.33136136761009694,-0.6876707139939069,-0.0956613911613822
1772615933740957700,4.196957763671875,-0.5155050520837307,-0.584429535228014,-0.17731365579050032
1772615933751025700,4.207025634765625,-0.6460597697108984,-0.4326286159545183,-0.06713310621548443
1772615933761093600,4.21709375,-0.748341163533926,-0.363245283126831,0.13172577070053665
1772615933771161900,4.227161865234375,-0.8064718654632568,-0.22000994762480258,0.2472063446461223
1772615933781230300,4.237230224609375,-0.8309493041157722,-0.1055102927416563,0.2874609241504222
1772615933791298000,4.247298095703125,-0.8753232833713293,-0.010166004705429077,0.3247039555475116
1772615933801366300,4.2573662109375,-1.0492390038192272,0.07366086401641368,0.3106375093374401
1772615933811435300,4.267435302734375,-1.2280214535206555,0.18911562766730786,0.2045250494515523
1772615933821503200,4.277503173828125,-1.2861124079614876,0.2988847468972206,0.0041508360691368575
1772615933831571500,4.287571533203125,-1.2259902399539946,0.45115211463868615,-0.1454570849384181
1772615933841639200,4.29763916015625,-1.0927496442437172,0.5683277107328176,-0.13437023906102402
1772615933851707100,4.30770703125,-0.8867997861534357,0.6639110682219267,-0.06750475253947079
1772615933861775000,4.317775146484375,-0.5681786576509475,0.8310930965006351,-0.0328120266797021
1772615933871843300,4.32784326171875,-0.22967793968021868,0.9154588944047689,-0.02198532044268213
1772615933881911300,4.337911376953125,0.08207856374979018,0.9921966816484927,-0.012224562936741857
1772615933891979300,4.347979248046875,0.34827743109762666,1.0274795919537543,0.026741657257452606
1772615933902047200,4.358047119140625,0.5198188236296176,0.9882353768020867,0.02219425048562698
1772615933912115500,4.368115478515625,0.6566647503554821,0.9967845939606428,-0.05515006955019198
1772615933922183200,4.37818310546875,0.7647451858460903,0.902948372399807,-0.1830345359216444
1772615933932251100,4.388251220703125,0.7777250789284705,0.729655752286315,-0.36237098451033234
1772615933942319000,4.398319091796875,0.7894161012440919,0.6202946293354034,-0.49134552027396855
1772615933952388400,4.408388427734375,0.7921767981290817,0.48917584808468817,-0.5143762307168915
1772615933962456300,4.418456298828125,0.6736614778637886,0.35373628102540966,-0.4955516301942989
1772615933972524300,4.428524169921875,0.5499135176420211,0.2847895860493183,-0.46381877705343066
1772615933982592300,4.43859228515625,0.4258277037680149,0.19300562084317205,-0.39418563418313857
1772615933992660200,4.44866015625,0.32431320266425606,0.08595745100975036,-0.32461393917649983
1772615934002728200,4.458728271484375,0.1684475181698799,-0.06460895803272723,-0.3054790305957198
1772615934012796200,4.468796142578125,-0.02463350599706173,-0.1614542982816696,-0.3881675429373979
1772615934022864400,4.478864501953125,-0.2511667179107666,-0.22593699958622454,-0.5690015914063901
1772615934032932400,4.488932373046875,-0.4947428345620632,-0.29521278038620946,-0.8498029115371406
1772615934043000300,4.499000244140625,-0.780566439834237,-0.29327216771245,-1.0634836561404168
1772615934053068300,4.509068359375,-0.9802864636242389,-0.3041261546820402,-1.14504345671311
1772615934063136300,4.51913623046875,-1.0494581995278596,-0.3388011622220278,-1.1180695250697432
1772615934073204200,4.529204345703125,-1.080929442590475,-0.2994306903421879,-0.9507994531814008
1772615934083272200,4.539272216796875,-1.0414362211138009,-0.13199907121658325,-0.7985370538759976
1772615934093340200,4.549340087890625,-0.768375066781044,0.030106968972086905,-0.5091025280976668
1772615934103409400,4.559409423828125,-0.3893851020336151,0.14322130697667598,-0.11198663088260218
1772615934113477000,4.56947705078125,-0.06925649157762527,0.24903438205718992,0.20678466494660824
1772615934123545000,4.579545166015625,0.19575053563714026,0.32953882835805415,0.36356147293653335
1772615934133613300,4.58961328125,0.40103813042640685,0.44924891136586664,0.41358836338724936
1772615934143681300,4.599681396484375,0.5679542012453079,0.5125228214025497,0.36899632093422113
1772615934153749200,4.609749267578125,0.7241723524391651,0.5704705679804086,0.31401363470703364
1772615934163817200,4.619817138671875,0.8373270224541425,0.5781447558701038,0.29662734162556004
1772615934173885400,4.629885498046875,0.9924848509401082,0.5409253245443105,0.21733806153442708
1772615934183953400,4.639953369140625,1.1426087769120932,0.4830336920678615,0.1965137020293623
1772615934194021000,4.650021240234375,1.279069503712654,0.3830664204061031,0.16738821837529538
1772615934204089000,4.660089111328125,1.3758458703786134,0.2759615519493818,0.11043269770517945
1772615934214157300,4.6701572265625,1.4198726436316966,0.09817220493853092,0.017249971617013214
1772615934224225300,4.680225341796875,1.3722633357167242,-0.08649111949503421,-0.15590996202751994
1772615934234293200,4.690293212890625,1.2768833918452263,-0.20359774200618266,-0.32578798792455343
1772615934244362200,4.7003623046875,1.1324544626444577,-0.35645489233434197,-0.43755091132018714
1772615934254430200,4.71043017578125,0.9672089553862809,-0.462905680796504,-0.5732625002538785
1772615934264498200,4.720498291015625,0.769264709097147,-0.5383294628322124,-0.7253317516073584
1772615934274566100,4.730566162109375,0.5376221913456917,-0.6012345395565033,-0.8781232893534004
1772615934284634400,4.74063427734375,0.3383464041918516,-0.5814332760214805,-0.9511827534105628
1772615934294702300,4.750702392578125,0.17742694343924523,-0.5820370871335268,-0.8951048923578113
1772615934304770300,4.760770263671875,0.07812544220983982,-0.5855985790073871,-0.763872786925733
1772615934314838300,4.77083837890625,0.040538931137323375,-0.5052759190142154,-0.5847912812124938
1772615934324906200,4.78090625,0.10683540386557579,-0.39388358249664307,-0.29905834989845753
1772615934334974200,4.79097412109375,0.2509364162862301,-0.344237215796113,0.022285225837863982
1772615934345042200,4.801042236328125,0.44385903502106666,-0.3040969285875559,0.28395492532346395
1772615934355110100,4.811110107421875,0.6029986266195774,-0.24962182655632495,0.4323226918105036
1772615934365178400,4.821178466796875,0.6879997998178005,-0.2382522912800312,0.4477723360072821
1772615934375246300,4.831246337890625,0.6872562879741192,-0.1954132665067911,0.3795847523028031
1772615934385315000,4.841315185546875,0.6181161162525415,-0.1960492263227701,0.28243798142187293
1772615934395383300,4.85138330078125,0.5109451968222857,-0.20979250499308108,0.2033773407211527
1772615934405451300,4.861451171875,0.41292496757507324,-0.1905804395228624,0.1740987123319879
1772615934415519200,4.871519287109375,0.401589919090271,-0.15573241350352762,0.26741218866035343
1772615934425587200,4.881587158203125,0.4086351614266634,-0.14675649536550045,0.3942445612961426
1772615934435655400,4.891655517578125,0.44513387726247305,-0.15886428178846834,0.45202984732128676
1772615934445723400,4.901723388671875,0.5069979205012322,-0.22425649915337562,0.45050764272268856
1772615934455791400,4.911791259765625,0.5545663118839264,-0.3130705086380243,0.3824991053795442
1772615934465859000,4.921859130859375,0.5794166755020618,-0.4307353495538234,0.2545811659967527
1772615934475927300,4.93192724609375,0.5628115776598454,-0.5249380663394928,0.0969474854491651
1772615934485995300,4.941995361328125,0.546368392381072,-0.5880471412032843,0.017488968004658816
1772615934496063200,4.952063232421875,0.5239806194841862,-0.6943745955467223,0.05724763548448682
1772615934506131200,4.962131103515625,0.5540566087961196,-0.7628069112598895,0.20454276777133346
1772615934516199400,4.972199462890625,0.5790706385433674,-0.8193290089488029,0.3618874753097072
1772615934526267400,4.982267333984375,0.5389899725675582,-0.8163362568736076,0.4154887901810929
1772615934536336100,4.992336181640625,0.354000484919548,-0.8667956935226917,0.30314499815758317
1772615934546404400,5.002404296875,0.04216565555632114,-0.9307131621599197,0.05002933813612908
1772615934556472300,5.012472412109375,-0.31220950789451596,-0.9346797277033329,-0.2084802168181166
1772615934566540300,5.022540283203125,-0.6462503238469361,-0.9417723163127899,-0.4243621977927163
1772615934576608300,5.032608154296875,-0.8628560159862041,-0.9235884248465299,-0.5822388202507048
1772615934586676500,5.042676513671875,-0.959129693827033,-0.8610983586639165,-0.6677971158750354
1772615934596744200,5.052744140625,-0.9417582877874374,-0.7741665096640586,-0.7888923696309328
1772615934606812200,5.062812255859375,-0.8635475053817033,-0.6059294193744659,-0.87570892168805
1772615934616880000,5.072880126953125,-0.677040014386177,-0.43154608141481876,-0.81615476282686
1772615934626948400,5.0829482421875,-0.4365753077536821,-0.24058570266366003,-0.6711584090016782
1772615934637016300,5.093016357421875,-0.2167068144261837,-0.0970183587282896,-0.4331160706778988
1772615934647084300,5.103084228515625,-0.02744797889590263,-0.007645546317100524,-0.24228746508024632
1772615934657152300,5.11315234375,0.05794248588085174,0.0818605370849371,-0.2139384822240099
1772615934667220500,5.123220458984375,-0.0038730420410633083,0.13401917886734008,-0.3333130131345242
1772615934677289200,5.133289306640625,-0.11707038215398788,0.16889876906871795,-0.4956169139828533
1772615934687357200,5.143357177734375,-0.19073124617040157,0.16858371177017686,-0.5373785918481647
1772615934697425400,5.15342529296875,-0.2600567113310098,0.1467716929346323,-0.5902276270475239
1772615934707493400,5.163493408203125,-0.21518471942543982,0.19096797753572464,-0.6625501551322639
1772615934717561300,5.173561279296875,-0.15614040978252886,0.25272563779056073,-0.6188403388738631
1772615934727629300,5.18362939453125,-0.03671031275987625,0.3163075908631086,-0.5180675595154985
1772615934737697300,5.193697265625,0.12820552415251732,0.41112756276428697,-0.3123977604756132
1772615934747765200,5.20376513671875,0.30233693317770954,0.48653147105574607,-0.12231303204782307
1772615934757833200,5.213833251953125,0.4577221406787634,0.583151770377159,-0.0002918225534260273
1772615934767901200,5.223901123046875,0.5361772532343864,0.6646177551865577,0.0860062951201573
1772615934777968600,5.23396875,0.512453263297677,0.7491437120884656,0.20055077552571893
1772615934788036600,5.24403662109375,0.33651860424280167,0.7843558952450752,0.2794860362811014
1772615934798104600,5.2541044921875,0.11869184587597846,0.8482505675286054,0.25061759612802414
1772615934808172800,5.2641728515625,-0.11753975323140621,0.8713952962726355,0.20091204658616332
1772615934818241500,5.274241455078125,-0.28837621236443517,0.9111229110270738,0.152946107253246
1772615934828309500,5.2843095703125,-0.4151040651798248,0.9283633841633796,0.14048446589130908
1772615934838377700,5.294377685546875,-0.4934223996132612,0.9363508757859468,0.17348204173836856
1772615934848445700,5.30444580078125,-0.4970511115044355,0.9347609762459993,0.24691797442510724
1772615934858513700,5.314513671875,-0.485951625341177,0.8426976095765829,0.3000979586118832
1772615934868581600,5.32458154296875,-0.49204234343171116,0.7399883457303047,0.3768358554534614
1772615934878648800,5.33464892578125,-0.5173895506560802,0.591641366302967,0.3439760441092774
1772615934888716800,5.344716796875,-0.5175123002529144,0.46570904777944083,0.3278881750741973
1772615934898784500,5.354784423828125,-0.46439679613709445,0.3641062838703394,0.31694161445032804
1772615934908852500,5.3648525390625,-0.4178478109300136,0.2691495338469744,0.28409528364222497
1772615934918920700,5.374920654296875,-0.34369828661382196,0.1324672732502222,0.29665125222411004
1772615934928988700,5.38498876953125,-0.33731939923167226,0.014022680133581161,0.3818438563412055
1772615934939056600,5.395056640625,-0.47428807555437086,-0.056876317954063414,0.4218361499138176
1772615934949124600,5.40512451171875,-0.7067161907255649,-0.08114274420440197,0.39962249147482215
1772615934959193600,5.415193603515625,-1.0089964252799748,-0.0718652127712965,0.2578880620550364
1772615934969261600,5.425261474609375,-1.2454045499980448,0.016787468671798707,0.05856043511610478
1772615934979329500,5.43532958984375,-1.372543321701884,0.13101415183246135,-0.10431907366309315
1772615934989397500,5.4453974609375,-1.3233657415568827,0.2521908002614975,-0.15967351581212133
1772615934999465700,5.4554658203125,-1.0619500168323517,0.38689854591488837,-0.06304981895722449
1772615935009533700,5.46553369140625,-0.6419862366616725,0.4929740713238716,0.20498280315641312
1772615935019601700,5.4756015625,-0.22473346901535987,0.6201677880853415,0.5667610459379852
1772615935029670000,5.485669921875,0.12804536515474318,0.7661936310887336,0.9096000853739679
1772615935039737600,5.495737548828125,0.25843524760901926,0.9387333870083093,1.2075831341911107
1772615935049805600,5.5058056640625,0.3175590522289276,1.2467150480747222,1.6228715429618954
1772615935059873500,5.51587353515625,0.3244213392138481,1.09649292242527,1.6674816690608858
1772615935069941800,5.525941650390625,0.19564707526266573,0.9821317992299795,1.6834633743077516
1772615935080009700,5.536009765625,0.06951075859963894,0.8877829519718885,1.6187220220670102
1772615935090077700,5.54607763671875,-0.07469371419548988,0.6433253763109446,1.3828323682650923
1772615935100146400,5.556146484375,-0.14946984597742557,0.4872977792531252,1.111095302142948
1772615935110214700,5.566214599609375,-0.20045593684911728,0.2837298478633165,0.8674958776813
1772615935120282600,5.57628271484375,-0.2141705739468336,0.03615852409601211,0.6174542913429438
1772615935130350600,5.5863505859375,-0.19841361736655233,-0.16631459779441354,0.46009508035518226
1772615935140418600,5.59641845703125,-0.12756722624897956,-0.31117958032488824,0.36878647757582367
1772615935150486800,5.60648681640625,-0.02169277637004852,-0.30033669927120205,0.3837800485681742
1772615935160554800,5.6165546875,0.11024199743866919,-0.39315585274398324,0.3932041488651186
1772615935170622500,5.62662255859375,0.21131635355949402,-0.4752303248405456,0.39156281139887866
1772615935180690400,5.6366904296875,0.23450258335769175,-0.47548283829689025,0.4369237558651715
1772615935190758700,5.646758544921875,0.22983166893720625,-0.4471031315088272,0.45596879420541225
1772615935200826600,5.65682666015625,0.17384908495247364,-0.41210371432006354,0.38620851782411336
1772615935210894600,5.66689453125,0.1149000523775816,-0.35310967355966566,0.3108744598984718
1772615935220962600,5.676962646484375,0.06385550931692123,-0.24330372945070267,0.24025449794791637
1772615935231030800,5.68703076171875,-0.045506782677769655,-0.15676877081394194,0.24714681474491954
1772615935241098800,5.6970986328125,-0.1998275758177042,-0.07958090171515941,0.35917920273169873
1772615935251167500,5.70716748046875,-0.2980670007735491,-0.012185527834296226,0.44602351957857606
1772615935261235700,5.717235595703125,-0.28752047231793404,-0.002277297282218933,0.5052230197831988
1772615935271303700,5.7273037109375,-0.2515390583544969,-0.07971943340301513,0.4874031393237412
1772615935281371600,5.73737158203125,-0.2129588600695133,-0.1920972738265991,0.46481359677705913
1772615935291440600,5.747440673828125,-0.11088263342976569,-0.23633330591619015,0.5035347744353115
1772615935301508600,5.757508544921875,0.04768412671685218,-0.2195855847328901,0.594137384369783
1772615935311576600,5.76757666015625,0.22498539794981479,-0.1524491540491581,0.7093292958334088
1772615935321644500,5.77764453125,0.3145581168472767,-0.0743704735904932,0.8658435073643922
1772615935331712800,5.787712646484375,0.2661006676703691,-0.062136430439352984,0.9242498113647103
1772615935341780700,5.79778076171875,0.14326163898706434,-0.04925590607821941,0.8977012655265629
1772615935351848700,5.8078486328125,0.06609890432953834,-0.09130699534416198,0.8747660878799856
1772615935361916400,5.81791650390625,-0.05075228211581707,-0.18096446991562842,0.8943240441784263
1772615935371984600,5.827984619140625,-0.189257081964612,-0.26974983782768247,0.8728123965289443
1772615935382053600,5.8380537109375,-0.29058336701989174,-0.29421207891106604,0.8213780504330992
1772615935392121600,5.84812158203125,-0.36665070765614505,-0.36575931177437304,0.6772172706492244
1772615935402189800,5.85818994140625,-0.4287035514652729,-0.44809038898050785,0.5216719772156327
1772615935412257800,5.8682578125,-0.4272644585728645,-0.5492389793813228,0.4986902935462072
1772615935422325500,5.878325439453125,-0.3170844204545021,-0.5754588777869939,0.5372553307946771
1772615935432393500,5.8883935546875,-0.10191489859819412,-0.6019143385142087,0.6916865255065262
1772615935442461700,5.898461669921875,0.07092763966023921,-0.8305880695879458,0.8232517353504896
1772615935452529700,5.90852978515625,0.07640811689794064,-0.8566758660465479,0.714399000313133
1772615935462597600,5.91859765625,0.027303017467260358,-0.7558592840790748,0.3723117290925234
1772615935472665600,5.92866552734375,-0.1116319904923439,-0.6899322291851043,0.07256693129986524
1772615935482733800,5.93873388671875,-0.2663952667027712,-0.7244248658955097,-0.19410744460523127
1772615935492801800,5.9488017578125,-0.28590543833673,-0.7490729849398136,-0.41114297952912743
1772615935502869500,5.958869384765625,-0.19709668954908846,-0.6790741505622864,-0.5448848027598112
1772615935512937500,5.9689375,-0.12943302012085914,-0.5209989733248949,-0.6157598354499787
1772615935523006700,5.9790068359375,-0.10106909542381763,-0.3832505448013544,-0.5521568395894021
1772615935533074700,5.98907470703125,-0.07510171047449112,-0.18790683639943598,-0.34563151969872413
1772615935543142700,5.999142578125,-0.08269348077774047,0.06169920806586742,-0.020390826926007865
1772615935553210600,6.009210693359375,-0.1249731181025505,0.22941899648308753,0.29315431348644194
1772615935563278600,6.019278564453125,-0.22753215982317923,0.35919746904075145,0.48762452698945996
1772615935573346600,6.0293466796875,-0.30931320193111894,0.4900280809998512,0.6489023727256804
1772615935583414500,6.03941455078125,-0.3908458222359419,0.5625555570721626,0.8021982067320496
1772615935593482800,6.049482666015625,-0.41856794189810753,0.6329799233853817,0.8325373039595783
1772615935603550700,6.05955078125,-0.351270183172822,0.7511176425099373,0.8279466151684522
1772615935613618700,6.06961865234375,-0.289719443666935,0.8435404901415109,0.8701908889189363
1772615935623686700,6.079686767578125,-0.3372556863456964,0.8812199401944876,0.8966293985113502
1772615935633754600,6.089754638671875,-0.461359620398283,0.8662000657171011,0.9211102712299675
1772615935643822600,6.099822509765625,-0.5762146645903587,0.8102706732243299,0.8880567274119704
1772615935653890600,6.109890625,-0.6012818858295679,0.7414046422690153,0.7825237844470888
1772615935663959800,6.119959716796875,-0.5663292303919791,0.631237463632226,0.6568875993259251
1772615935674027800,6.13002783203125,-0.5107260011136532,0.47844987140893935,0.45257447559200226
1772615935684095700,6.140095703125,-0.4805862989157438,0.3816688285678625,0.20059826792925595
1772615935694163500,6.15016357421875,-0.4964519765675068,0.32141280504763126,-0.031443843599036334
1772615935704231700,6.160231689453125,-0.5032803612828255,0.31729777094423767,-0.20201617190316318
1772615935714299600,6.170299560546875,-0.4434124602973461,0.4134042755246162,-0.29179456944055854
1772615935724367600,6.18036767578125,-0.40329964561760423,0.5693541311711072,-0.3190329241737723
1772615935734435600,6.190435546875,-0.3662427113771438,0.6768821934759617,-0.2533526471151039
1772615935744503800,6.20050390625,-0.2843874349892139,0.7453472424149513,-0.10029960888866335
1772615935754571800,6.21057177734375,-0.15010522127151488,0.8295306694895028,0.022976496037654576
1772615935764639700,6.2206396484375,-0.03630699265599251,0.8738736690849065,0.12493760839775205
1772615935774707500,6.23070751953125,-0.007119476616382598,0.795952809536457,0.2387147211600095
1772615935784775400,6.240775390625,-0.03088964378237724,0.7101105093389749,0.23427388916835187
1772615935794844700,6.2508447265625,-0.11689853271842002,0.6563339109659194,0.102701920790039
1772615935804912600,6.26091259765625,-0.2571148126602173,0.5736690717607736,-0.05665251913554966
1772615935814980600,6.270980712890625,-0.36692134129106996,0.48119653976857657,-0.15621248863805084
1772615935825048600,6.281048583984375,-0.3963450041741132,0.4584136300742626,-0.18763105166535823
1772615935835116500,6.291116455078125,-0.38449265381693837,0.41703181837201114,-0.12401241984423249
1772615935845184500,6.3011845703125,-0.3084790891945362,0.3177028446137905,-0.07844418930280952
1772615935855252500,6.31125244140625,-0.18964871163070202,0.27499183013439177,-0.0534427267761901
1772615935865320700,6.32132080078125,-0.11579437086880207,0.2142483153581619,-0.0052606239419430495
1772615935875388700,6.331388671875,-0.13040332645773886,0.14287468549609184,0.03854183903597295
1772615935885456600,6.34145654296875,-0.2435240942031145,0.07501753932237624,0.0051914311632514
1772615935895524600,6.351524658203125,-0.39447044247388835,0.02246200717687607,-0.08284143788106739
1772615935905592600,6.361592529296875,-0.5940332298755645,-0.0207569568246603,-0.20023951761946082
1772615935915660500,6.37166064453125,-0.7405915723204612,-0.0694429540604353,-0.33825288068950177
1772615935925728500,6.381728515625,-0.8644523452669381,-0.10600187565088272,-0.3497386262239888
1772615935935796500,6.39179638671875,-0.9717992057859897,-0.18244447934031485,-0.28433906580284235
1772615935945865700,6.40186572265625,-0.935830066782236,-0.12972411202192305,-0.14131993033476173
1772615935955933700,6.41193359375,-0.7222340778529643,-0.061756491211056704,-0.0004611147057265043
1772615935966001400,6.42200146484375,-0.42354046961367126,0.044727614998817444,0.18450203292462974
1772615935976069600,6.432069580078125,-0.11612637930214405,0.20033435629606247,0.4400956273669377
1772615935986137600,6.4421376953125,0.19332944597005844,0.43139293667972084,0.675400722746551
1772615935996205600,6.45220556640625,0.4659422720134258,0.6793138045370578,0.8977211392708122
1772615936006273500,6.4622734375,0.6763321583777666,0.8404659050017594,1.1113288186378776
1772615936016341800,6.472341796875,0.7731050179123878,0.9379980584710836,1.230864129600674
1772615936026409700,6.48240966796875,0.7761655745267868,0.951046925136447,1.1870289333969355
1772615936036477400,6.4924775390625,0.7296896545559167,0.9158692287713289,0.9888002441432326
1772615936046545400,6.50254541015625,0.6395651469945908,0.8205570894390344,0.7738761484153568
1772615936056613600,6.512613525390625,0.4676981757700443,0.5914058039814234,0.5528850077334792
1772615936066681600,6.522681640625,0.2491056937277317,0.3813718914479017,0.30278716116324067
1772615936076750600,6.53275048828125,0.007965864312648773,0.23709961411356925,0.16461108181215822
1772615936086818800,6.54281884765625,-0.24606208824813364,0.08702361893653869,0.1503031184637919
1772615936096886500,6.552886474609375,-0.5029413385868072,0.01172434006333351,0.08365428863391279
1772615936106954500,6.56295458984375,-0.7711603135854005,-0.03291851926147937,-0.046897323720715936
1772615936117022500,6.5730224609375,-1.0245791943371296,-0.03533434823155403,-0.1840184871913865
1772615936127090700,6.583090576171875,-1.1767752504080533,0.05057751007080078,-0.2678760433124378
1772615936137158700,6.59315869140625,-1.2171955236017704,0.2088672068417072,-0.2543426810657605
1772615936147226600,6.6032265625,-1.0899702426582574,0.28589959311783314,-0.18820888808593153
1772615936157294600,6.613294677734375,-0.8262877420455217,0.4117003942161798,-0.11415383712016046
1772615936167362800,6.62336279296875,-0.48902387239336964,0.4794745382815599,-0.013323226627334952
1772615936177430500,6.633430419921875,-0.20512334413826463,0.4490378989636898,0.048354061867669225
1772615936187498500,6.64349853515625,0.03842237737476825,0.3860439749121666,-0.006942439549043774
1772615936197566500,6.65356640625,0.2109159560650587,0.35799043133854863,-0.12086422147899865
1772615936207634700,6.663634765625,0.33314474389553067,0.3386848423659801,-0.21906652929484843
1772615936217703700,6.67370361328125,0.46362639628648755,0.26460546067655083,-0.23202494119778275
1772615936227771600,6.683771728515625,0.5833920088738203,0.21933190223276613,-0.17719152724817394
1772615936237839600,6.693839599609375,0.6338099444687366,0.1873223145097494,-0.1047055522300303
1772615936247907600,6.703907470703125,0.5979524491459131,0.07028525010347365,-0.08861936369538306
1772615936257975600,6.7139755859375,0.46413668389618395,-0.06864858881235122,-0.11436689534895121
1772615936268043500,6.72404345703125,0.29056407779753207,-0.16752572714984415,-0.2529639035258442
1772615936278111700,6.73411181640625,0.09042436729073523,-0.2857791816085577,-0.39780039061419664
1772615936288179700,6.7441796875,-0.12072598205208777,-0.38757308417558667,-0.47488750275224445
1772615936298247700,6.75424755859375,-0.29124387675523755,-0.4270172058135271,-0.4282982586000114
1772615936308315400,6.7643154296875,-0.43845103849768635,-0.4213993659317493,-0.2811616413431242
1772615936318383600,6.774383544921875,-0.5126911637067795,-0.349343599024415,-0.08570800629332662
1772615936328451600,6.78445166015625,-0.536088405907154,-0.33694647426605223,0.1232185660528019
1772615936338519600,6.79451953125,-0.49421150416433807,-0.3640998541295528,0.2778765552578494
1772615936348587500,6.80458740234375,-0.42542204557657237,-0.41579964622855187,0.32986068072356284
1772615936358656800,6.81465673828125,-0.38376960023939605,-0.5321785389870405,0.24870251975432037
1772615936368724500,6.824724365234375,-0.45762569456696506,-0.7202998949199915,0.0338867797717452
1772615936378792400,6.83479248046875,-0.6355114876896143,-0.8341951541692018,-0.2802297673204914
1772615936388860700,6.844860595703125,-0.8625871359169482,-0.8577420339733361,-0.5834786642439663
1772615936398928600,6.8549287109375,-1.0891104109585286,-0.7315051795452833,-0.8226426635414361
1772615936408996600,6.86499658203125,-1.2531541412115097,-0.4954436763077974,-0.8815630545437335
1772615936419064600,6.875064697265625,-1.309911216700077,-0.2069587428718805,-0.8425006987649947
1772615936429132800,6.8851328125,-1.214784955328703,0.08468553137779235,-0.7085463287621736
1772615936439200500,6.895200439453125,-0.9349076912403106,0.2983925794661045,-0.5169049454769119
1772615936449268500,6.9052685546875,-0.563368042498827,0.3874994344174862,-0.34646800705548375
1772615936459336400,6.91533642578125,-0.19146715922951696,0.4614478832036257,-0.2367253374410793
1772615936469404700,6.92540478515625,0.09330021498799324,0.5081126037448644,-0.14556571467835455
1772615936479472600,6.93547265625,0.2703331906735897,0.5123083018690348,-0.10381612910963595
1772615936489540600,6.94554052734375,0.3669599197357893,0.48778643955290313,-0.07953991211764513
1772615936499609600,6.955609619140625,0.36929333111941814,0.441122303533554,-0.11727832581624388
1772615936509677600,6.965677490234375,0.30124504628777504,0.4399123432219028,-0.24144469411317257
1772615936519745500,6.97574560546875,0.20357202304303645,0.47257893354892727,-0.3494960131071508
1772615936529813500,6.9858134765625,0.09089256932437419,0.4795487725615501,-0.3287534136014059
1772615936539881700,6.9958818359375,-0.045482817280292506,0.5383639496237039,-0.1891760891502723
1772615936549949700,7.00594970703125,-0.18910101462006568,0.6377753409683704,-0.009571911269798875
1772615936560017700,7.016017578125,-0.30322774453759194,0.6862620162397622,0.21307012015795335
1772615936570085600,7.026085693359375,-0.3481710481137037,0.7143675822615623,0.43353360197022556
1772615936580153600,7.036153564453125,-0.3429255486756563,0.7306880179435015,0.6279321384765207
1772615936590221600,7.0462216796875,-0.32609774799346924,0.6499561926275491,0.7513438524812459
1772615936600289500,7.05628955078125,-0.3271972336679697,0.6793529675036668,0.8892761862043291
1772615936610357500,7.066357421875,-0.3343991278707981,0.7011638172954321,1.1026242647871374
1772615936620425700,7.07642578125,-0.38969957481026646,0.5979314063578843,1.2598260201908646
1772615936630493700,7.08649365234375,-0.4768699087411165,0.5480915629118681,1.1899201247937976
1772615936640562400,7.0965625,-0.6015601182490586,0.46439679613709445,1.0655771212883294
1772615936650630700,7.106630615234375,-0.8682435542434453,0.378152344879508,0.982736048733443
1772615936660698600,7.11669873046875,-1.1127660118341445,0.30866496715545655,0.8691871187038719
1772615936670766600,7.1267666015625,-1.3381143978774548,0.29623335560560227,0.7271350747022778
1772615936680834600,7.13683447265625,-1.4935177255570888,0.2556920863807201,0.6045884165616706
1772615936690902800,7.14690283203125,-1.509827055323124,0.24002865330278872,0.4847731561463326
1772615936700970800,7.156970703125,-1.3580138610899448,0.24807693520188331,0.47169162932038305
1772615936711038500,7.16703857421875,-1.12262163541615,0.28221652069091796,0.6178836957361549
1772615936721106400,7.1771064453125,-0.8326227902859449,0.3598714227795601,0.834716474629566
1772615936731174700,7.187174560546875,-0.5652174697577953,0.43503626161813735,1.0244093176629394
1772615936741242600,7.19724267578125,-0.3090653646498918,0.4597486780703067,1.1320547958023846
1772615936751310600,7.207310546875,-0.11489479168057441,0.4139291761815548,1.0921648300930857
1772615936761378600,7.217378662109375,-0.01112228251695633,0.3428922309279442,0.8748064929556101
1772615936771446800,7.22744677734375,-0.0015396306574344634,0.29943244390785695,0.5458206953704356
1772615936781515500,7.237515625,-0.02339548863470554,0.27118308550119397,0.26761023198310285
1772615936791583500,7.24758349609375,0.0071592241048812864,0.2514490419834852,0.0721981345200911
1772615936801651700,7.257651611328125,0.03504325633049011,0.23861586389541625,0.07038079203297384
1772615936811719700,7.2677197265625,0.07785363953113555,0.2661374925494194,0.14831557050892152
1772615936821787600,7.27778759765625,0.16852292149364947,0.27955110087394713,0.24165369722135363
1772615936831855600,7.287855712890625,0.3002092734992504,0.22209552172720431,0.30210253989994523
1772615936841923800,7.297923828125,0.3553741113603115,0.1462660815000534,0.4060687450047582
1772615936851991600,7.307991455078125,0.3498316748023033,0.07123860530555248,0.43915626415759323
1772615936862059500,7.3180595703125,0.34564065285325046,0.057552025258541105,0.34699466127809137
1772615936872127500,7.32812744140625,0.2853659246325493,0.028099720802903173,0.2638051771443337
1772615936882195700,7.33819580078125,0.16699790388345717,0.008975333616137504,0.16194854807201772
1772615936892263700,7.348263671875,0.01505143865942955,0.06849427503347397,0.06171353798531927
1772615936902331600,7.35833154296875,-0.1084422545403242,0.08128653658926487,0.04755648174919188
1772615936912400400,7.368400390625,-0.20490882460474966,0.07962357181310653,0.14580420874250122
1772615936922468600,7.378468505859375,-0.20998130556344985,0.14475333884954453,0.24517650105264036
1772615936932536600,7.38853662109375,-0.2079348944276571,0.2602408357262611,0.41210769637543704
1772615936942604500,7.3986044921875,-0.13953414289653301,0.3653139060944319,0.5165229238893836
1772615936952672800,7.4086728515625,-0.029126725763082503,0.3813841664075851,0.5977894040713086
1772615936962740700,7.41874072265625,0.09917407545745373,0.29344810880124567,0.6299274770122021
1772615936972808700,7.42880859375,0.20782792692184446,0.18597499155402183,0.6310859263323247
1772615936982876400,7.43887646484375,0.21755670925378798,0.21689619951844213,0.6094140466198325
1772615936992944600,7.448944580078125,0.19447101722061633,0.18633973321318625,0.46289187146686017
1772615937003012600,7.4590126953125,0.2400993804514408,0.20017770442962646,0.3393145916368812
1772615937013080600,7.46908056640625,0.24274083487093448,0.009447627303004264,0.3294676262853667
1772615937023148500,7.4791484375,0.20703414619565008,-0.10188801059126854,0.26590835996866224
1772615937033216800,7.489216796875,0.07493161460459231,-0.023145897787809372,0.2890532531094737
1772615937043284700,7.49928466796875,-0.07348550744950771,0.013068740409612655,0.36881230613682414
1772615937053352700,7.509352783203125,-0.23642916750609874,0.008200257590413092,0.4677318588439375
1772615937063421400,7.51942138671875,-0.37992753785848615,0.04452069424986839,0.46245512401740996
1772615937073489700,7.52948974609375,-0.5310474891304969,0.04330313515365124,0.4117670297116041
1772615937083557600,7.5395576171875,-0.6221282745033502,0.02895896798074245,0.4194913038207218
1772615937093625600,7.54962548828125,-0.641086657473445,0.07505553324520588,0.4800529226914048
1772615937103693600,7.559693603515625,-0.5684726721614599,0.1846604018241167,0.5381668561490253
