time,seconds_elapsed,z,y,x
1772615929613050000,0.069050048828125,0.3103947341442108,0.29772835969924927,0.018372250720858574
1772615929623118000,0.0791181640625,0.32972097396850586,0.2617282271385193,0.028615878894925117
1772615929633186300,0.089186279296875,0.3487474024295807,0.2382066547870636,0.030651597306132317
1772615929643254300,0.099254150390625,0.3728589117527008,0.22103898227214813,0.021950148046016693
1772615929653322200,0.109322265625,0.3929000198841095,0.21591080725193024,0.008860445581376553
1772615929663390200,0.11939013671875,0.3917112946510315,0.23334529995918274,-0.007489454001188278
1772615929673458400,0.12945849609375,0.3725312054157257,0.2501210868358612,-0.015720751136541367
1772615929683526400,0.1395263671875,0.34795907139778137,0.25351524353027344,-0.02949610911309719
1772615929693594000,0.149593994140625,0.3249429762363434,0.26581132411956787,-0.03990933299064636
1772615929703662000,0.159662109375,0.30685955286026,0.26657363772392273,-0.045203596353530884
1772615929713731300,0.1697314453125,0.3013955354690552,0.27003413438796997,-0.04241100326180458
1772615929723799300,0.17979931640625,0.3197491466999054,0.272004097700119,-0.045093223452568054
1772615929733867300,0.1898671875,0.3379545211791992,0.25553885102272034,-0.039132002741098404
1772615929743935200,0.199935302734375,0.3600955009460449,0.23689603805541992,-0.037305768579244614
1772615929754003200,0.210003173828125,0.3820125162601471,0.2237520068883896,-0.04227443039417267
1772615929764071200,0.2200712890625,0.40111997723579407,0.20916439592838287,-0.0595046803355217
1772615929774139000,0.230138916015625,0.40898481011390686,0.1924288123846054,-0.0709722489118576
1772615929784206800,0.240206787109375,0.40593671798706055,0.2188299000263214,-0.10733513534069061
1772615929794275000,0.250275146484375,0.3764331638813019,0.253679484128952,-0.13783365488052368
1772615929804343000,0.260343017578125,0.3389327824115753,0.2860621511936188,-0.15764009952545166
1772615929814411000,0.270410888671875,0.309596985578537,0.32418370246887207,-0.16424766182899475
1772615929824479000,0.28047900390625,0.28645989298820496,0.3427606225013733,-0.16881509125232697
1772615929834547000,0.290546875,0.2789822518825531,0.36235058307647705,-0.16568055748939514
1772615929844615000,0.300614990234375,0.28994929790496826,0.38348761200904846,-0.16364379227161407
1772615929854684000,0.310683837890625,0.3105584383010864,0.39671072363853455,-0.16725237667560577
1772615929864752000,0.320752197265625,0.34090152382850647,0.42930111289024353,-0.1810394525527954
1772615929874820000,0.330820068359375,0.3608291447162628,0.4393438994884491,-0.2023511379957199
1772615929884887800,0.3408876953125,0.3727712631225586,0.4500572085380554,-0.2199401706457138
1772615929894955800,0.350955810546875,0.38302361965179443,0.46452590823173523,-0.23609277606010437
1772615929905024000,0.36102392578125,0.3805014491081238,0.47207221388816833,-0.2512570321559906
1772615929915092000,0.371092041015625,0.38178375363349915,0.4938685894012451,-0.2619616389274597
1772615929925160000,0.381159912109375,0.377823144197464,0.5231679677963257,-0.2788549065589905
1772615929935228000,0.391227783203125,0.37328219413757324,0.5434282422065735,-0.2979079782962799
1772615929945296100,0.401296142578125,0.37095773220062256,0.5385427474975586,-0.3031182587146759
1772615929955364000,0.411364013671875,0.37228158116340637,0.5846598744392395,-0.326572448015213
1772615929965431800,0.421431884765625,0.36437496542930603,0.5957005023956299,-0.3361232280731201
1772615929975499800,0.431499755859375,0.3603120446205139,0.628494918346405,-0.33948200941085815
1772615929985568000,0.441568115234375,0.3505116105079651,0.6405478119850159,-0.30506059527397156
1772615929995636000,0.451635986328125,0.34988656640052795,0.6387621760368347,-0.24923832714557648
1772615930005705000,0.461705078125,0.3622714877128601,0.6348402500152588,-0.18014296889305115
1772615930015773200,0.471773193359375,0.37849920988082886,0.6057124733924866,-0.08455386012792587
1772615930025841000,0.4818408203125,0.39640775322914124,0.6018087267875671,-0.0024339628871530294
1772615930035908900,0.491908935546875,0.39676034450531006,0.5462048053741455,0.09600259363651276
1772615930045976800,0.501976806640625,0.402305006980896,0.5063580274581909,0.17706313729286194
1772615930056045000,0.512045166015625,0.4012855589389801,0.4491581320762634,0.21599748730659485
1772615930066113000,0.522113037109375,0.4013005495071411,0.3610227108001709,0.20795804262161255
1772615930076181000,0.532180908203125,0.41177690029144287,0.29510629177093506,0.1526351422071457
1772615930086249000,0.5422490234375,0.39539527893066406,0.2532069683074951,0.07177308946847916
1772615930096317000,0.55231689453125,0.33415746688842773,0.21042408049106598,-0.019990382716059685
1772615930106385000,0.562385009765625,0.232627734541893,0.20043089985847473,-0.10253576189279556
1772615930116452900,0.572452880859375,0.12501712143421173,0.22315511107444763,-0.17129191756248474
1772615930126520800,0.582520751953125,0.03722506761550903,0.26833152770996094,-0.21625110507011414
1772615930136589000,0.592589111328125,-0.020217716693878174,0.32809150218963623,-0.2362106889486313
1772615930146657000,0.602656982421875,-0.043393928557634354,0.391292542219162,-0.2284136712551117
1772615930156725800,0.612725830078125,-0.043952394276857376,0.43704912066459656,-0.19226953387260437
1772615930166794000,0.6227939453125,-0.011906412430107594,0.4651705026626587,-0.12690335512161255
1772615930176862000,0.632862060546875,0.05252930149435997,0.48650693893432617,-0.054071493446826935
1772615930186930000,0.642929931640625,0.1402173787355423,0.4581402838230133,0.01853364333510399
1772615930196998000,0.652997802734375,0.23182639479637146,0.40400779247283936,0.08592972904443741
1772615930207066000,0.663066162109375,0.3199629783630371,0.35716211795806885,0.12641285359859467
1772615930217134000,0.673134033203125,0.39972785115242004,0.34035223722457886,0.151529923081398
1772615930227202000,0.6832021484375,0.46179628372192383,0.3428737223148346,0.1680058240890503
1772615930237269800,0.693269775390625,0.5057395100593567,0.3442065119743347,0.19524863362312317
1772615930247338000,0.703337890625,0.5296354293823242,0.34446239471435547,0.240468367934227
1772615930257406000,0.713406005859375,0.5137901902198792,0.33266884088516235,0.31028077006340027
1772615930267474000,0.723473876953125,0.4727526307106018,0.33344265818595886,0.3865789473056793
1772615930277542000,0.7335419921875,0.39769411087036133,0.3310745656490326,0.46214985847473145
1772615930287610000,0.743610107421875,0.2912050187587738,0.3352702260017395,0.519067645072937
1772615930297678800,0.753678955078125,0.18490652740001678,0.3416666090488434,0.5353512763977051
1772615930307746800,0.763746826171875,0.08328630775213242,0.3193188011646271,0.5487528443336487
1772615930317815000,0.77381494140625,0.005380587186664343,0.28779336810112,0.533259391784668
1772615930327883000,0.783883056640625,-0.051125671714544296,0.26796942949295044,0.47561115026474
1772615930337951000,0.793950927734375,-0.09061022847890854,0.2597349286079407,0.3917868435382843
1772615930348019000,0.80401904296875,-0.11498094350099564,0.27790719270706177,0.29500487446784973
1772615930358087200,0.814087158203125,-0.12172140181064606,0.2807900607585907,0.20806200802326202
1772615930368155000,0.82415478515625,-0.12267489731311798,0.2515180706977844,0.14253133535385132
1772615930378222800,0.834222900390625,-0.12050788104534149,0.2126026451587677,0.08995520323514938
1772615930388290800,0.844290771484375,-0.10034243017435074,0.18083596229553223,0.06298860907554626
1772615930398359000,0.854359130859375,-0.07323811203241348,0.140671506524086,0.04875561222434044
1772615930408427000,0.864427001953125,-0.03779933974146843,0.11291982233524323,0.06524839997291565
1772615930418495000,0.874494873046875,0.01274879090487957,0.11627780646085739,0.10476119071245193
1772615930428563000,0.88456298828125,0.05566504970192909,0.11420582979917526,0.15244436264038086
1772615930438631200,0.894631103515625,0.09719517827033997,0.09231863915920258,0.20544792711734772
1772615930448700000,0.904699951171875,0.13060437142848969,0.0630035400390625,0.24665617942810059
1772615930458768000,0.914767822265625,0.15363751351833344,0.01133901160210371,0.26799795031547546
1772615930468836000,0.924836181640625,0.15837836265563965,-0.1001114696264267,0.27747583389282227
1772615930478904000,0.934904052734375,0.15697833895683289,-0.1860620677471161,0.22422830760478973
1772615930488972000,0.944971923828125,0.15983609855175018,-0.19671748578548431,0.09408774226903915
1772615930499040000,0.9550400390625,0.14984898269176483,-0.1854323297739029,-0.0724671483039856
1772615930509108000,0.96510791015625,0.13077779114246368,-0.14533430337905884,-0.23099541664123535
1772615930519176000,0.975176025390625,0.10390329360961914,-0.05291382595896721,-0.36493244767189026
1772615930529244000,0.985243896484375,0.08633727580308914,0.020967751741409302,-0.43631064891815186
1772615930539311900,0.995311767578125,0.07987990230321884,0.05893350765109062,-0.43096300959587097
1772615930549380000,1.005380126953125,0.0907786637544632,0.09486719965934753,-0.3574899137020111
1772615930559448000,1.015447998046875,0.11000481992959976,0.09231854975223541,-0.25269371271133423
1772615930569516000,1.02551611328125,0.13109341263771057,0.08306518942117691,-0.1449842005968094
1772615930579585000,1.0355849609375,0.16277198493480682,0.06667662411928177,-0.03946124017238617
1772615930589653000,1.045653076171875,0.18606480956077576,0.019058723002672195,0.04354492574930191
1772615930599721000,1.055720947265625,0.21214993298053741,-0.021459141746163368,0.10474090278148651
1772615930609789000,1.065788818359375,0.23267526924610138,-0.049885671585798264,0.1372307538986206
1772615930619857200,1.075857177734375,0.2457151710987091,-0.07637080550193787,0.13595697283744812
1772615930629925000,1.085925048828125,0.2584095001220703,-0.09857585281133652,0.12176582962274551
1772615930639992800,1.095992919921875,0.24741677939891815,-0.12243431806564331,0.10856641083955765
1772615930650060800,1.106060791015625,0.22344008088111877,-0.13053488731384277,0.09334880113601685
1772615930660129000,1.11612890625,0.20259737968444824,-0.09467995911836624,0.06408519297838211
1772615930670197000,1.126197021484375,0.18392299115657806,-0.04220757260918617,0.03191137686371803
1772615930680265000,1.136264892578125,0.1593364179134369,-0.0027163538616150618,-0.001577606424689293
1772615930690333000,1.1463330078125,0.1368277370929718,0.0420144684612751,-0.02939365617930889
1772615930700401200,1.156401123046875,0.12573859095573425,0.10916341096162796,-0.06096702814102173
1772615930710469000,1.16646923828125,0.1265183985233307,0.18820685148239136,-0.1006772443652153
1772615930720536800,1.176536865234375,0.11820747703313828,0.17568759620189667,-0.12949398159980774
1772615930730606000,1.186606201171875,0.1040964350104332,0.18055760860443115,-0.1385175585746765
1772615930740674000,1.196674072265625,0.09631015360355377,0.15693563222885132,-0.1428624987602234
1772615930750742000,1.206741943359375,0.08908747136592865,0.14482733607292175,-0.1387273371219635
1772615930760810000,1.21681005859375,0.0977770984172821,0.1476990282535553,-0.140859454870224
1772615930770878000,1.2268779296875,0.11647576838731766,0.16331735253334045,-0.14334139227867126
1772615930780946000,1.23694580078125,0.14546507596969604,0.17818444967269897,-0.14882990717887878
1772615930791014000,1.247013916015625,0.16662107408046722,0.20117293298244476,-0.14991381764411926
1772615930801082000,1.25708203125,0.18744726479053497,0.24632683396339417,-0.14979690313339233
1772615930811150000,1.267150146484375,0.20529204607009888,0.3021847605705261,-0.15281692147254944
1772615930821218000,1.277218017578125,0.22782744467258453,0.34835439920425415,-0.16237765550613403
1772615930831286000,1.2872861328125,0.2630325257778168,0.36824315786361694,-0.16983520984649658
1772615930841354200,1.297354248046875,0.2974187433719635,0.3641868829727173,-0.1743047833442688
1772615930851422000,1.307421875,0.3225691020488739,0.34761843085289,-0.182768315076828
1772615930861490000,1.317489990234375,0.33859360218048096,0.3270324766635895,-0.18026867508888245
1772615930871558000,1.327557861328125,0.3436366319656372,0.32348600029945374,-0.17599926888942719
1772615930881627100,1.337627197265625,0.3416464626789093,0.32467377185821533,-0.15902455151081085
1772615930891695000,1.347695068359375,0.3416217565536499,0.3345377445220947,-0.14332526922225952
1772615930901763000,1.35776318359375,0.34110698103904724,0.3510110080242157,-0.1274445801973343
1772615930911830800,1.367830810546875,0.3361312448978424,0.38214007019996643,-0.10746130347251892
1772615930921899000,1.37789892578125,0.33115991950035095,0.4370826780796051,-0.08348699659109116
1772615930931967000,1.387967041015625,0.3165305256843567,0.5164321660995483,-0.06524942070245743
1772615930942035000,1.398034912109375,0.301344633102417,0.6103464365005493,-0.047801192849874496
1772615930952103000,1.40810302734375,0.27623307704925537,0.6751528382301331,-0.017799459397792816
1772615930962171100,1.418171142578125,0.2511575520038605,0.7205216884613037,0.017699945718050003
1772615930972239000,1.428239013671875,0.2370508462190628,0.7224574089050293,0.05171426758170128
1772615930982307000,1.43830712890625,0.24430476129055023,0.678698718547821,0.07372209429740906
1772615930992375000,1.448375,0.28760600090026855,0.6123587489128113,0.06581814587116241
1772615931002443000,1.458443115234375,0.3525890111923218,0.5636812448501587,0.04348247870802879
1772615931012511000,1.468510986328125,0.4115860164165497,0.5493989586830139,0.008482418954372406
1772615931022580000,1.478580078125,0.45149296522140503,0.5391992926597595,-0.03728533536195755
1772615931032648200,1.488648193359375,0.47982099652290344,0.5196200609207153,-0.07548540830612183
1772615931042716000,1.4987158203125,0.5043260455131531,0.503576397895813,-0.09929727017879486
1772615931052783900,1.508783935546875,0.5197604298591614,0.5102844834327698,-0.11146372556686401
1772615931062851800,1.518851806640625,0.519549548625946,0.5446078777313232,-0.10852599889039993
1772615931072920000,1.528920166015625,0.502474844455719,0.6039570569992065,-0.0888756662607193
1772615931082988000,1.538988037109375,0.4569219946861267,0.6709973216056824,-0.04130202531814575
1772615931093056000,1.549055908203125,0.4093417525291443,0.7089540362358093,0.03038831613957882
1772615931103124000,1.5591240234375,0.366710364818573,0.7145293951034546,0.12665946781635284
1772615931113192200,1.569192138671875,0.3265514373779297,0.7068765163421631,0.22399145364761353
1772615931123260000,1.579260009765625,0.29134443402290344,0.7045004367828369,0.3046053349971771
1772615931133328000,1.589327880859375,0.2720404863357544,0.6747355461120605,0.3483547866344452
1772615931143395800,1.599395751953125,0.2711850702762604,0.6437118053436279,0.35191676020622253
1772615931153464000,1.609464111328125,0.27248844504356384,0.6278016567230225,0.3281429708003998
1772615931163532000,1.619531982421875,0.2788427472114563,0.6242820024490356,0.2710155248641968
1772615931173600000,1.62960009765625,0.27043598890304565,0.6274710893630981,0.2112247794866562
1772615931183669000,1.6396689453125,0.2568812966346741,0.6237655282020569,0.14403802156448364
1772615931193737000,1.649737060546875,0.24315108358860016,0.6152641773223877,0.08428816497325897
1772615931203805000,1.659804931640625,0.23618052899837494,0.6246675252914429,0.04111671820282936
1772615931213873000,1.669872802734375,0.23402021825313568,0.6322221159934998,0.019175684079527855
1772615931223941000,1.679941162109375,0.24128931760787964,0.6211047172546387,0.016945287585258484
1772615931234009000,1.690009033203125,0.2547517716884613,0.5893288254737854,0.02088073268532753
1772615931244077000,1.7000771484375,0.2743001878261566,0.5421005487442017,0.030782632529735565
1772615931254145000,1.71014501953125,0.3005993068218231,0.48976728320121765,0.035618964582681656
1772615931264213000,1.720212890625,0.32468360662460327,0.43931156396865845,0.027264628559350967
1772615931274281000,1.730281005859375,0.3379131257534027,0.4546637237071991,-0.000571823213249445
1772615931284349000,1.740348876953125,0.33961036801338196,0.4713580310344696,-0.03163094073534012
1772615931294417000,1.7504169921875,0.334812730550766,0.5000386834144592,-0.06996774673461914
1772615931304485000,1.760485107421875,0.34364670515060425,0.5461282134056091,-0.10592947900295258
1772615931314553900,1.770553955078125,0.3566476106643677,0.5708774328231812,-0.13236463069915771
1772615931324621800,1.780621826171875,0.37709349393844604,0.5691251158714294,-0.13828936219215393
1772615931334690000,1.79068994140625,0.4048837125301361,0.5514912605285645,-0.11565880477428436
1772615931344758000,1.800758056640625,0.438444048166275,0.5048143267631531,-0.07863660901784897
1772615931354826000,1.810825927734375,0.48455798625946045,0.43756645917892456,-0.04516594856977463
1772615931364894000,1.82089404296875,0.5420199036598206,0.3886740207672119,-0.03276387229561806
1772615931374962200,1.830962158203125,0.600254476070404,0.3749024271965027,-0.04046385735273361
1772615931385030100,1.841030029296875,0.6420392394065857,0.382680207490921,-0.047410715371370316
1772615931395097900,1.851097900390625,0.6515968441963196,0.4077294170856476,-0.045583952218294144
1772615931405165800,1.861165771484375,0.6327507495880127,0.4237760305404663,-0.0360754020512104
1772615931415234000,1.871234130859375,0.5860894322395325,0.43099045753479004,-0.016935478895902634
1772615931425302000,1.881302001953125,0.5170307159423828,0.4297161400318146,0.004787127487361431
1772615931435370000,1.891369873046875,0.4374275207519531,0.44932079315185547,0.02488204836845398
1772615931445438000,1.90143798828125,0.36007362604141235,0.49745848774909973,0.04275159165263176
1772615931455506200,1.911506103515625,0.29444798827171326,0.5451186895370483,0.07470205426216125
1772615931465575000,1.921574951171875,0.258195698261261,0.5701915621757507,0.10438138991594315
1772615931475643000,1.931642822265625,0.2548827826976776,0.5756264328956604,0.1185847595334053
1772615931485711000,1.941711181640625,0.26927661895751953,0.5809077620506287,0.11511892080307007
1772615931495779000,1.951779052734375,0.29321596026420593,0.5646228194236755,0.10014759004116058
1772615931505847000,1.961846923828125,0.32349902391433716,0.5211065411567688,0.08621765673160553
1772615931515915000,1.9719150390625,0.34023159742355347,0.45872142910957336,0.0766531229019165
1772615931525983000,1.98198291015625,0.34958621859550476,0.4083895683288574,0.05784880369901657
1772615931536051000,1.992051025390625,0.3404933512210846,0.36699679493904114,0.03344098851084709
1772615931546119000,2.002118896484375,0.3236728310585022,0.3580690622329712,-0.020337555557489395
1772615931556187000,2.012186767578125,0.31591859459877014,0.35227882862091064,-0.08129565417766571
1772615931566255000,2.022255126953125,0.31166818737983704,0.34967318177223206,-0.13324567675590515
1772615931576323000,2.032322998046875,0.30186495184898376,0.3465947210788727,-0.1778600662946701
1772615931586391000,2.04239111328125,0.31717413663864136,0.34090274572372437,-0.22245842218399048
1772615931596459000,2.052458984375,0.3306428790092468,0.32164138555526733,-0.24971003830432892
1772615931606527000,2.06252685546875,0.3345656991004944,0.29852116107940674,-0.2600812017917633
1772615931616596000,2.072595947265625,0.3228280246257782,0.2540034353733063,-0.24136148393154144
1772615931626664000,2.082663818359375,0.30535823106765747,0.24704782664775848,-0.21649715304374695
1772615931636732200,2.092732177734375,0.28793925046920776,0.26167142391204834,-0.20063495635986328
1772615931646800100,2.102800048828125,0.26240989565849304,0.2660619020462036,-0.1802002489566803
1772615931656868000,2.1128681640625,0.24089019000530243,0.289477676153183,-0.1528758853673935
1772615931666935800,2.122935791015625,0.22674959897994995,0.339096337556839,-0.1166454553604126
1772615931677004000,2.133004150390625,0.2203613668680191,0.40405887365341187,-0.09171990305185318
1772615931687072000,2.143072021484375,0.21795253455638885,0.42862093448638916,-0.06355191022157669
1772615931697140000,2.153139892578125,0.22297340631484985,0.42151516675949097,-0.030743682757019997
1772615931707208000,2.1632080078125,0.23318716883659363,0.4083612859249115,0.004877160303294659
1772615931717276200,2.173276123046875,0.25258561968803406,0.40195342898368835,0.023831676691770554
1772615931727344000,2.18334423828125,0.27890512347221375,0.3945535719394684,0.04076192528009415
1772615931737412000,2.193412109375,0.30414319038391113,0.3705112040042877,0.06063590198755264
1772615931747479800,2.203479736328125,0.3230907618999481,0.35044240951538086,0.08318408578634262
1772615931757549000,2.213549072265625,0.32761043310165405,0.35113388299942017,0.1111280769109726
1772615931767617000,2.223616943359375,0.3159806728363037,0.3568410277366638,0.1363479495048523
1772615931777684700,2.233684814453125,0.29483476281166077,0.37777188420295715,0.1564849317073822
1772615931787752700,2.243752685546875,0.2667248249053955,0.40538325905799866,0.18236421048641205
1772615931797820700,2.253820556640625,0.23680388927459717,0.40958371758461,0.1942787617444992
1772615931807888600,2.263888671875,0.20097585022449493,0.3933035433292389,0.2080334573984146
1772615931817956600,2.27395654296875,0.17401641607284546,0.3607599437236786,0.22137638926506042
1772615931828024600,2.284024658203125,0.15265439450740814,0.33663514256477356,0.23911011219024658
1772615931838092500,2.294092529296875,0.1396350860595703,0.3245411515235901,0.24040664732456207
1772615931848160800,2.304160888671875,0.12541913986206055,0.3155820071697235,0.22978916764259338
1772615931858228700,2.314228759765625,0.1180921345949173,0.3020589053630829,0.21074484288692474
1772615931868296700,2.324296630859375,0.11180467903614044,0.29221025109291077,0.18643870949745178
1772615931878364700,2.33436474609375,0.10582786798477173,0.30590125918388367,0.1446729153394699
1772615931888432600,2.3444326171875,0.10231302678585052,0.3078586757183075,0.09404702484607697
1772615931898500600,2.35450048828125,0.10826784372329712,0.29280388355255127,0.041177455335855484
1772615931908569600,2.364569580078125,0.11731114238500595,0.2790835499763489,-0.005274198018014431
1772615931918637800,2.374637939453125,0.1193128451704979,0.27335381507873535,-0.04107232391834259
1772615931928705800,2.384705810546875,0.11170339584350586,0.26931431889533997,-0.07432615756988525
1772615931938773800,2.394773681640625,0.09719638526439667,0.26274701952934265,-0.09300907701253891
1772615931948841500,2.404841552734375,0.07983976602554321,0.2756556272506714,-0.10590357333421707
1772615931958909700,2.41490966796875,0.0588214173913002,0.320025235414505,-0.10964630544185638
1772615931968977700,2.424977783203125,0.03703249990940094,0.36852434277534485,-0.10675331950187683
1772615931979045600,2.435045654296875,0.02555122599005699,0.4051273465156555,-0.08886972814798355
1772615931989113600,2.445113525390625,0.022075535729527473,0.43368813395500183,-0.05734455958008766
1772615931999181800,2.455181884765625,0.03246884047985077,0.44478878378868103,-0.018015870824456215
1772615932009249800,2.465249755859375,0.054348308593034744,0.4375564455986023,0.035961344838142395
1772615932019317500,2.4753173828125,0.08945238590240479,0.4349164664745331,0.08871055394411087
1772615932029385500,2.485385498046875,0.13064056634902954,0.43864595890045166,0.13522186875343323
1772615932039453700,2.49545361328125,0.1679186224937439,0.44311094284057617,0.1729336827993393
1772615932049521700,2.505521728515625,0.20191332697868347,0.45501232147216797,0.19678868353366852
1772615932059590700,2.515590576171875,0.2290927916765213,0.4777352809906006,0.226749449968338
1772615932069659000,2.525658935546875,0.2457394003868103,0.4876033663749695,0.2648257315158844
1772615932079726600,2.5357265625,0.2540118098258972,0.4854421019554138,0.3117227554321289
1772615932089794600,2.545794677734375,0.26084014773368835,0.4696495532989502,0.36072492599487305
1772615932099862500,2.555862548828125,0.26474177837371826,0.45978638529777527,0.3896847665309906
1772615932109930800,2.5659306640625,0.2685388922691345,0.4531681537628174,0.3922424912452698
1772615932119998700,2.575998779296875,0.2719741463661194,0.43987882137298584,0.37181568145751953
1772615932130066700,2.586066650390625,0.2591497004032135,0.4417947232723236,0.33174070715904236
1772615932140134700,2.596134765625,0.23251114785671234,0.4530470371246338,0.28713202476501465
1772615932150202600,2.60620263671875,0.1964237093925476,0.47827810049057007,0.23007138073444366
1772615932160270600,2.6162705078125,0.1546313464641571,0.5075598955154419,0.17684714496135712
1772615932170338600,2.626338623046875,0.12419913709163666,0.5369853973388672,0.12472481280565262
1772615932180406500,2.636406494140625,0.1145530417561531,0.559699535369873,0.08219622820615768
1772615932190474800,2.646474853515625,0.09898579865694046,0.5535939335823059,0.05095814913511276
1772615932200543700,2.656543701171875,0.07809115201234818,0.5322200655937195,0.041665393859148026
1772615932210611500,2.666611572265625,0.05878696218132973,0.5251522660255432,0.046353623270988464
1772615932220679700,2.6766796875,0.03916506841778755,0.5002878904342651,0.06882639974355698
1772615932230747600,2.68674755859375,0.026364583522081375,0.4402107298374176,0.09505507349967957
1772615932240815600,2.696815673828125,0.03255489841103554,0.3909844160079956,0.11522091925144196
1772615932250883600,2.706883544921875,0.058945756405591965,0.3463684618473053,0.12052300572395325
1772615932260951800,2.716951904296875,0.10162683576345444,0.3111293315887451,0.1028488352894783
1772615932271019800,2.727019775390625,0.14745371043682098,0.27869921922683716,0.06471636146306992
1772615932281087700,2.737087646484375,0.1906554102897644,0.24562060832977295,0.019749358296394348
1772615932291155500,2.747155517578125,0.22742435336112976,0.23679649829864502,-0.03157161921262741
1772615932301223700,2.7572236328125,0.24495911598205566,0.24028103053569794,-0.08413092792034149
1772615932311291600,2.767291748046875,0.24476869404315948,0.2527424991130829,-0.12501071393489838
1772615932321359600,2.777359619140625,0.2362498939037323,0.26732921600341797,-0.15619125962257385
1772615932331427600,2.787427490234375,0.2209569662809372,0.2886132001876831,-0.17773357033729553
1772615932341495800,2.797495849609375,0.19872897863388062,0.3056009113788605,-0.20356133580207825
1772615932351564500,2.807564453125,0.20216259360313416,0.3252020478248596,-0.20776966214179993
1772615932361632500,2.817632568359375,0.2005048394203186,0.31799423694610596,-0.19388732314109802
1772615932371700500,2.827700439453125,0.2305556833744049,0.3178437650203705,-0.18277527391910553
1772615932381768700,2.837768798828125,0.2553268074989319,0.3425285220146179,-0.17339852452278137
1772615932391836700,2.847836669921875,0.2727353572845459,0.35862013697624207,-0.16556137800216675
1772615932401904600,2.857904541015625,0.28926607966423035,0.40538153052330017,-0.15147127211093903
1772615932411972900,2.867972900390625,0.30170199275016785,0.42794090509414673,-0.12176956981420517
1772615932422040600,2.87804052734375,0.3272721767425537,0.45028916001319885,-0.09626421332359314
1772615932432108500,2.888108642578125,0.34186336398124695,0.4660862386226654,-0.05739244446158409
1772615932442176500,2.898176513671875,0.3626977205276489,0.4661926031112671,-0.031046392396092415
1772615932452244700,2.90824462890625,0.38938766717910767,0.4546765685081482,0.004870062693953514
1772615932462312700,2.918312744140625,0.41852688789367676,0.4138636887073517,0.031193582341074944
1772615932472380700,2.928380615234375,0.4547991454601288,0.3730400800704956,0.042405493557453156
1772615932482448600,2.93844873046875,0.49880167841911316,0.334140419960022,0.03591863065958023
1772615932492516900,2.948516845703125,0.5430786609649658,0.3026413321495056,0.017049066722393036
1772615932502585600,2.958585693359375,0.5664793252944946,0.2841086685657501,-0.005879268050193787
1772615932512653600,2.968653564453125,0.5672276616096497,0.27131059765815735,-0.0243149995803833
1772615932522721500,2.978721435546875,0.5550519824028015,0.25405845046043396,-0.036670226603746414
1772615932532789800,2.988789794921875,0.5317666530609131,0.24044810235500336,-0.04858281463384628
1772615932542857700,2.998857666015625,0.5041767954826355,0.2440059930086136,-0.05650690570473671
1772615932552925700,3.00892578125,0.47230830788612366,0.259193480014801,-0.06631986051797867
1772615932562993400,3.018993408203125,0.4334932267665863,0.26778945326805115,-0.07331112772226334
1772615932573061600,3.0290615234375,0.3937370479106903,0.27504655718803406,-0.07116302102804184
1772615932583129600,3.039129638671875,0.36635833978652954,0.27650731801986694,-0.0620836541056633
1772615932593197600,3.049197509765625,0.34089186787605286,0.26605814695358276,-0.05444038286805153
1772615932603265500,3.059265625,0.3233635723590851,0.25622326135635376,-0.05165809020400047
1772615932613333800,3.069333740234375,0.30426737666130066,0.24589630961418152,-0.050654876977205276
1772615932623401700,3.079401611328125,0.2804122269153595,0.23561140894889832,-0.05471617728471756
1772615932633469700,3.0894697265625,0.255120187997818,0.2273462861776352,-0.05804406479001045
1772615932643538700,3.09953857421875,0.22257041931152344,0.2204439640045166,-0.05955125764012337
1772615932653606700,3.109606689453125,0.19294089078903198,0.22723902761936188,-0.06331643462181091
1772615932663674600,3.119674560546875,0.15956418216228485,0.2439614236354828,-0.07466314733028412
1772615932673742600,3.12974267578125,0.13332219421863556,0.2617260217666626,-0.07519950717687607
1772615932683810800,3.139810791015625,0.10624389350414276,0.2778052091598511,-0.07087384164333344
1772615932693878500,3.14987841796875,0.0830853059887886,0.30590182542800903,-0.06172029301524162
1772615932703946500,3.159946533203125,0.06612835824489594,0.31984513998031616,-0.0723450779914856
1772615932714014500,3.170014404296875,0.05826697126030922,0.3168397545814514,-0.11071111261844635
1772615932724082700,3.180082763671875,0.07028775662183762,0.30449527502059937,-0.16307058930397034
1772615932734150700,3.190150634765625,0.08962363749742508,0.28851765394210815,-0.21804755926132202
1772615932744218600,3.200218505859375,0.11000459641218185,0.2818480134010315,-0.264565110206604
1772615932754286600,3.21028662109375,0.11374020576477051,0.2881362736225128,-0.2835603952407837
1772615932764354800,3.220354736328125,0.0982612818479538,0.3114606738090515,-0.2813156545162201
1772615932774422500,3.230422607421875,0.06723225861787796,0.3206304609775543,-0.24382524192333221
1772615932784490800,3.24049072265625,0.05127657949924469,0.31203824281692505,-0.19397220015525818
1772615932794559700,3.250559814453125,0.06895730644464493,0.29465287923812866,-0.14163069427013397
1772615932804627700,3.260627685546875,0.11338415741920471,0.27060770988464355,-0.09492150694131851
1772615932814696000,3.270696044921875,0.16314415633678436,0.22391106188297272,-0.055847667157649994
1772615932824763600,3.280763671875,0.20724882185459137,0.17075370252132416,-0.009272010996937752
1772615932834831600,3.29083154296875,0.24193541705608368,0.12136751413345337,0.027948327362537384
1772615932844899600,3.300899658203125,0.2541956305503845,0.09828465431928635,0.06449900567531586
1772615932854967800,3.3109677734375,0.2556672990322113,0.0850687175989151,0.09769131243228912
1772615932865035800,3.321035888671875,0.24578268826007843,0.09663663059473038,0.1262284815311432
1772615932875103700,3.331103759765625,0.21889594197273254,0.11556105315685272,0.15448620915412903
1772615932885171700,3.341171630859375,0.1895962953567505,0.13303768634796143,0.17972218990325928
1772615932895240000,3.351239990234375,0.15576589107513428,0.15278609097003937,0.2210959941148758
1772615932905307600,3.3613076171875,0.11680206656455994,0.17495626211166382,0.2555083632469177
1772615932915375600,3.371375732421875,0.0901251807808876,0.19859793782234192,0.3072676956653595
1772615932925443600,3.381443603515625,0.0860096737742424,0.22844897210597992,0.3601359724998474
1772615932935512800,3.391512939453125,0.08361069858074188,0.23925234377384186,0.4098084568977356
1772615932945580800,3.401580810546875,0.08786885440349579,0.23383943736553192,0.43597477674484253
1772615932955648800,3.411648681640625,0.1083696037530899,0.22453568875789642,0.42908143997192383
1772615932965716700,3.421716796875,0.13568679988384247,0.2195512056350708,0.38217872381210327
1772615932975784700,3.43178466796875,0.16350378096103668,0.22313502430915833,0.3027382493019104
1772615932985852700,3.441852783203125,0.17424364387989044,0.21506598591804504,0.21533143520355225
1772615932995920600,3.451920654296875,0.16308791935443878,0.2016465812921524,0.13574498891830444
1772615933005988900,3.46198876953125,0.139800563454628,0.18831545114517212,0.05932031199336052
1772615933016056800,3.472056884765625,0.10575523972511292,0.1967262476682663,0.0031827420461922884
1772615933026124800,3.482124755859375,0.06614550948143005,0.2096673548221588,-0.04066300764679909
1772615933036192800,3.49219287109375,0.0377330482006073,0.21598383784294128,-0.05991606414318085
1772615933046260700,3.5022607421875,0.023155726492404938,0.21464017033576965,-0.05311257019639015
1772615933056328700,3.51232861328125,0.03278198838233948,0.20303891599178314,-0.034182287752628326
1772615933066396700,3.522396728515625,0.045422159135341644,0.18389782309532166,-0.003324784804135561
1772615933076464600,3.532464599609375,0.05568225681781769,0.16634120047092438,0.0373840294778347
1772615933086534000,3.542533935546875,0.059162359684705734,0.15534824132919312,0.070452481508255
1772615933096601600,3.5526015625,0.0646817609667778,0.1520368605852127,0.09908599406480789
1772615933106669600,3.562669677734375,0.06802285462617874,0.150382399559021,0.11664655804634094
1772615933116737800,3.57273779296875,0.08102493733167648,0.15979613363742828,0.12397851049900055
1772615933126805800,3.5828056640625,0.0987117737531662,0.1697453111410141,0.12007992714643478
1772615933136873700,3.592873779296875,0.11292853206396103,0.1825180947780609,0.11003874242305756
1772615933146941700,3.602941650390625,0.1230463832616806,0.1884651482105255,0.0833113044500351
1772615933157010000,3.613010009765625,0.1278504580259323,0.18579745292663574,0.04351276159286499
1772615933167078000,3.623077880859375,0.1485470086336136,0.20376834273338318,-0.021412812173366547
1772615933177145600,3.6331455078125,0.1551889330148697,0.1668233722448349,-0.0606161430478096
1772615933187213600,3.643213623046875,0.1668916642665863,0.13344918191432953,-0.08877692371606827
1772615933197281800,3.65328173828125,0.20240518450737,0.11812561750411987,-0.11637099832296371
1772615933207349800,3.663349853515625,0.23002594709396362,0.07698614150285721,-0.12236084043979645
1772615933217417700,3.673417724609375,0.24438491463661194,0.06692365556955338,-0.12239493429660797
1772615933227486700,3.68348681640625,0.23792891204357147,0.08594786375761032,-0.1020689532160759
1772615933237554700,3.6935546875,0.19434230029582977,0.12705428898334503,-0.0593222938477993
1772615933247622700,3.70362255859375,0.12570154666900635,0.17563477158546448,0.009213176555931568
1772615933257690600,3.713690673828125,0.04790475219488144,0.22295860946178436,0.09333683550357819
1772615933267758600,3.723758544921875,-0.005734129808843136,0.2679010331630707,0.17394915223121643
1772615933277826800,3.733826904296875,-0.02250831574201584,0.29010966420173645,0.23781974613666534
1772615933287894800,3.743894775390625,-0.009058301337063313,0.27558836340904236,0.28495344519615173
1772615933297962800,3.753962646484375,0.024340666830539703,0.2480582296848297,0.2908046841621399
1772615933308030700,3.76403076171875,0.07134807854890823,0.21074533462524414,0.27821576595306396
1772615933318098700,3.7740986328125,0.1127072349190712,0.1684705913066864,0.22845537960529327
1772615933328166700,3.784166748046875,0.15125103294849396,0.13988280296325684,0.1413726657629013
1772615933338234600,3.794234619140625,0.17589884996414185,0.11402484774589539,0.047046974301338196
1772615933348302800,3.804302734375,0.1876290887594223,0.08941344171762466,-0.03003252111375332
1772615933358370800,3.814370849609375,0.1787133514881134,0.05731489509344101,-0.08662309497594833
1772615933368438800,3.824438720703125,0.1439099758863449,0.04164717718958855,-0.12769544124603271
1772615933378507500,3.834507568359375,0.09854995459318161,0.015289340168237686,-0.14643478393554688
1772615933388575700,3.84457568359375,0.057964716106653214,-0.004754409659653902,-0.16185900568962097
1772615933398643700,3.854643798828125,0.04584706574678421,-0.01983535662293434,-0.17776606976985931
1772615933408711700,3.864711669921875,0.04822956770658493,-0.010206780396401882,-0.18354545533657074
1772615933418779600,3.874779541015625,0.048250872641801834,0.00338306394405663,-0.18497850000858307
1772615933428847900,3.884847900390625,0.04835899919271469,0.010850567370653152,-0.17202062904834747
1772615933438915800,3.894915771484375,0.04522738605737686,0.015492191538214684,-0.14978694915771484
1772615933448983600,3.904983642578125,0.03904106467962265,0.02398822084069252,-0.12485086172819138
1772615933459051500,3.915051513671875,0.02171054482460022,0.010594917461276054,-0.0956418439745903
1772615933469119700,3.92511962890625,0.004220904782414436,-0.015699777752161026,-0.06131293624639511
1772615933479187700,3.935187744140625,-0.014949328266084194,-0.012546328827738762,-0.022054744884371758
1772615933489255700,3.945255615234375,-0.0382767915725708,-0.0075310831889510155,0.022435585036873817
1772615933499324000,3.955323974609375,-0.06125188246369362,-0.006163283251225948,0.05980585888028145
1772615933509392000,3.965391845703125,-0.07875777781009674,0.003157322993502021,0.09633857756853104
1772615933519460600,3.975460693359375,-0.07638037204742432,-0.001649949001148343,0.12534120678901672
1772615933529528600,3.985528564453125,-0.0584072582423687,-0.013594028539955616,0.15388154983520508
1772615933539596800,3.9955966796875,-0.029136722907423973,-0.03019031696021557,0.16543912887573242
1772615933549664800,4.005664794921875,0.0005173621466383338,-0.052140120416879654,0.16281552612781525
1772615933559732700,4.015732666015625,0.025143612176179886,-0.07465074956417084,0.15391923487186432
1772615933569800700,4.02580078125,0.03511384129524231,-0.09335541725158691,0.1349567025899887
1772615933579868700,4.03586865234375,0.03810670226812363,-0.10891973227262497,0.1087256371974945
1772615933589936600,4.0459365234375,0.02687237039208412,-0.1240660697221756,0.09037496894598007
1772615933600004600,4.056004638671875,0.0071758972480893135,-0.1289774775505066,0.06939671188592911
1772615933610072600,4.066072509765625,-0.019250167533755302,-0.1234842985868454,0.057424843311309814
1772615933620140800,4.076140869140625,-0.051462166011333466,-0.10682250559329987,0.05360107868909836
1772615933630208800,4.086208740234375,-0.07722864300012589,-0.08047273010015488,0.05782511085271835
1772615933640276700,4.09627685546875,-0.09956484287977219,-0.05472715198993683,0.07030494511127472
1772615933650344700,4.1063447265625,-0.11853590607643127,-0.04983804002404213,0.08098535239696503
1772615933660412700,4.11641259765625,-0.11815720051527023,-0.06534269452095032,0.07795387506484985
1772615933670481700,4.126481689453125,-0.08741951733827591,-0.0907355546951294,0.06605619937181473
1772615933680549600,4.136549560546875,-0.04086000472307205,-0.12424983829259872,0.027757275849580765
1772615933690617900,4.146617919921875,-0.006715188734233379,-0.14462728798389435,-0.033411864191293716
1772615933700685800,4.156685791015625,-0.008855837397277355,-0.14724864065647125,-0.10159251093864441
1772615933710753800,4.16675390625,-0.04095844179391861,-0.1352899670600891,-0.1670912504196167
1772615933720821500,4.176821533203125,-0.0948866605758667,-0.10388623178005219,-0.22123384475708008
1772615933730889700,4.1868896484375,-0.1436164677143097,-0.04882287606596947,-0.26730766892433167
1772615933740957700,4.196957763671875,-0.17669878900051117,0.013219189830124378,-0.2848222255706787
1772615933751025700,4.207025634765625,-0.17804796993732452,0.05871225520968437,-0.2869945466518402
1772615933761093600,4.21709375,-0.16320723295211792,0.09245264530181885,-0.27332454919815063
1772615933771161900,4.227161865234375,-0.13883456587791443,0.12158390879631042,-0.254802405834198
1772615933781230300,4.237230224609375,-0.1090516448020935,0.1368667185306549,-0.22736439108848572
1772615933791298000,4.247298095703125,-0.07925418019294739,0.1351054608821869,-0.18315115571022034
1772615933801366300,4.2573662109375,-0.058775003999471664,0.1340300738811493,-0.11256621032953262
1772615933811435300,4.267435302734375,-0.05027511715888977,0.1565282791852951,-0.029012972488999367
1772615933821503200,4.277503173828125,-0.06321275234222412,0.1822994351387024,0.05889797583222389
1772615933831571500,4.287571533203125,-0.07526323199272156,0.18635976314544678,0.15093615651130676
1772615933841639200,4.29763916015625,-0.07816820591688156,0.18876805901527405,0.24646879732608795
1772615933851707100,4.30770703125,-0.0671277716755867,0.17583917081356049,0.330928772687912
1772615933861775000,4.317775146484375,-0.06011141464114189,0.14798730611801147,0.3957727551460266
1772615933871843300,4.32784326171875,-0.0486675463616848,0.12016642838716507,0.4401088058948517
1772615933881911300,4.337911376953125,-0.034560784697532654,0.07618885487318039,0.4569644629955292
1772615933891979300,4.347979248046875,-0.020030511543154716,0.03138222172856331,0.4535030424594879
1772615933902047200,4.358047119140625,-0.012307077646255493,-0.004244748502969742,0.4183620810508728
1772615933912115500,4.368115478515625,-0.006279736291617155,-0.02898877114057541,0.35875293612480164
1772615933922183200,4.37818310546875,-0.019213376566767693,-0.04204438626766205,0.289570689201355
1772615933932251100,4.388251220703125,-0.03473113477230072,-0.04773959144949913,0.21649731695652008
1772615933942319000,4.398319091796875,-0.05873047560453415,-0.07192855328321457,0.13694150745868683
1772615933952388400,4.408388427734375,-0.0711609497666359,-0.10666132718324661,0.05691388249397278
1772615933962456300,4.418456298828125,-0.07203899323940277,-0.12440329790115356,-0.010653977282345295
1772615933972524300,4.428524169921875,-0.057474225759506226,-0.15608170628547668,-0.07653484493494034
1772615933982592300,4.43859228515625,-0.02571842446923256,-0.18186908960342407,-0.15024928748607635
1772615933992660200,4.44866015625,0.02470141276717186,-0.20330040156841278,-0.22268769145011902
1772615934002728200,4.458728271484375,0.07054906338453293,-0.22126075625419617,-0.29033809900283813
1772615934012796200,4.468796142578125,0.10560077428817749,-0.20095346868038177,-0.3399762213230133
1772615934022864400,4.478864501953125,0.10344281047582626,-0.16967251896858215,-0.38153430819511414
1772615934032932400,4.488932373046875,0.0741415023803711,-0.10082035511732101,-0.3902060389518738
1772615934043000300,4.499000244140625,0.037195734679698944,-0.013686788268387318,-0.37092316150665283
1772615934053068300,4.509068359375,-0.003674390958622098,0.058230750262737274,-0.32244768738746643
1772615934063136300,4.51913623046875,-0.03275264799594879,0.10509918630123138,-0.2619931101799011
1772615934073204200,4.529204345703125,-0.05377386137843132,0.16870251297950745,-0.17293202877044678
1772615934083272200,4.539272216796875,-0.05369849503040314,0.22134041786193848,-0.09204941242933273
1772615934093340200,4.549340087890625,-0.024367036297917366,0.25258517265319824,-0.03230154514312744
1772615934103409400,4.559409423828125,0.024143774062395096,0.2450079470872879,0.014252372086048126
1772615934113477000,4.56947705078125,0.08405411243438721,0.23275530338287354,0.04289517179131508
1772615934123545000,4.579545166015625,0.14757557213306427,0.2195955514907837,0.0686628445982933
1772615934133613300,4.58961328125,0.20275835692882538,0.19349390268325806,0.10386326909065247
1772615934143681300,4.599681396484375,0.24881026148796082,0.1628611534833908,0.13834242522716522
1772615934153749200,4.609749267578125,0.28270676732063293,0.13314519822597504,0.17321215569972992
1772615934163817200,4.619817138671875,0.3139565885066986,0.09406091272830963,0.19511371850967407
1772615934173885400,4.629885498046875,0.3464389145374298,0.05192963033914566,0.20096515119075775
1772615934183953400,4.639953369140625,0.3776370584964752,0.011621354147791862,0.1840924173593521
1772615934194021000,4.650021240234375,0.4091170132160187,-0.02246515452861786,0.13905982673168182
1772615934204089000,4.660089111328125,0.4317759871482849,-0.051501598209142685,0.07653067260980606
1772615934214157300,4.6701572265625,0.4438626170158386,-0.08078489452600479,-0.005298980511724949
1772615934224225300,4.680225341796875,0.43568190932273865,-0.10543831437826157,-0.08145260065793991
1772615934234293200,4.690293212890625,0.4203473627567291,-0.12360113114118576,-0.15305152535438538
1772615934244362200,4.7003623046875,0.39823538064956665,-0.12071319669485092,-0.21723583340644836
1772615934254430200,4.71043017578125,0.36447983980178833,-0.10759556293487549,-0.27041199803352356
1772615934264498200,4.720498291015625,0.31186163425445557,-0.08980324864387512,-0.30032914876937866
1772615934274566100,4.730566162109375,0.24729323387145996,-0.046569839119911194,-0.30899760127067566
1772615934284634400,4.74063427734375,0.18797796964645386,0.00716529181227088,-0.29137998819351196
1772615934294702300,4.750702392578125,0.1323915421962738,0.0611090250313282,-0.2593882381916046
1772615934304770300,4.760770263671875,0.08498088270425797,0.10857561230659485,-0.22027011215686798
1772615934314838300,4.77083837890625,0.05526413023471832,0.15167629718780518,-0.1672191470861435
1772615934324906200,4.78090625,0.044136110693216324,0.1745871901512146,-0.12232809513807297
1772615934334974200,4.79097412109375,0.04857081547379494,0.1712837666273117,-0.098628930747509
1772615934345042200,4.801042236328125,0.06049405410885811,0.16166070103645325,-0.09449490904808044
1772615934355110100,4.811110107421875,0.06621196120977402,0.15372171998023987,-0.10596692562103271
1772615934365178400,4.821178466796875,0.05677558854222298,0.15367111563682556,-0.10948043316602707
1772615934375246300,4.831246337890625,0.035363391041755676,0.1509804129600525,-0.12290813028812408
1772615934385315000,4.841315185546875,0.0050957659259438515,0.15866175293922424,-0.11666648089885712
1772615934395383300,4.85138330078125,-0.03520650789141655,0.1656922698020935,-0.0907433032989502
1772615934405451300,4.861451171875,-0.0594460666179657,0.16270287334918976,-0.06351061910390854
1772615934415519200,4.871519287109375,-0.06473027169704437,0.16697369515895844,-0.03593791276216507
1772615934425587200,4.881587158203125,-0.059288639575242996,0.1716424822807312,-0.020815951749682426
1772615934435655400,4.891655517578125,-0.051656920462846756,0.1747293472290039,-0.01414772029966116
1772615934445723400,4.901723388671875,-0.04503656551241875,0.17595359683036804,-0.02207115665078163
1772615934455791400,4.911791259765625,-0.04476049914956093,0.1795041263103485,-0.041743453592061996
1772615934465859000,4.921859130859375,-0.05735112354159355,0.18960042297840118,-0.05935920029878616
1772615934475927300,4.93192724609375,-0.07429531961679459,0.20657381415367126,-0.0726952999830246
1772615934485995300,4.941995361328125,-0.09042102843523026,0.2116255760192871,-0.07599841803312302
1772615934496063200,4.952063232421875,-0.08794774860143661,0.18817457556724548,-0.07476244866847992
1772615934506131200,4.962131103515625,-0.06148365139961243,0.15840202569961548,-0.0941862165927887
1772615934516199400,4.972199462890625,-0.008766875602304935,0.13782726228237152,-0.1241532564163208
1772615934526267400,4.982267333984375,0.04394853487610817,0.11218474805355072,-0.15099498629570007
1772615934536336100,4.992336181640625,0.07490206509828568,0.08879812061786652,-0.16476140916347504
1772615934546404400,5.002404296875,0.08454643934965134,0.08305554836988449,-0.1570419818162918
1772615934556472300,5.012472412109375,0.08885012567043304,0.08827593922615051,-0.12069307267665863
1772615934566540300,5.022540283203125,0.0827869102358818,0.09819275140762329,-0.060956504195928574
1772615934576608300,5.032608154296875,0.07803075015544891,0.10482475906610489,0.008886277675628662
1772615934586676500,5.042676513671875,0.06354820728302002,0.12090039998292923,0.08069175481796265
1772615934596744200,5.052744140625,0.04540059342980385,0.14180965721607208,0.15287338197231293
1772615934606812200,5.062812255859375,0.024800509214401245,0.15740352869033813,0.2131902426481247
1772615934616880000,5.072880126953125,0.010829259641468525,0.15240459144115448,0.2624545097351074
1772615934626948400,5.0829482421875,0.018983593210577965,0.12949581444263458,0.2881561517715454
1772615934637016300,5.093016357421875,0.05418812483549118,0.10722051560878754,0.2879115343093872
1772615934647084300,5.103084228515625,0.09969329088926315,0.08730512857437134,0.2642211318016052
1772615934657152300,5.11315234375,0.13961149752140045,0.07970200479030609,0.2413787841796875
1772615934667220500,5.123220458984375,0.15797504782676697,0.08147753775119781,0.2367214411497116
1772615934677289200,5.133289306640625,0.1687924861907959,0.08540929108858109,0.24295973777770996
1772615934687357200,5.143357177734375,0.17268016934394836,0.10504318028688431,0.2537327706813812
1772615934697425400,5.15342529296875,0.16552112996578217,0.12930132448673248,0.2633524537086487
1772615934707493400,5.163493408203125,0.14827902615070343,0.151152566075325,0.2750282883644104
1772615934717561300,5.173561279296875,0.13057972490787506,0.16596369445323944,0.27359139919281006
1772615934727629300,5.18362939453125,0.11874569207429886,0.16434556245803833,0.26710447669029236
1772615934737697300,5.193697265625,0.12119879573583603,0.16685397922992706,0.2243313193321228
1772615934747765200,5.20376513671875,0.12889879941940308,0.18189817667007446,0.16206981241703033
1772615934757833200,5.213833251953125,0.13439886271953583,0.1958150714635849,0.08726567029953003
1772615934767901200,5.223901123046875,0.14945611357688904,0.20640192925930023,0.012139230966567993
1772615934777968600,5.23396875,0.16659444570541382,0.21485310792922974,-0.047217484563589096
1772615934788036600,5.24403662109375,0.18415053188800812,0.22885894775390625,-0.07509838044643402
1772615934798104600,5.2541044921875,0.1906716376543045,0.23255972564220428,-0.07051125913858414
1772615934808172800,5.2641728515625,0.19315317273139954,0.2354404628276825,-0.05176473408937454
1772615934818241500,5.274241455078125,0.18782120943069458,0.23738431930541992,-0.011396154761314392
1772615934828309500,5.2843095703125,0.19067105650901794,0.2293602079153061,0.02960401028394699
1772615934838377700,5.294377685546875,0.1969480961561203,0.21605467796325684,0.07009339332580566
1772615934848445700,5.30444580078125,0.2093123495578766,0.20448270440101624,0.09813088178634644
1772615934858513700,5.314513671875,0.2297021746635437,0.19814899563789368,0.12046016752719879
1772615934868581600,5.32458154296875,0.24528034031391144,0.184324249625206,0.12432415038347244
1772615934878648800,5.33464892578125,0.25299665331840515,0.16324040293693542,0.12291708588600159
1772615934888716800,5.344716796875,0.2538006603717804,0.13992203772068024,0.11086229234933853
1772615934898784500,5.354784423828125,0.25084277987480164,0.11693866550922394,0.08833837509155273
1772615934908852500,5.3648525390625,0.2359037846326828,0.08386141061782837,0.04663167521357536
1772615934918920700,5.374920654296875,0.22701182961463928,0.04325644299387932,-0.019047852605581284
1772615934928988700,5.38498876953125,0.22440673410892487,0.022260349243879318,-0.09358759969472885
1772615934939056600,5.395056640625,0.22452576458454132,0.0196263175457716,-0.16630390286445618
1772615934949124600,5.40512451171875,0.2198106348514557,0.033206041902303696,-0.20885883271694183
1772615934959193600,5.415193603515625,0.19773352146148682,0.0562213771045208,-0.21770864725112915
1772615934969261600,5.425261474609375,0.15530936419963837,0.07894425839185715,-0.17214728891849518
1772615934979329500,5.43532958984375,0.09969045966863632,0.10239993035793304,-0.10250460356473923
1772615934989397500,5.4453974609375,0.042917460203170776,0.14172257483005524,-0.0339263416826725
1772615934999465700,5.4554658203125,-0.003908863756805658,0.1591266244649887,0.0024222531355917454
1772615935009533700,5.46553369140625,-0.02273288555443287,0.16803568601608276,0.021428700536489487
1772615935019601700,5.4756015625,-0.013087091967463493,0.1535196602344513,0.014075011946260929
1772615935029670000,5.485669921875,0.029133863747119904,0.19838087260723114,-0.02192213572561741
1772615935039737600,5.495737548828125,0.11333520710468292,0.2970203161239624,-0.10581553727388382
1772615935049805600,5.5058056640625,0.18326236307621002,0.3126607835292816,-0.165155291557312
1772615935059873500,5.51587353515625,0.25267407298088074,0.28764376044273376,-0.17377302050590515
1772615935069941800,5.525941650390625,0.31485727429389954,0.2410144805908203,-0.1514088660478592
1772615935080009700,5.536009765625,0.3568462133407593,0.19158048927783966,-0.11255323886871338
1772615935090077700,5.54607763671875,0.3773999512195587,0.13822326064109802,-0.06751704961061478
1772615935100146400,5.556146484375,0.37998688220977783,0.09645769000053406,-0.020830566063523293
1772615935110214700,5.566214599609375,0.36361801624298096,0.07240188866853714,0.02094058319926262
1772615935120282600,5.57628271484375,0.3377477526664734,0.052228525280952454,0.05624537169933319
1772615935130350600,5.5863505859375,0.30795231461524963,0.06399330496788025,0.07144296914339066
1772615935140418600,5.59641845703125,0.29639947414398193,0.11926521360874176,0.05486596003174782
1772615935150486800,5.60648681640625,0.2743985652923584,0.15143592655658722,0.008342402055859566
1772615935160554800,5.6165546875,0.24290139973163605,0.17184892296791077,-0.053605761379003525
1772615935170622500,5.62662255859375,0.22258973121643066,0.18872272968292236,-0.12265007197856903
1772615935180690400,5.6366904296875,0.1910467892885208,0.20766949653625488,-0.19286763668060303
1772615935190758700,5.646758544921875,0.156772181391716,0.22462184727191925,-0.25883305072784424
1772615935200826600,5.65682666015625,0.1208663061261177,0.24930882453918457,-0.30776000022888184
1772615935210894600,5.66689453125,0.0736260935664177,0.27580195665359497,-0.33322542905807495
1772615935220962600,5.676962646484375,0.022605670616030693,0.2679957449436188,-0.31967633962631226
1772615935231030800,5.68703076171875,-0.009715782478451729,0.23515844345092773,-0.2627142667770386
1772615935241098800,5.6970986328125,-0.02538326382637024,0.18862351775169373,-0.16300426423549652
1772615935251167500,5.70716748046875,-0.025002697482705116,0.13874518871307373,-0.05503251403570175
1772615935261235700,5.717235595703125,-0.015591273084282875,0.11216426640748978,0.04255329817533493
1772615935271303700,5.7273037109375,-0.0015074125258252025,0.13268551230430603,0.09784557670354843
1772615935281371600,5.73737158203125,0.00597413070499897,0.16709814965724945,0.12313032150268555
1772615935291440600,5.747440673828125,0.0045512039214372635,0.17534781992435455,0.13528898358345032
1772615935301508600,5.757508544921875,0.004454146139323711,0.16229698061943054,0.13327687978744507
1772615935311576600,5.76757666015625,0.009592183865606785,0.14983871579170227,0.12263969331979752
1772615935321644500,5.77764453125,0.023977361619472504,0.14216575026512146,0.09936077892780304
1772615935331712800,5.787712646484375,0.03549207001924515,0.14429201185703278,0.07747253030538559
1772615935341780700,5.79778076171875,0.0392497293651104,0.14444158971309662,0.06503623723983765
1772615935351848700,5.8078486328125,0.05186006426811218,0.13109515607357025,0.06902166455984116
1772615935361916400,5.81791650390625,0.06911016255617142,0.1132461205124855,0.092046819627285
1772615935371984600,5.827984619140625,0.08561722934246063,0.0855761393904686,0.12783117592334747
1772615935382053600,5.8380537109375,0.09240669757127762,0.0720539391040802,0.1698681116104126
1772615935392121600,5.84812158203125,0.08249357342720032,0.054826520383358,0.2220836728811264
1772615935402189800,5.85818994140625,0.06203469634056091,0.03089362569153309,0.26457056403160095
1772615935412257800,5.8682578125,0.048317283391952515,0.012746579013764858,0.3013927638530731
1772615935422325500,5.878325439453125,0.06263560056686401,-0.004010923206806183,0.30259501934051514
1772615935432393500,5.8883935546875,0.11967279016971588,-0.04912087693810463,0.26574137806892395
1772615935442461700,5.898461669921875,0.18307919800281525,-0.10621505230665207,0.2314675748348236
1772615935452529700,5.90852978515625,0.218684583902359,-0.1647670418024063,0.21015828847885132
1772615935462597600,5.91859765625,0.22667865455150604,-0.18321862816810608,0.18572154641151428
1772615935472665600,5.92866552734375,0.21778742969036102,-0.16036976873874664,0.15823693573474884
1772615935482733800,5.93873388671875,0.18520069122314453,-0.11897365748882294,0.12655574083328247
1772615935492801800,5.9488017578125,0.13757005333900452,-0.06914831697940826,0.07286882400512695
1772615935502869500,5.958869384765625,0.09335699677467346,0.028357751667499542,0.01801607385277748
1772615935512937500,5.9689375,0.036626603454351425,0.1104491576552391,-0.04036787152290344
1772615935523006700,5.9790068359375,-0.011850143782794476,0.17910166084766388,-0.08796996623277664
1772615935533074700,5.98907470703125,-0.035104598850011826,0.23575188219547272,-0.12008848041296005
1772615935543142700,5.999142578125,-0.030908700078725815,0.27043962478637695,-0.13440687954425812
1772615935553210600,6.009210693359375,-0.008406054228544235,0.2994566261768341,-0.13025927543640137
1772615935563278600,6.019278564453125,0.025210341438651085,0.3201613128185272,-0.11583130806684494
1772615935573346600,6.0293466796875,0.07061217725276947,0.3370942175388336,-0.08628380298614502
1772615935583414500,6.03941455078125,0.11507073789834976,0.36222365498542786,-0.04966561123728752
1772615935593482800,6.049482666015625,0.15929251909255981,0.38575536012649536,-0.01436567772179842
1772615935603550700,6.05955078125,0.1952582448720932,0.40237513184547424,0.01609266921877861
1772615935613618700,6.06961865234375,0.22497671842575073,0.3813138008117676,0.053735651075839996
1772615935623686700,6.079686767578125,0.25524798035621643,0.34757426381111145,0.10155792534351349
1772615935633754600,6.089754638671875,0.28565889596939087,0.3243810534477234,0.1490897536277771
1772615935643822600,6.099822509765625,0.3062485456466675,0.2887842655181885,0.19511829316616058
1772615935653890600,6.109890625,0.31548812985420227,0.277381956577301,0.21116356551647186
1772615935663959800,6.119959716796875,0.30921342968940735,0.2733357548713684,0.19945743680000305
1772615935674027800,6.13002783203125,0.2818971276283264,0.26895856857299805,0.1709778606891632
1772615935684095700,6.140095703125,0.24405348300933838,0.279745876789093,0.15200282633304596
1772615935694163500,6.15016357421875,0.18691988289356232,0.28889089822769165,0.14236432313919067
1772615935704231700,6.160231689453125,0.13533273339271545,0.31653574109077454,0.11852232366800308
1772615935714299600,6.170299560546875,0.08449751883745193,0.361784964799881,0.10084106773138046
1772615935724367600,6.18036767578125,0.04134352132678032,0.3942817151546478,0.09166142344474792
1772615935734435600,6.190435546875,0.018613172695040703,0.4064140319824219,0.08901956677436829
1772615935744503800,6.20050390625,0.008110212162137032,0.41593146324157715,0.08031261712312698
1772615935754571800,6.21057177734375,0.013239727355539799,0.41916269063949585,0.06371846050024033
1772615935764639700,6.2206396484375,0.03955134004354477,0.40296363830566406,0.044093139469623566
1772615935774707500,6.23070751953125,0.06566496938467026,0.3866419196128845,0.027364756911993027
1772615935784775400,6.240775390625,0.0956895723938942,0.383315771818161,0.010434755124151707
1772615935794844700,6.2508447265625,0.1268022060394287,0.40098026394844055,0.010466180741786957
1772615935804912600,6.26091259765625,0.14855226874351501,0.4216578006744385,0.021278856322169304
1772615935814980600,6.270980712890625,0.17098966240882874,0.44092312455177307,0.03953003138303757
1772615935825048600,6.281048583984375,0.20498648285865784,0.464510440826416,0.059135500341653824
1772615935835116500,6.291116455078125,0.23859477043151855,0.4850783050060272,0.05973737686872482
1772615935845184500,6.3011845703125,0.2707880139350891,0.49727776646614075,0.037075720727443695
1772615935855252500,6.31125244140625,0.3063710331916809,0.49926209449768066,-0.004097814206033945
1772615935865320700,6.32132080078125,0.34901484847068787,0.48876672983169556,-0.05540027469396591
1772615935875388700,6.331388671875,0.38996651768684387,0.4835794270038605,-0.1051824763417244
1772615935885456600,6.34145654296875,0.41829848289489746,0.4959748089313507,-0.13512608408927917
1772615935895524600,6.351524658203125,0.441158264875412,0.5278986096382141,-0.15735496580600739
1772615935905592600,6.361592529296875,0.4447094798088074,0.609244167804718,-0.17429675161838531
1772615935915660500,6.37166064453125,0.43269115686416626,0.6886029243469238,-0.16682098805904388
1772615935925728500,6.381728515625,0.4357730746269226,0.7680438160896301,-0.11948778480291367
1772615935935796500,6.39179638671875,0.43943172693252563,0.8431516289710999,-0.05528589338064194
1772615935945865700,6.40186572265625,0.44163885712623596,0.9070106148719788,0.007069856859743595
1772615935955933700,6.41193359375,0.45331230759620667,0.9536622762680054,0.060780759900808334
1772615935966001400,6.42200146484375,0.47960373759269714,0.9979243874549866,0.09778263419866562
1772615935976069600,6.432069580078125,0.5140314698219299,1.0211697816848755,0.12022269517183304
1772615935986137600,6.4421376953125,0.5661964416503906,1.0235583782196045,0.13039907813072205
1772615935996205600,6.45220556640625,0.631248414516449,1.0088326930999756,0.13418048620224
1772615936006273500,6.4622734375,0.7084060311317444,0.9797918200492859,0.11781127005815506
1772615936016341800,6.472341796875,0.7833939790725708,0.9553682208061218,0.08496277779340744
1772615936026409700,6.48240966796875,0.8440538048744202,0.9501728415489197,0.037516213953495026
1772615936036477400,6.4924775390625,0.8876409530639648,0.9523124694824219,-0.024697357788681984
1772615936046545400,6.50254541015625,0.9138280749320984,0.9530016183853149,-0.09147512167692184
1772615936056613600,6.512613525390625,0.9107308387756348,0.9595146179199219,-0.1556522399187088
1772615936066681600,6.522681640625,0.9016188383102417,0.9610632658004761,-0.20846952497959137
1772615936076750600,6.53275048828125,0.8966919779777527,0.9579183459281921,-0.23921892046928406
1772615936086818800,6.54281884765625,0.905677855014801,0.9679681062698364,-0.25104764103889465
1772615936096886500,6.552886474609375,0.9126654267311096,0.9849095344543457,-0.24266400933265686
1772615936106954500,6.56295458984375,0.9207253456115723,1.0230207443237305,-0.2019871324300766
1772615936117022500,6.5730224609375,0.9224950075149536,1.061369776725769,-0.13134650886058807
1772615936127090700,6.583090576171875,0.9303839206695557,1.0981980562210083,-0.032984863966703415
1772615936137158700,6.59315869140625,0.9313005805015564,1.1199934482574463,0.06351344287395477
1772615936147226600,6.6032265625,0.9340311884880066,1.143154501914978,0.14370930194854736
1772615936157294600,6.613294677734375,0.9370450973510742,1.1553150415420532,0.19822633266448975
1772615936167362800,6.62336279296875,0.9448097348213196,1.1661885976791382,0.22594332695007324
1772615936177430500,6.633430419921875,0.9500886797904968,1.1811140775680542,0.2229246348142624
1772615936187498500,6.64349853515625,0.95125812292099,1.2080085277557373,0.212180957198143
1772615936197566500,6.65356640625,0.9344586730003357,1.2324068546295166,0.19586457312107086
1772615936207634700,6.663634765625,0.9206957817077637,1.244684100151062,0.16206125915050507
1772615936217703700,6.67370361328125,0.9117164015769958,1.2626036405563354,0.10889709740877151
1772615936227771600,6.683771728515625,0.9134664535522461,1.288772463798523,0.04616955667734146
1772615936237839600,6.693839599609375,0.9220282435417175,1.3085086345672607,-0.006582601927220821
1772615936247907600,6.703907470703125,0.9293671250343323,1.3205292224884033,-0.05668140575289726
1772615936257975600,6.7139755859375,0.9257196187973022,1.3351248502731323,-0.09999159723520279
1772615936268043500,6.72404345703125,0.8951818943023682,1.3713802099227905,-0.13941393792629242
1772615936278111700,6.73411181640625,0.8507776856422424,1.3958030939102173,-0.167202427983284
1772615936288179700,6.7441796875,0.8023197650909424,1.4183120727539062,-0.19174781441688538
1772615936298247700,6.75424755859375,0.764695405960083,1.4206184148788452,-0.19108226895332336
1772615936308315400,6.7643154296875,0.7427968978881836,1.4034972190856934,-0.17256446182727814
1772615936318383600,6.774383544921875,0.7466126680374146,1.376455545425415,-0.13046574592590332
1772615936328451600,6.78445166015625,0.7712701559066772,1.3330105543136597,-0.09110230952501297
1772615936338519600,6.79451953125,0.8066188097000122,1.2868387699127197,-0.07135150581598282
1772615936348587500,6.80458740234375,0.8518890738487244,1.2463146448135376,-0.06994953751564026
1772615936358656800,6.81465673828125,0.8848976492881775,1.2168629169464111,-0.08842868357896805
1772615936368724500,6.824724365234375,0.8884234428405762,1.1995947360992432,-0.10080067813396454
1772615936378792400,6.83479248046875,0.8603646159172058,1.2021616697311401,-0.099934883415699
1772615936388860700,6.844860595703125,0.814753532409668,1.2228776216506958,-0.06284192949533463
1772615936398928600,6.8549287109375,0.7649422883987427,1.249934196472168,0.017490457743406296
1772615936408996600,6.86499658203125,0.7292064428329468,1.2692197561264038,0.13939230144023895
1772615936419064600,6.875064697265625,0.705126166343689,1.2767252922058105,0.28210869431495667
1772615936429132800,6.8851328125,0.7009538412094116,1.2715092897415161,0.4065369963645935
1772615936439200500,6.895200439453125,0.7117623090744019,1.253581166267395,0.4980565011501312
1772615936449268500,6.9052685546875,0.7204903364181519,1.2234567403793335,0.5468505024909973
1772615936459336400,6.91533642578125,0.7274752855300903,1.1892766952514648,0.5534886717796326
1772615936469404700,6.92540478515625,0.7376852631568909,1.1714035272598267,0.5283082723617554
1772615936479472600,6.93547265625,0.7423489689826965,1.1406751871109009,0.47476890683174133
1772615936489540600,6.94554052734375,0.7413781881332397,1.1169990301132202,0.40245702862739563
1772615936499609600,6.955609619140625,0.7254658341407776,1.122114896774292,0.3226141035556793
1772615936509677600,6.965677490234375,0.6839036345481873,1.1341670751571655,0.25333544611930847
1772615936519745500,6.97574560546875,0.6370634436607361,1.1401623487472534,0.189145028591156
1772615936529813500,6.9858134765625,0.5918880701065063,1.1451680660247803,0.13604483008384705
1772615936539881700,6.9958818359375,0.5556110143661499,1.158393383026123,0.09743698686361313
1772615936549949700,7.00594970703125,0.531482994556427,1.1680195331573486,0.07244192808866501
1772615936560017700,7.016017578125,0.5189975500106812,1.1669681072235107,0.04519858956336975
1772615936570085600,7.026085693359375,0.5166249871253967,1.1598056554794312,0.01896101050078869
1772615936580153600,7.036153564453125,0.5164375305175781,1.1504544019699097,-0.014721851795911789
1772615936590221600,7.0462216796875,0.5193459391593933,1.1489754915237427,-0.05782739445567131
1772615936600289500,7.05628955078125,0.5401164293289185,1.1395964622497559,-0.10153865069150925
1772615936610357500,7.066357421875,0.5794509053230286,1.1232976913452148,-0.1452370285987854
1772615936620425700,7.07642578125,0.6209085583686829,1.1235219240188599,-0.18539084494113922
1772615936630493700,7.08649365234375,0.6143421530723572,1.065329670906067,-0.22003056108951569
1772615936640562400,7.0965625,0.634080171585083,1.0378214120864868,-0.24157527089118958
1772615936650630700,7.106630615234375,0.635040283203125,1.027997612953186,-0.24672064185142517
1772615936660698600,7.11669873046875,0.6330671310424805,1.0184757709503174,-0.23986752331256866
1772615936670766600,7.1267666015625,0.6250916123390198,1.0419600009918213,-0.20858676731586456
1772615936680834600,7.13683447265625,0.6074987649917603,1.0649499893188477,-0.1498214602470398
1772615936690902800,7.14690283203125,0.5820274949073792,1.0737532377243042,-0.08911356329917908
1772615936700970800,7.156970703125,0.5745301246643066,1.0754826068878174,-0.025264548137784004
1772615936711038500,7.16703857421875,0.589410126209259,1.0545837879180908,0.03851368650794029
1772615936721106400,7.1771064453125,0.6279841661453247,1.0253962278366089,0.08978699892759323
1772615936731174700,7.187174560546875,0.6749815344810486,0.9898425936698914,0.1094905436038971
1772615936741242600,7.19724267578125,0.7316533327102661,0.9573906660079956,0.11303415149450302
1772615936751310600,7.207310546875,0.7713488340377808,0.9256323575973511,0.10396018624305725
1772615936761378600,7.217378662109375,0.78216952085495,0.9040684700012207,0.09269687533378601
1772615936771446800,7.22744677734375,0.7651399374008179,0.9004290103912354,0.09000492841005325
1772615936781515500,7.237515625,0.7263635396957397,0.9014199376106262,0.08438326418399811
1772615936791583500,7.24758349609375,0.6926533579826355,0.8933915495872498,0.0921703428030014
1772615936801651700,7.257651611328125,0.6715696454048157,0.8937926292419434,0.09955555200576782
1772615936811719700,7.2677197265625,0.6631994843482971,0.8763138055801392,0.10869233310222626
1772615936821787600,7.27778759765625,0.6584094762802124,0.8688444495201111,0.09802690148353577
1772615936831855600,7.287855712890625,0.6679317355155945,0.8470607399940491,0.08020935952663422
1772615936841923800,7.297923828125,0.6831226348876953,0.8277245759963989,0.05882950499653816
1772615936851991600,7.307991455078125,0.6871165037155151,0.8061221837997437,0.03288234397768974
1772615936862059500,7.3180595703125,0.6804583072662354,0.7909254431724548,0.009997003711760044
1772615936872127500,7.32812744140625,0.6568253040313721,0.7773510813713074,-0.013345571234822273
1772615936882195700,7.33819580078125,0.6159348487854004,0.7786757349967957,-0.023568114265799522
1772615936892263700,7.348263671875,0.5718088746070862,0.781309962272644,-0.021985242143273354
1772615936902331600,7.35833154296875,0.5307120084762573,0.7765522003173828,-0.01423091534525156
1772615936912400400,7.368400390625,0.49438104033470154,0.7638601064682007,-0.005585196428000927
1772615936922468600,7.378468505859375,0.48118799924850464,0.7407271265983582,0.02379985712468624
1772615936932536600,7.38853662109375,0.47319507598876953,0.7080413103103638,0.05244765430688858
1772615936942604500,7.3986044921875,0.47279641032218933,0.6826134324073792,0.07001332938671112
1772615936952672800,7.4086728515625,0.4777589738368988,0.6559906601905823,0.07265567034482956
1772615936962740700,7.41874072265625,0.4753187298774719,0.621568500995636,0.057571522891521454
1772615936972808700,7.42880859375,0.4674054682254791,0.5699236989021301,0.08578014373779297
1772615936982876400,7.43887646484375,0.458412766456604,0.5059244632720947,0.12645407021045685
1772615936992944600,7.448944580078125,0.45380741357803345,0.5239880681037903,0.11194586753845215
1772615937003012600,7.4590126953125,0.4420098662376404,0.5590688586235046,0.068331278860569
1772615937013080600,7.46908056640625,0.4261254668235779,0.5494735836982727,0.036697421222925186
1772615937023148500,7.4791484375,0.4056984782218933,0.5504344701766968,0.014370274730026722
1772615937033216800,7.489216796875,0.3921068608760834,0.5474976301193237,-0.010796242393553257
1772615937043284700,7.49928466796875,0.3857482969760895,0.5424027442932129,-0.016539350152015686
1772615937053352700,7.509352783203125,0.3825145363807678,0.5337793827056885,-0.007515943609178066
1772615937063421400,7.51942138671875,0.37121766805648804,0.527991533279419,0.008217479102313519
1772615937073489700,7.52948974609375,0.351565957069397,0.5066306591033936,0.04027842730283737
1772615937083557600,7.5395576171875,0.3265591561794281,0.45397594571113586,0.10153298825025558
1772615937093625600,7.54962548828125,0.3099496066570282,0.3852209150791168,0.18184766173362732
1772615937103693600,7.559693603515625,0.3145795166492462,0.34795504808425903,0.26109641790390015
