time,seconds_elapsed,z,y,x
1772699645320177000,0.097177001953125,-0.0034545392263680696,0.0006385529413819313,0.000869781244546175
1772699645330134000,0.107134033203125,0.0008403407409787178,-0.0009806486777961254,0.0009715142659842968
1772699645340090600,0.117090576171875,0.001250733621418476,-0.000605409499257803,-0.0017222734168171883
1772699645350047700,0.1270478515625,-0.003571718232706189,0.003363499417901039,-0.003872509580105543
1772699645360004900,0.1370048828125,0.0013619589153677225,0.0005943956784904003,0.00045483699068427086
1772699645369961700,0.146961669921875,-0.00046578655019402504,-0.001283122692257166,0.0023849904537200928
1772699645379918800,0.1569189453125,-0.00048682535998523235,0.0001323469914495945,-0.002363159554079175
1772699645389876000,0.1668759765625,-0.0018857839750126004,-0.0006847106851637363,-0.000631572213023901
1772699645399832800,0.176832763671875,0.0002636532299220562,-0.0003046775236725807,0.00023209070786833763
1772699645409789700,0.186789794921875,-0.0010942603694275022,0.0006798761896789074,-0.00031500402837991714
1772699645419746800,0.196746826171875,-0.0007866652449592948,0.00021675275638699532,-0.0003336463123559952
1772699645429703700,0.20670361328125,-0.0010599056258797646,0.0007685595192015171,0.0029534935019910336
1772699645439660800,0.216660888671875,-0.003247692482545972,0.00014085276052355766,-0.002177086193114519
1772699645449618000,0.226617919921875,0.0016309295315295458,0.0013296999968588352,0.0037605660036206245
1772699645459575800,0.236575927734375,-0.000775236519984901,-0.0027033912483602762,0.0005759582854807377
1772699645469532700,0.24653271484375,-0.002158486982807517,0.002391237299889326,-0.0021673906594514847
1772699645479489800,0.25648974609375,-0.00028202380053699017,-0.0008777924813330173,-0.002010796684771776
1772699645489447000,0.266447021484375,-0.002130271401256323,-0.0032304220367223024,0.0005412311293184757
1772699645499403800,0.27640380859375,0.0003403429873287678,-0.0012988313101232052,-0.002021794905886054
1772699645509361000,0.28636083984375,-0.0009491001255810261,-0.00027700699865818024,-0.00004538567736744881
1772699645519317800,0.29631787109375,-0.00118718680460006,0.0015331432223320007,-0.0012408788315951824
1772699645529274600,0.306274658203125,0.000351018738001585,-0.0033923538867384195,-0.0011542714200913906
1772699645539231700,0.316231689453125,-0.0015163897769525647,0.00022741453722119331,-0.0013092674780637026
1772699645549188900,0.32618896484375,-0.0025952178984880447,0.0002481779083609581,-0.00025082193315029144
1772699645559145700,0.336145751953125,0.0012557131703943014,0.0001475103199481964,0.00007994286715984344
1772699645569102800,0.346102783203125,0.0009870314970612526,-0.0020853010937571526,0.002023969776928425
1772699645579059700,0.356059814453125,-0.0024828012101352215,-0.0013116528280079365,0.00017174100503325462
1772699645589016800,0.366016845703125,0.0002838841173797846,0.0014564748853445053,-0.004558722022920847
1772699645598973700,0.3759736328125,0.00017762393690645695,0.0005019982345402241,0.0011471002362668514
1772699645608930800,0.385930908203125,-0.00031632836908102036,-0.0009611756540834904,0.0018939543515443802
1772699645618888000,0.395887939453125,-0.0023648319765925407,0.00046468107029795647,0.003009019885212183
1772699645628844800,0.4058447265625,-0.0003727739676833153,-0.003077597124502063,0.0005587246268987656
1772699645638802000,0.415802001953125,0.0006043398752808571,0.0007043578661978245,-0.0012591490522027016
1772699645648758800,0.4257587890625,0.0029465947300195694,-0.0007388112135231495,-0.002043423941358924
1772699645658715600,0.435715576171875,-0.0003743672277778387,0.0014103595167398453,-0.00012781238183379173
1772699645668672800,0.4456728515625,0.0013635663781315088,0.0012484635226428509,-0.0033574257977306843
1772699645678630000,0.4556298828125,0.0005451769102364779,-0.0006346576847136021,0.0033164559863507748
1772699645688586800,0.465586669921875,-0.0008953221840783954,-0.0012519806623458862,-0.0012029018253087997
1772699645698544000,0.475544189453125,-0.0025728472974151373,0.0022109276615083218,0.00014891847968101501
1772699645708502000,0.485501953125,-0.0022378081921488047,0.00046894699335098267,0.00011251261457800865
1772699645718459100,0.495459228515625,0.0009891439694911242,-0.0018061916343867779,0.0013378332369029522
1772699645728416300,0.505416259765625,0.00028446223586797714,-0.00014117872342467308,-0.00074720848351717
1772699645738373000,0.515373046875,-0.00041435123421251774,-0.00020083319395780563,-0.00242526619695127
1772699645748330200,0.525330322265625,0.0017769113183021545,-0.0008618375286459923,-0.002163663972169161
1772699645758287000,0.535287109375,0.0006501281168311834,-0.0009883376769721508,0.0025682407431304455
1772699645768244000,0.545243896484375,-0.0028796393889933825,-0.00004530465230345726,-0.000982898287475109
1772699645778201000,0.555201171875,-0.0006452472880482674,0.000009289942681789398,-0.0012833026703447104
1772699645788158200,0.565158203125,-0.0034602447412908077,-0.001572608482092619,-0.00016152439638972282
1772699645798115000,0.575114990234375,-0.00039468007162213326,-0.001353430561721325,0.002659296151250601
1772699645808072200,0.585072265625,-0.0010327413910999894,-0.0020288247615098953,0.00026130396872758865
1772699645818029000,0.595029052734375,0.002941760467365384,0.0009254198521375656,0.0009843520820140839
1772699645827986000,0.60498583984375,0.004124203696846962,0.00032487697899341583,-0.00010780990123748779
1772699645837943000,0.614943115234375,0.0006304027047008276,-0.0012362678535282612,-0.00032325973734259605
1772699645847900200,0.624900146484375,-0.0015561120817437768,0.0003110594116151333,-0.0033612027764320374
1772699645857857000,0.63485693359375,0.003090038662776351,-0.0012895003892481327,-0.0007094931788742542
1772699645867814100,0.644814208984375,-0.0007033082656562328,0.000523814931511879,-0.00003004586324095726
1772699645877771300,0.654771240234375,-0.001869772793725133,-0.0010895277373492718,0.0009063216857612133
1772699645887728000,0.66472802734375,0.0021867540199309587,0.0006841374561190605,-0.0026394110172986984
1772699645897685000,0.67468505859375,-0.0014157039113342762,-0.0015156334266066551,0.0019627977162599564
1772699645907642000,0.68464208984375,-0.0008743060752749443,0.0023374403826892376,0.0005924697034060955
1772699645917599200,0.69459912109375,0.0007337105926126242,-0.002435477450489998,0.00015810830518603325
1772699645927556000,0.70455615234375,-0.0026617927942425013,-0.0017843488603830338,-0.002672141417860985
1772699645937514000,0.714513916015625,-0.00010862015187740326,0.0010375366546213627,0.001121798064559698
1772699645947471000,0.72447119140625,0.0006224403623491526,-0.0015148497186601162,0.000913138035684824
1772699645957428200,0.73442822265625,0.0003928758669644594,0.0020681670866906643,0.0007975571788847446
1772699645967385000,0.744385009765625,0.0017667824868112803,0.0009224852547049522,0.0014331480488181114
1772699645977342200,0.75434228515625,-0.00398750975728035,0.0023731086403131485,-0.00011521391570568085
1772699645987299300,0.76429931640625,-0.0001376303844153881,0.0013235504738986492,-0.0013337968848645687
1772699645997256000,0.774255859375,0.00021177646704018116,0.000247366726398468,0.002165596466511488
1772699646007213000,0.784213134765625,-0.0007059941999614239,-0.00021733064204454422,-0.0018914605025202036
1772699646017170200,0.794170166015625,0.002179008210077882,0.0004905378445982933,0.0005892738699913025
1772699646027127000,0.804126953125,0.0009984332136809826,0.0018831021152436733,-0.0036371364258229733
1772699646037084200,0.814084228515625,-0.0008806932019069791,0.0014372887089848518,-0.0009955470450222492
1772699646047041300,0.824041259765625,0.0017440393567085266,0.0012357677333056927,-0.00007638614624738693
1772699646056998000,0.833997802734375,-0.0013628044398501515,-0.0006713219918310642,-0.0012135561555624008
1772699646066955000,0.843955078125,0.0010047773830592632,0.0014064600691199303,-0.0012700967490673065
1772699646076912000,0.853912109375,-0.001363837975077331,-0.0004638782702386379,-0.0016501299105584621
1772699646086869000,0.863868896484375,0.0017350120469927788,-0.0022101104259490967,-0.000027758534997701645
1772699646096826000,0.873826171875,-0.0026687912177294493,0.0006179003976285458,0.0017483034171164036
1772699646106783200,0.883783203125,0.00040397304110229015,-0.001998127903789282,0.0007981406524777412
1772699646116740000,0.893739990234375,-0.00050736078992486,0.0013225674629211426,0.002182185649871826
1772699646126697000,0.903697021484375,0.004151321016252041,0.002986237406730652,0.0005124630406498909
1772699646136654000,0.913654052734375,0.0019387665670365095,0.0001795319840312004,0.000022707507014274597
1772699646146611200,0.923611083984375,-0.0009643908124417067,0.00011137919500470161,-0.0009884925093501806
1772699646156568000,0.933568115234375,0.0029057147912681103,0.00010365620255470276,0.0010333796963095665
1772699646166526000,0.94352587890625,0.0005291462875902653,-0.0005429787561297417,0.00012199021875858307
1772699646176483000,0.953483154296875,0.0014719050377607346,-0.0000953013077378273,-0.0005762907676398754
1772699646186440000,0.96343994140625,0.0014314295258373022,-0.0011427253484725952,0.0011438722722232342
1772699646196397000,0.97339697265625,0.0008649751543998718,0.0003798040561378002,0.0007779537700116634
1772699646206354200,0.983354248046875,-0.0005045905709266663,-0.002007081639021635,-0.002265775576233864
1772699646216311300,0.993311279296875,-0.0018028814811259508,-0.0022001611068844795,-0.00032193446531891823
1772699646226268200,1.00326806640625,0.0005761373322457075,-0.00018785195425152779,-0.0016079307533800602
1772699646236225000,1.01322509765625,-0.0019642519764602184,0.000391119159758091,-0.004360574297606945
1772699646246182100,1.02318212890625,0.00003812764771282673,-0.0014182012528181076,0.00044275540858507156
1772699646256139000,1.033138916015625,-0.0005192719399929047,-0.002456301124766469,-0.0009708506986498833
1772699646266096000,1.04309619140625,-0.0017487922450527549,0.0024874405935406685,-0.00027419812977313995
1772699646276053200,1.05305322265625,0.0003529745154082775,-0.0001922324299812317,-0.005775223486125469
1772699646286010000,1.063010009765625,-0.0006425511091947556,0.0007196534425020218,-0.002532769925892353
1772699646295967000,1.072967041015625,0.001024587545543909,-0.0004388215020298958,0.0016225604340434074
1772699646305924000,1.082924072265625,0.0015455111861228943,-0.0006846361793577671,0.0029355515725910664
1772699646315881000,1.092880859375,-0.0017996856477111578,0.0024517690762877464,0.0006271232850849628
1772699646325838000,1.102838134765625,0.001925780437886715,0.002031139098107815,-0.0013887216337025166
1772699646335795200,1.112795166015625,-0.0009706733981147408,0.002507312223315239,-0.0012941793538630009
1772699646345752000,1.122751953125,-0.0018622416537255049,-0.0007970076985657215,0.004392682574689388
1772699646355709200,1.132709228515625,-0.002743215300142765,0.00003523007035255432,-0.0002665175125002861
1772699646365666000,1.142666015625,0.0024963831529021263,0.0027847369201481342,-0.00074155000038445
1772699646375624200,1.152624267578125,0.0015443027950823307,0.0002307659015059471,0.0019029686227440834
1772699646385581000,1.1625810546875,-0.0017332772258669138,-0.00013495050370693207,0.0007535796612501144
1772699646395538200,1.1725380859375,-0.002054987009614706,0.0007851715199649334,-0.0003391155041754246
1772699646405495000,1.1824951171875,-0.0013545374386012554,0.00028084032237529755,0.0025251321494579315
1772699646415452000,1.192451904296875,-0.0016275114612653852,-0.001127439085394144,0.0012212484143674374
1772699646425409000,1.202408935546875,0.001307173166424036,0.00030801352113485336,-0.00009210826829075813
1772699646435366100,1.2123662109375,-0.00042041949927806854,0.00037113018333911896,0.000006162095814943314
1772699646445323000,1.222322998046875,-0.0013806103961542249,-0.0003361329436302185,0.001673170831054449
1772699646455280000,1.232280029296875,0.0002883926499634981,0.0007925149984657764,-0.000396637711673975
1772699646465237200,1.2422373046875,-0.0008323761867359281,0.00040781963616609573,-0.0022715923842042685
1772699646475194000,1.252194091796875,-0.001138639752753079,-0.0003743506968021393,0.0010650819167494774
1772699646485151000,1.26215087890625,-0.0010819645831361413,-0.0016241567209362984,-0.0002674548886716366
1772699646495108000,1.272108154296875,-0.0009653180604800582,0.00042993947863578796,0.0010087317787110806
1772699646505065200,1.282065185546875,-0.0018075112020596862,0.0006840801797807217,-0.003468225011602044
1772699646515022000,1.29202197265625,-0.0029537356458604336,0.0005559823475778103,-0.0018681979272514582
1772699646524979200,1.301979248046875,0.001807833556085825,0.00004957243800163269,-0.00032379617914557457
1772699646534936000,1.31193603515625,0.0009092830587178469,-0.00039783865213394165,0.0009989957325160503
1772699646544893000,1.321892822265625,0.0020649221260100603,-0.0010930206626653671,-0.0016587802674621344
1772699646554850000,1.33185009765625,0.002395154209807515,-0.0010536056943237782,0.0015178383328020573
1772699646564807200,1.34180712890625,-0.0009547289228066802,-0.0010508820414543152,0.0005793971940875053
1772699646574764000,1.351763916015625,0.0006261235103011131,-0.00023781927302479744,-0.00023180153220891953
1772699646584721200,1.36172119140625,0.00008164369501173496,0.00036158692091703415,-0.0018497994169592857
1772699646594678300,1.37167822265625,-0.0003543156199157238,-0.0016075544990599155,-0.0029371678829193115
1772699646604635000,1.381634765625,-0.0013262644642964005,-0.00006847735494375229,-0.0006361356936395168
1772699646614592000,1.391592041015625,0.00070386310108006,-0.002402737969532609,0.0017146365717053413
1772699646624550100,1.401550048828125,-0.0017167155165225267,0.0024846168234944344,0.0011626319028437138
1772699646634507300,1.41150732421875,0.0018109073862433434,-0.002566334791481495,0.0005540996789932251
1772699646644464000,1.421464111328125,0.0026958410162478685,-0.0007281620055437088,0.0005083270370960236
1772699646654421000,1.4314208984375,-0.0026118389796465635,0.0006966288201510906,0.00004467042163014412
1772699646664378000,1.441378173828125,0.0016357549466192722,-0.0016288496553897858,-0.00009350990876555443
1772699646674335000,1.4513349609375,-0.0005962403956800699,0.00048223836347460747,-0.003132442943751812
1772699646684292000,1.4612919921875,0.0024383682757616043,-0.0009597688913345337,0.0019260901026427746
1772699646694249200,1.471249267578125,0.00020557385869324207,-0.002209057565778494,-0.002493692096322775
1772699646704206000,1.4812060546875,-0.0016618159133940935,-0.0005166470073163509,-0.0029648919589817524
1772699646714163000,1.491162841796875,0.0007430184632539749,0.0015875166282057762,-0.0003003994934260845
1772699646724119800,1.501119873046875,-0.00008140015415847301,-0.0011770394630730152,0.00017256010323762894
1772699646734077000,1.511076904296875,0.0003124815411865711,0.0014107543975114822,-0.000670064240694046
1772699646744033800,1.52103369140625,0.0005699377506971359,-0.0007597161456942558,-0.0013622308615595102
1772699646753991000,1.530990966796875,0.0007286621257662773,-0.0008566551841795444,-0.0006101541221141815
1772699646763948000,1.540947998046875,-0.0015098322182893753,0.00135731790214777,-0.0008645709604024887
1772699646773905200,1.5509052734375,0.00031416676938533783,-0.0005945130251348019,0.001119484193623066
1772699646783861800,1.56086181640625,0.00048563512973487377,0.002312303055077791,-0.0029925585258752108
1772699646793819000,1.57081884765625,-0.0017570126801729202,-0.0004296875558793545,-0.002969655441120267
1772699646803776000,1.58077587890625,-0.0000030566006898880005,-0.001164535991847515,-0.0003557167947292328
1772699646813732900,1.59073291015625,-0.0010427547385916114,-0.0008026123978197575,0.0018909256905317307
1772699646823690000,1.60068994140625,-0.0030224816873669624,-0.0007887477986514568,0.002606875728815794
1772699646833647000,1.610647216796875,-0.0006152503192424774,0.0002461564727127552,0.0021735792979598045
1772699646843605000,1.62060498046875,0.0000022386666387319565,-0.0003887196071445942,-0.0009341463446617126
1772699646853561900,1.630561767578125,0.0011018579825758934,0.00012180861085653305,-0.0015173787251114845
1772699646863519000,1.64051904296875,0.0023258954752236605,-0.0021721920929849148,-0.0005863714031875134
1772699646873476000,1.65047607421875,0.0004262628499418497,0.0009532938711345196,0.002272265497595072
1772699646883433000,1.660432861328125,0.00005150330252945423,-0.0002212817780673504,0.0019990000873804092
1772699646893389800,1.670389892578125,-0.001344259362667799,-0.0002745450474321842,0.00020988844335079193
1772699646903347000,1.680346923828125,-0.0019084673840552568,-0.0024861162528395653,0.0022595026530325413
1772699646913303800,1.6903037109375,-0.001352932071313262,-0.0006623836234211922,-0.0012747782748192549
1772699646923261000,1.700260986328125,-0.0017555244266986847,-0.0012183431535959244,-0.001660193083807826
1772699646933218000,1.710218017578125,-0.0014511251356452703,0.0008967393077909946,0.0001267879270017147
1772699646943175000,1.7201748046875,0.0004251589998602867,-0.00039911363273859024,-0.0013036897871643305
1772699646953132000,1.730132080078125,0.0027080203872174025,-0.002280370332300663,-0.0004389616660773754
1772699646963089000,1.7400888671875,-0.00048385770060122013,-0.00023801904171705246,-0.00021467823535203934
1772699646973045800,1.750045654296875,0.0017859542276710272,-0.0002508023753762245,-0.00007353071123361588
1772699646983003000,1.7600029296875,0.0005629993975162506,-0.0007857796736061573,-0.001404517563059926
1772699646992960000,1.7699599609375,-0.0013701892457902431,-0.0006781877018511295,0.00037367502227425575
1772699647002917000,1.779917236328125,0.0019279303960502148,0.0004981467500329018,-0.0021678400225937366
1772699647012874000,1.7898740234375,-0.001028444734402001,0.001294964924454689,-0.00003464799374341965
1772699647022830800,1.799830810546875,-0.001065900200046599,-0.0010529127903282642,0.0008544484153389931
1772699647032788000,1.8097880859375,0.000605765962973237,-0.0005977782420814037,-0.0018169684335589409
1772699647042744800,1.819744873046875,-0.00031166989356279373,0.0013543837703764439,-0.002250616904348135
1772699647052702000,1.829701904296875,-0.00001818966120481491,-0.000862964428961277,-0.00004152487963438034
1772699647062659000,1.8396591796875,-0.004196241497993469,0.0007413472048938274,-0.0013228808529675007
1772699647072616000,1.849615966796875,0.0005638927686959505,-0.00026159919798374176,0.0020241797901690006
1772699647082573000,1.859572998046875,0.0007596968207508326,-0.0018036686815321445,-0.0016562629025429487
1772699647092531000,1.869531005859375,0.0011160278227180243,0.00014390097931027412,0.0004702713340520859
1772699647102488000,1.879488037109375,-0.0002223558258265257,0.004646723624318838,0.0010463460348546505
1772699647112445000,1.88944482421875,0.000827462412416935,0.003333518747240305,-0.0003901626914739609
1772699647122402000,1.899402099609375,0.0018282672390341759,0.0000317087396979332,0.0012962599284946918
1772699647132359000,1.90935888671875,0.0016282638534903526,-0.0019249157048761845,0.0009018457494676113
1772699647142315800,1.919315673828125,-0.0016531288856640458,-0.0011361902579665184,-0.00017071329057216644
1772699647152273000,1.92927294921875,0.0008502425625920296,-0.002836085855960846,0.0007755081169307232
1772699647162230000,1.93922998046875,0.00017031608149409294,-0.0010251523926854134,0.00003217952325940132
1772699647172187000,1.949186767578125,-0.0013908289838582277,0.00015942193567752838,0.0018204925581812859
1772699647182144000,1.95914404296875,-0.0006371736526489258,0.002446528524160385,-0.0011159363202750683
1772699647192101000,1.96910107421875,0.0008326249662786722,-0.00008267583325505257,0.002231124322861433
1772699647202057700,1.9790576171875,-0.001997452462092042,0.0007070135325193405,-0.0025494403671473265
1772699647212014800,1.989014892578125,-0.000418464420363307,-0.0013444190844893456,0.00013955356553196907
1772699647221972000,1.998971923828125,0.0010876741725951433,0.0025689364410936832,0.0019694860093295574
1772699647231928800,2.0089287109375,-0.0008508408209308982,0.00027994951233267784,0.0013740034773945808
1772699647241886000,2.018885986328125,0.0030618789605796337,0.0009553758427500725,0.001992609351873398
1772699647251843000,2.028843017578125,0.000012293457984924316,0.0011726897209882736,-0.0015824181027710438
1772699647261800000,2.038800048828125,-0.001306970021687448,0.0006971289403736591,-0.00018312549218535423
1772699647271756800,2.0487568359375,-0.00024543399922549725,-0.0002490920014679432,-0.004115549381822348
1772699647281714000,2.0587138671875,-0.0004263690207153559,-0.0003827875480055809,-0.0024395897053182125
1772699647291671000,2.068671142578125,-0.0007137240609154105,0.001493941992521286,0.00023182714357972145
1772699647301628000,2.0786279296875,-0.0015693854074925184,0.00026115262880921364,-0.0003310046158730984
1772699647311585000,2.0885849609375,0.0005909707397222519,-0.0005628294311463833,-0.000440194271504879
1772699647321542100,2.098542236328125,0.001050629187375307,-0.0007822425104677677,-0.0003104517236351967
1772699647331499800,2.108499755859375,0.0010458354372531176,-0.0010991590097546577,-0.0008627912029623985
1772699647341457000,2.118456787109375,-0.0002008676528930664,0.002611333504319191,0.00009147729724645615
1772699647351414000,2.1284140625,-0.003014763817191124,-0.0001833881251513958,0.003086202312260866
1772699647361371100,2.13837109375,0.000030542025342583656,-0.0012985006906092167,0.0012932796962559223
1772699647371328000,2.148327880859375,0.0004723602905869484,0.0006480040028691292,0.0009800917468965054
1772699647381284900,2.158284912109375,0.00021834298968315125,0.0017293202690780163,0.000050712842494249344
1772699647391242000,2.168241943359375,0.00014590495266020298,-0.0015226653777062893,0.00040731020271778107
1772699647401198800,2.17819873046875,0.004083503037691116,0.00027571385726332664,0.0003170901909470558
1772699647411156000,2.188156005859375,-0.00006170733831822872,0.0013766647316515446,-0.0012656264007091522
1772699647421113000,2.198113037109375,-0.002036109333857894,0.0011791270226240158,-0.00045767147094011307
1772699647431070000,2.208070068359375,0.0014707413502037525,0.0003045452758669853,-0.0018246721010655165
1772699647441026800,2.21802685546875,-0.0008764141239225864,-0.0017683841288089752,-0.0006076321005821228
1772699647450984000,2.22798388671875,0.0010815418791025877,0.0033179866150021553,-0.00108753377571702
1772699647460940800,2.23794091796875,-0.0005099340341985226,-0.0015942184254527092,0.0009572813287377357
1772699647470898000,2.24789794921875,0.0010299058631062508,-0.0013369573280215263,-0.002974875969812274
1772699647480855000,2.25785498046875,-0.0003034062683582306,-0.0011163358576595783,0.002029798924922943
1772699647490812000,2.26781201171875,0.0006350916810333729,-0.00032670842483639717,0.0011288514360785484
1772699647500769000,2.27776904296875,0.0003867354243993759,-0.00006466871127486229,-0.0005495622754096985
1772699647510726000,2.287725830078125,0.0003489186055958271,-0.0006969030946493149,0.000013163313269615173
1772699647520683000,2.29768310546875,0.0011896947398781776,-0.0014318553730845451,-0.0012361761182546616
1772699647530640000,2.307639892578125,0.0017564152367413044,-0.0006073405966162682,-0.0004678540863096714
1772699647540597000,2.317596923828125,-0.001953558763489127,0.0014426978304982185,0.00017400598153471947
1772699647550554000,2.32755419921875,0.00021372176706790924,0.002646713051944971,-0.002121372614055872
1772699647560511000,2.337510986328125,-0.000003053806722164154,0.0022814730182290077,-0.0009893621318042278
1772699647570467800,2.3474677734375,-0.001267256448045373,-0.0018608076497912407,-0.001819469267502427
1772699647580426000,2.357426025390625,-0.0002383438404649496,-0.0006620991043746471,-0.00006650574505329132
1772699647590382800,2.3673828125,-0.000664715887978673,0.0010156920179724693,-0.004944617860019207
1772699647600340000,2.377340087890625,0.0006600257474929094,0.0011369884014129639,-0.0002131424844264984
1772699647610297000,2.387297119140625,-0.001652929582633078,0.00024775881320238113,-0.0008501706179231405
1772699647620254000,2.39725390625,0.00021213199943304062,-0.0026526236906647682,0.0006475979462265968
1772699647630210800,2.4072109375,-0.0011149211786687374,0.002418834250420332,-0.002610247116535902
1772699647640168000,2.41716796875,-0.0010637601371854544,0.0012566656805574894,0.002189076039940119
1772699647650125000,2.427125,-0.0016951956786215305,-0.0011281953193247318,-0.0015153810381889343
1772699647660082000,2.43708203125,0.00007412116974592209,0.0006083897314965725,-0.0003536553122103214
1772699647670039000,2.4470390625,-0.0026593473739922047,0.0014981520362198353,-0.002194165950641036
1772699647679996000,2.456995849609375,-0.0005821697413921356,-0.004067962523549795,-0.00041887303814291954
1772699647689952800,2.466952880859375,-0.0009576753946021199,-0.0003214273601770401,-0.00007266225293278694
1772699647699910100,2.47691015625,0.002282462315633893,-0.00016017025336623192,0.0021888972260057926
1772699647709867000,2.486866943359375,-0.0030531808733940125,0.0013463799841701984,0.00008739670738577843
1772699647719824100,2.49682421875,0.0005452663172036409,-0.0005121966823935509,-0.00009530456736683846
1772699647729781200,2.50678125,-0.0009887145133689046,0.0017096782103180885,0.000012286938726902008
1772699647739738000,2.516738037109375,0.0008789608255028725,0.0003388933837413788,-0.0009693063329905272
1772699647749695000,2.526695068359375,0.0009748346637934446,-0.0009261080995202065,0.00046107731759548187
1772699647759652000,2.536652099609375,-0.0009538126178085804,-0.0017950823530554771,0.0012644864618778229
1772699647769609200,2.546609130859375,-0.0019948421977460384,0.00017219455912709236,0.00203121080994606
1772699647779566000,2.556566162109375,0.0003819374833256006,0.0005477629601955414,-0.0036983899772167206
1772699647789523200,2.566523193359375,-0.0009581651538610458,-0.0003795493394136429,0.004645559936761856
1772699647799480300,2.576480224609375,0.0009931044187396765,-0.0001910477876663208,-0.0028931028209626675
1772699647809437000,2.58643701171875,-0.001668458804488182,-0.0003702784888446331,0.00151362968608737
1772699647819394000,2.59639404296875,0.00028991885483264923,-0.0011491049081087112,0.001556450966745615
1772699647829351200,2.60635107421875,0.0017405427061021328,0.0027319202199578285,0.004539723973721266
1772699647839309300,2.616309326171875,0.0005581176374107599,-0.0009866985492408276,0.0021889256313443184
1772699647849266200,2.62626611328125,0.0009088560473173857,-0.0013158652000129223,0.0007114042527973652
1772699647859223000,2.63622314453125,-0.001574757625348866,0.0007930053398013115,-0.000006581656634807587
1772699647869180200,2.64618017578125,-0.00033132778480648994,-0.001976149622350931,-0.0006737038493156433
1772699647879137000,2.656136962890625,-0.002805853495374322,-0.00037776166573166847,0.005579847376793623
1772699647889094100,2.66609423828125,0.0007776960264891386,0.0031325514428317547,0.0006133182905614376
1772699647899051300,2.67605126953125,0.000562902307137847,0.000905684195458889,-0.0010225516743957996
1772699647909008100,2.686008056640625,-0.0021567177027463913,0.002517429646104574,0.0009199581108987331
1772699647918965000,2.695965087890625,0.0003503474872559309,0.0002972530201077461,0.0021491125226020813
1772699647928922000,2.705922119140625,-0.002809226745739579,0.00027621397748589516,-0.0022850504610687494
1772699647938879000,2.71587890625,0.000989334424957633,-0.000940278172492981,0.00014580367133021355
1772699647948836000,2.725836181640625,-0.000008552102372050285,0.00021047377958893776,-0.0000017355196177959442
1772699647958793200,2.735793212890625,0.0018617757596075535,0.0007111723534762859,-0.000004206318408250809
1772699647968750000,2.74575,0.0009922536555677652,-0.0008712778799235821,-0.00037438562139868736
1772699647978707200,2.755707275390625,-0.00001594237983226776,-0.0008956501260399818,-0.00015914998948574066
1772699647988664000,2.7656640625,-0.00035629444755613804,0.0012015895918011665,0.0016659139655530453
1772699647998621000,2.775620849609375,0.0010760899167507887,-0.0014673592522740364,0.0003204541280865669
1772699648008578000,2.785578125,-0.00010795146226882935,-0.0008742730133235455,0.0023591043427586555
1772699648018535200,2.79553515625,-0.0001651030033826828,-0.0009655719622969627,-0.0022531982976943254
1772699648028492300,2.8054921875,-0.0010665830923244357,0.0006472384557127953,0.00025336863473057747
1772699648038449200,2.81544921875,0.0026068431325256824,-0.001393694430589676,0.0006626751273870468
1772699648048406000,2.825406005859375,-0.0004102520179003477,0.000020178034901618958,0.00019848626106977463
1772699648058363100,2.835363037109375,0.0017861847300082445,0.00029208743944764137,0.0010167662985622883
1772699648068320000,2.845320068359375,0.0008599376305937767,0.00041219592094421387,0.00020663300529122353
1772699648078277000,2.855277099609375,0.0006312017794698477,0.000183111522346735,-0.0012183755170553923
1772699648088234200,2.865234130859375,0.00009910226799547672,-0.001408127136528492,0.001778479665517807
1772699648098192100,2.875192138671875,-0.00013732328079640865,-0.0001199888065457344,-0.000612371601164341
1772699648108149000,2.88514892578125,0.002259788103401661,-0.0003916313871741295,0.000983926933258772
1772699648118106000,2.895106201171875,0.0002545686438679695,-0.0009329016320407391,0.0032326974906027317
1772699648128063200,2.905063232421875,0.0006620322819799185,-0.0008175866678357124,-0.0013804296031594276
1772699648138020000,2.91502001953125,0.0014800399076193571,-0.0004585743881762028,0.0011789491400122643
1772699648147977200,2.924977294921875,-0.002316828817129135,0.001825353130698204,0.0002505714073777199
1772699648157934000,2.93493408203125,0.0019079402554780245,0.0012301481328904629,-0.001079699955880642
1772699648167891000,2.944890869140625,-0.0005640056915581226,0.001203782856464386,-0.001984908478334546
1772699648177848000,2.95484814453125,-0.002709202701225877,0.0012402646243572235,-0.0011611143127083778
1772699648187805200,2.96480517578125,0.0001185417640954256,0.0020410772413015366,0.00019629858434200287
1772699648197762000,2.974761962890625,-0.00011099595576524734,0.0006534322164952755,0.0009038271382451057
1772699648207719200,2.98471923828125,-0.0005560102872550488,-0.00003978889435529709,0.0002263188362121582
1772699648217676300,2.99467626953125,0.000956882955506444,0.0012391004711389542,0.0016013756394386292
1772699648227633000,3.0046328125,0.00020480621606111526,-0.0008512143976986408,-0.0024719289503991604
1772699648237590000,3.014590087890625,-0.0025211975444108248,-0.0011093891225755215,0.0020235851407051086
1772699648247547100,3.024547119140625,0.002071157330647111,-0.0018388289026916027,-0.002323492430150509
1772699648257504000,3.03450390625,0.0006970851682126522,-0.00115602882578969,0.0020281337201595306
1772699648267461000,3.044461181640625,0.0012062815949320793,0.0005830153822898865,-0.0004557967185974121
1772699648277418200,3.054418212890625,0.00038602412678301334,0.00045044953003525734,0.0014385497197508812
1772699648287375000,3.064375,0.0015966971404850483,0.002655280288308859,-0.003315991722047329
1772699648297332000,3.07433203125,-0.00009068800136446953,-0.0001819743774831295,0.00004891911521553993
1772699648307289000,3.0842890625,-0.000213725958019495,0.00012721866369247437,-0.0023117070086300373
1772699648317246200,3.09424609375,0.0005466004367917776,0.0009721131063997746,0.0006775446236133575
1772699648327203000,3.104203125,0.0031999079510569572,0.0011028745211660862,0.0012272209860384464
1772699648337160200,3.11416015625,-0.00020308350212872028,-0.0007558153010904789,0.0017343130894005299
1772699648347117300,3.124117431640625,0.002205213066190481,-0.0025699608959257603,0.0019313869997859001
1772699648357074000,3.134073974609375,-0.0019090655259788036,-0.0011179335415363312,0.002171232830733061
1772699648367032000,3.144031982421875,0.0011623580940067768,-0.0010281847789883614,0.0006311270408332348
1772699648376989200,3.1539892578125,0.0005449361633509398,0.001833413727581501,-0.00471753254532814
1772699648386946300,3.1639462890625,0.0013430854305624962,-0.0000545009970664978,-0.0005544791929423809
1772699648396903000,3.17390283203125,0.0005906315054744482,0.0002523544244468212,0.0001738453283905983
1772699648406860000,3.183860107421875,0.0000595971941947937,-0.00009066052734851837,0.0010934346355497837
1772699648416817200,3.193817138671875,-0.0017036495264619589,0.00020544696599245071,-0.0034977635368704796
1772699648426774000,3.20377392578125,0.001134481281042099,-0.0005591465160250664,0.0013164328411221504
1772699648436731100,3.213731201171875,-0.0010405174689367414,0.0007537407800555229,0.0011944416910409927
1772699648446688300,3.223688232421875,-0.00018084910698235035,-0.0003187139518558979,-0.002849302254617214
1772699648456645000,3.23364501953125,-0.0005481175612658262,-0.003323148237541318,0.0011793789453804493
1772699648466602000,3.24360205078125,0.0020015928894281387,-0.0009950129315257072,-0.0013897726312279701
1772699648476559000,3.25355908203125,0.000020165229216217995,-0.0005491110496222973,-0.0011047259904444218
1772699648486516000,3.263515869140625,0.0004800930619239807,0.00005010049790143967,-0.0005052485503256321
1772699648496473000,3.27347314453125,0.0008370287250727415,-0.0020348532125353813,0.0009343218989670277
1772699648506430200,3.28343017578125,0.003685812233015895,-0.0014942316338419914,0.0013106265105307102
1772699648516387000,3.293386962890625,0.00006570061668753624,-0.001087595708668232,-0.001147477887570858
1772699648526344000,3.303343994140625,0.0007365508936345577,0.00007647229358553886,0.001770547591149807
1772699648536301000,3.313301025390625,0.0010246834717690945,-0.00012055225670337677,0.003489112015813589
1772699648546258200,3.323258056640625,0.00014584045857191086,0.0007300614379346371,-0.002895550336688757
1772699648556215000,3.333215087890625,-0.0019956310279667377,-0.00020965375006198883,0.0027632499113678932
1772699648566172200,3.343172119140625,-0.0029437164776027203,0.0009717242792248726,0.001178402453660965
1772699648576129300,3.35312939453125,-0.0010077651822939515,-0.0011011073365807533,0.00000951625406742096
1772699648586086100,3.363086181640625,0.00037414906546473503,0.00032847747206687927,0.0012364345602691174
1772699648596043000,3.37304296875,-0.0006943168118596077,-0.0014005061239004135,-0.0008002042304724455
1772699648606000000,3.383000244140625,-0.00008658342994749546,-0.0005658715963363647,0.004321587271988392
1772699648615957000,3.39295703125,-0.0019998832140117884,-0.0022219568490982056,0.001714805606752634
1772699648625914000,3.4029140625,-0.0012960097519680858,0.001145610585808754,-0.00217633880674839
1772699648635872000,3.4128720703125,-0.0009004806634038687,0.00029513612389564514,0.004290660843253136
1772699648645829000,3.4228291015625,-0.002095174742862582,0.0008999397978186607,0.000669027678668499
1772699648655786000,3.432785888671875,0.0005951535422354937,-0.00014048488810658455,-0.002950465539470315
1772699648665743000,3.4427431640625,0.0007155286148190498,0.001857152208685875,0.0011196434497833252
1772699648675700200,3.4527001953125,-0.0003664835821837187,0.0002197064459323883,-0.0009162202477455139
1772699648685657000,3.462656982421875,-0.0029449560679495335,-0.0015188050456345081,0.00004811026155948639
1772699648695614200,3.4726142578125,0.001797547796741128,-0.0011132746003568172,0.002879826817661524
1772699648705570600,3.482570556640625,-0.00048451474867761135,-0.0007036803290247917,-0.0030955078545957804
1772699648715527400,3.49252734375,-0.0005243809428066015,0.0008398923091590405,-0.00005690287798643112
1772699648725484300,3.502484375,-0.0019576940685510635,0.013257146812975407,0.004450763575732708
1772699648735441400,3.51244140625,-0.0015802131965756416,-0.010481495410203934,-0.0025387511122971773
1772699648745398500,3.5223984375,-0.00017486303113400936,-0.008555764332413673,-0.004507093224674463
1772699648755355400,3.53235546875,-0.001011332031339407,0.0003368370234966278,-0.0014045217540115118
1772699648765312500,3.5423125,6.691552698612213e-7,-0.0024938369169831276,0.0006522377952933311
1772699648775269600,3.55226953125,-0.000034756259992718697,0.000459364615380764,-0.0018822129350155592
1772699648785226200,3.562226318359375,0.004138949792832136,-0.0015385388396680355,0.0033676759339869022
1772699648795183400,3.572183349609375,-0.0004483340308070183,-0.0003696950152516365,-0.0005189669318497181
1772699648805140500,3.582140380859375,0.001435586018487811,0.0008633485995233059,0.000537775456905365
1772699648815097300,3.592097412109375,0.0002822533715516329,-0.0012687710113823414,-0.0008488062303513288
1772699648825054500,3.602054443359375,-0.0007915332680568099,-0.0008101747371256351,-0.0007542639505118132
1772699648835011600,3.612011474609375,-0.0014533324865624309,-0.000918596051633358,-0.0006718370132148266
1772699648844968200,3.62196826171875,0.002630891278386116,0.00024387380108237267,0.0005968930199742317
1772699648854925300,3.63192529296875,-0.00007165665738284588,-0.001410451252013445,-0.0037581634242087603
1772699648864882400,3.64188232421875,0.00115952268242836,-0.0002170889638364315,-0.001065175049006939
1772699648874839600,3.651839599609375,0.0016251241322606802,0.0005887583829462528,0.00036420952528715134
1772699648884796400,3.66179638671875,0.0018325846176594496,-0.00021844543516635895,-0.002643564250320196
1772699648894753500,3.67175341796875,0.0014429965522140265,-0.0012421556748449802,-0.0022122596856206656
1772699648904711400,3.68171142578125,-0.0010941971559077501,-0.0017422973178327084,0.0013750181533396244
1772699648914668300,3.691668212890625,-0.0007513652089983225,-0.0016434895806014538,0.0005721491761505604
1772699648924625400,3.70162548828125,0.000989809399470687,0.0015842616558074951,0.0001915832981467247
1772699648934582500,3.71158251953125,0.0006684104446321726,-0.0030848083551973104,0.0001780325546860695
1772699648944539600,3.72153955078125,-0.0017944808350875974,-0.0008141971193253994,0.000012650154531002045
1772699648954496300,3.731496337890625,-0.0009582351194694638,0.0018915887922048569,0.0012806989252567291
1772699648964453400,3.741453369140625,0.001275890739634633,-0.0023508272133767605,0.0016351654194295406
1772699648974410500,3.751410400390625,-0.0016738626873120666,0.0009158151224255562,0.00031650951132178307
1772699648984367400,3.761367431640625,0.0005189841613173485,-0.0002567744813859463,0.0017911018803715706
1772699648994324500,3.771324462890625,0.0007478187326341867,0.00009954208508133888,-0.0015637408941984177
1772699649004281600,3.781281494140625,0.00009055063128471375,-0.0025891850236803293,0.001494367141276598
1772699649014238500,3.791238525390625,0.00197828677482903,-0.000760931521654129,-0.0001298375427722931
1772699649024195300,3.8011953125,0.0003830534406006336,0.0012750551104545593,-0.0012504956685006618
1772699649034152400,3.81115234375,0.0009309276938438416,0.00039037829264998436,0.00043357815593481064
1772699649044109300,3.821109375,0.00045901560224592686,-0.000632009468972683,-0.005979313515126705
1772699649054066400,3.83106640625,-0.0002857586368918419,0.0006710635498166084,-0.001846223371103406
1772699649064023600,3.8410234375,-0.00048602838069200516,-0.0029337911400943995,0.002529350109398365
1772699649073980400,3.85098046875,0.0018433663062751293,0.002379759680479765,0.001901368610560894
1772699649083937300,3.860937255859375,0.00032350001856684685,-0.0013497313484549522,0.0002667205408215523
1772699649093894400,3.870894287109375,-0.00007355213165283203,-0.0003438876010477543,-0.0019292188808321953
1772699649103851300,3.880851318359375,0.0008854521438479424,0.0002840859815478325,0.002082833554595709
1772699649113808400,3.890808349609375,-0.0004534926265478134,0.0011493540368974209,-0.00017161155119538307
1772699649123765500,3.900765625,0.001856799703091383,-0.0006434861570596695,0.0010963194072246552
1772699649133722600,3.91072265625,-0.00006351224146783352,-0.0024408516474068165,0.0009423210285604
1772699649143679500,3.920679443359375,0.00006724894046783447,0.0004079318605363369,0.002775108441710472
1772699649153636400,3.93063623046875,-0.0018458390841260552,0.002038835547864437,0.0019236141815781593
1772699649163593500,3.940593505859375,0.0002239698078483343,0.0023762574419379234,-0.0004756278358399868
1772699649173551400,3.95055126953125,0.0007248423062264919,-0.0022421889007091522,0.0033802841790020466
1772699649183508500,3.960508544921875,-0.0004325674381107092,-0.0008512195199728012,0.0020513669587671757
1772699649193465300,3.97046533203125,-0.001463248860090971,0.0009693051688373089,-0.0011131358332931995
1772699649203422500,3.98042236328125,-0.0013170413440093398,-0.0008443077094852924,0.00004001287743449211
1772699649213379300,3.99037939453125,-0.00270858034491539,0.00067104771733284,-0.0010757918935269117
1772699649223336400,4.00033642578125,-0.00008163810707628727,0.00016691163182258606,-0.000737570459023118
1772699649233293600,4.01029345703125,-0.0014401862863451242,0.0009514903649687767,-0.001620579045265913
1772699649243250400,4.02025048828125,-0.0006023559253662825,-0.000050391070544719696,-0.0016876908484846354
1772699649253207600,4.03020751953125,0.0008113512303680182,0.00006467336788773537,0.0019794641993939877
1772699649263164400,4.040164306640625,-0.0010483341757208109,0.000712087843567133,0.0021126223728060722
1772699649273121300,4.050121337890625,0.00039641885086894035,-0.001306337770074606,-0.0028522503562271595
1772699649283078400,4.060078369140625,-0.00222253380343318,0.0008457629010081291,-0.000544088426977396
1772699649293035500,4.070035400390625,-0.0014132587239146233,0.012712545692920685,0.00918456632643938
1772699649302992400,4.079992431640625,0.0025101101491600275,-0.0018040784634649754,-0.0020113629288971424
1772699649312949500,4.089949462890625,-0.0015668917912989855,-0.005913570523262024,-0.003798349993303418
1772699649322906400,4.09990625,-0.0006864507449790835,-0.002136142924427986,-0.004513674881309271
1772699649332863200,4.10986328125,-0.001376032130792737,-0.0011733188293874264,0.0008396194316446781
1772699649342820400,4.1198203125,0.0015252153389155865,0.00020433450117707253,-0.00038490211591124535
