time,seconds_elapsed,z,y,x
1772614961489720300,0.07872021484375,0.09931114584058523,0.04859773443043232,-0.028412293883413074
1772614961499788300,0.088788330078125,0.07383066762536764,0.027553777357935905,0.005979585866257548
1772614961509855200,0.098855224609375,0.03911693551018834,0.0010837035834789276,-0.05620006266031414
1772614961519923500,0.10892333984375,-0.05694938319027423,-0.04420446790754795,-0.14081713191177694
1772614961529990400,0.118990478515625,-0.12686112380623818,-0.028626375025510787,-0.12139927820377051
1772614961540058400,0.129058349609375,-0.16523440134227274,0.04535480698645115,-0.03385938030816615
1772614961550125600,0.13912548828125,-0.18335048826932906,0.11560030960142612,0.05518938778042793
1772614961560192500,0.149192626953125,-0.1536030002593994,0.1542307767689228,0.07473634776081889
1772614961570260500,0.159260498046875,-0.09896627792567014,0.15163783766627312,0.0015684914257377384
1772614961580327400,0.169327392578125,-0.05245192564055323,0.0919119754999876,-0.1286152739971876
1772614961590395600,0.179395751953125,-0.03926628085300326,0.059420741739869117,-0.15446937129776925
1772614961600462600,0.189462646484375,-0.012127952428162097,0.07498071444332599,-0.10894508949592709
1772614961610530600,0.199530517578125,0.017578326788544655,0.03551145836412906,-0.08658793093301355
1772614961620598500,0.2095986328125,0.03111059305667877,-0.009227262550592422,-0.08013948544599116
1772614961630665500,0.21966552734375,0.05323620788604021,-0.011109423035383224,-0.059201619096472854
1772614961640733400,0.2297333984375,0.06342530120611191,0.026395254972577095,-0.034735103696770964
1772614961650800600,0.239800537109375,0.06825301362350583,0.05724515126645565,-0.009207242675870657
1772614961660868600,0.24986865234375,0.08044438667669891,0.07668751836121082,0.007843333911523222
1772614961670935600,0.259935546875,0.1117974101871252,0.07131225506365299,0.027712109724804757
1772614961681003500,0.27000341796875,0.1296481241762638,0.06836509569585322,0.018370134753361342
1772614961691071500,0.280071533203125,0.14908420766070485,0.014511924955248832,0.026896774753928182
1772614961701138400,0.290138427734375,0.12018763739168643,-0.07753624414503574,0.005039528537169099
1772614961711206700,0.30020654296875,0.030876930431276556,-0.11609189251065254,-0.10774583324138075
1772614961721273600,0.310273681640625,-0.07200140637159347,-0.13139350653886794,-0.2040922109922394
1772614961731341600,0.320341552734375,-0.1304015728920698,-0.11732757178544997,-0.17030209652800113
1772614961741408500,0.330408447265625,-0.18643091862797737,-0.09106032710671425,-0.11296904778238386
1772614961751476500,0.3404765625,-0.20218202998936174,-0.048098552736639974,-0.09983663101941347
1772614961761544700,0.350544677734375,-0.1575514456242323,-0.002515197691321373,-0.05451302288882434
1772614961771611600,0.360611572265625,-0.09502046290934085,0.0133107324719429,-0.024262042336165905
1772614961781679600,0.3706796875,-0.02496492990851402,0.03550619766712188,-0.06505377919077873
1772614961791746600,0.38074658203125,0.10905088795796036,0.04567570950388908,-0.00852791864220053
1772614961801814500,0.390814453125,0.19683803861290217,-0.0056564183264970775,-0.05818477020412683
1772614961811881500,0.400881591796875,0.22908245800510046,0.010523732101917265,0.017809870522096753
1772614961821949400,0.410949462890625,0.21018033526688812,-0.01745382362604141,-0.041413339351676404
1772614961832017700,0.421017578125,0.0723769616857171,-0.04689093051254749,-0.12837255128249525
1772614961842084600,0.431084716796875,-0.08096621859371661,-0.012771218767762183,-0.15159549636188893
1772614961852152600,0.441152587890625,-0.11857494149804114,0.06858896757960319,-0.02518668290041387
1772614961862219500,0.451219482421875,-0.07484656666964293,0.1195703822761774,0.07520666868630796
1772614961872287500,0.46128759765625,-0.050713119149208064,0.10299100339710712,-0.0553268965549767
1772614961882354400,0.4713544921875,-0.03764320969581604,0.04370703977942467,-0.07745989097319543
1772614961892422700,0.481422607421875,0.007717588640004396,0.055550622308254236,-0.06786763103511184
1772614961902490600,0.49149072265625,-0.014617577286809682,0.04260989219248294,-0.059107182278670366
1772614961912557600,0.5015576171875,-0.05092003989815712,0.03904664675295353,-0.06732238170988858
1772614961922625500,0.51162548828125,-0.09358195453882216,0.05552081169188022,-0.07649966763891279
1772614961932692500,0.5216923828125,-0.12316460737586021,0.038682489615678786,-0.05724230172224343
1772614961942760700,0.5317607421875,-0.12839140211343764,0.04072130196690559,-0.032795660066790876
1772614961952827600,0.54182763671875,-0.11193638026639818,0.035595044994354244,0.0361178998246789
1772614961962895600,0.5518955078125,-0.07093056226968765,0.027281390157341955,0.031402707871049644
1772614961972963600,0.561963623046875,-0.019284546184539793,0.011553659671545029,-0.04755600682515651
1772614961983030500,0.572030517578125,0.00724661012738943,-0.03490706273019314,-0.07909172995872796
1772614961993098500,0.582098388671875,0.033318332234025,-0.059578562650084495,-0.09997161904331296
1772614962003165400,0.59216552734375,0.039998832911252974,-0.061952890565991396,-0.1450833745215088
1772614962013233700,0.602233642578125,0.051931847289204594,-0.05614098941683769,-0.12349504490662365
1772614962023300600,0.612300537109375,0.06478080746829509,-0.041428573453426355,-0.025909626880101858
1772614962033368600,0.62236865234375,0.05721183351874351,-0.0462239910364151,0.008428842181898653
1772614962043436500,0.6324365234375,0.02936345712840557,-0.0416401703774929,-0.0019855477940291166
1772614962053503500,0.64250341796875,-0.020551789641380307,-0.03571078032851219,-0.0544763076076284
1772614962063571700,0.65257177734375,-0.05616846194565296,-0.026444939333200454,-0.06270889656506479
1772614962073638700,0.662638671875,-0.05262041407525539,0.0027846622824668882,0.013809914165735244
1772614962083706600,0.67270654296875,-0.013046528577804565,0.03804243814647198,0.04500402078740298
1772614962093773600,0.682773681640625,0.0019569792866706848,0.058740942782163616,0.0253840321034193
1772614962103841500,0.692841552734375,0.031399493000656364,0.06994564288556575,0.004367657157592475
1772614962113909500,0.702909423828125,0.03541793486177921,0.07068506307601928,-0.0207313109267503
1772614962123976400,0.7129765625,0.038355157357454296,0.06601064152419567,-0.05641567817237228
1772614962134044700,0.723044677734375,0.012679010439664126,0.02025368347764015,-0.13166238660812377
1772614962144111600,0.733111572265625,0.0002446224108338356,-0.028971827462315556,-0.21060637865923343
1772614962154179600,0.7431796875,-0.03639993163645267,-0.049985973918437954,-0.1801219546768814
1772614962164246500,0.75324658203125,-0.07313581722900271,-0.028897008660435673,-0.11813088752496986
1772614962174314500,0.763314453125,-0.08100041312426329,0.018936755660176274,-0.05016195153985172
1772614962184382700,0.7733828125,-0.07415536953508854,0.030786183407902717,-0.008578845111839473
1772614962194449700,0.78344970703125,-0.0662707537651062,0.04560322878956794,-0.036257162164896724
1772614962204517600,0.793517578125,-0.03707607733234763,0.030906594917178152,-0.09344473802521824
1772614962214584600,0.80358447265625,0.007630494878441095,0.0000602057546377182,-0.1488361511837691
1772614962224652500,0.813652587890625,0.03668722414523363,-0.029353520256280897,-0.18845449687745422
1772614962234719500,0.823719482421875,0.06138765789866447,-0.03145253836214542,-0.20478720751907675
1772614962244787700,0.83378759765625,0.08160860815048217,0.0022936638951301575,-0.1846516339957714
1772614962254855700,0.843855712890625,0.08072028100863099,0.03491758412420749,-0.10923132255878298
1772614962264922600,0.853922607421875,0.08670812324658035,0.052420507588982576,-0.032590273687802256
1772614962274990600,0.863990478515625,0.10667290678024291,0.06770283239483833,0.0019470789471641183
1772614962285057500,0.8740576171875,0.10019172806739807,0.0632470220297575,-0.03151234225798398
1772614962295125500,0.88412548828125,0.10702420443594456,0.02587736857831478,-0.07800170623231678
1772614962305192400,0.8941923828125,0.08624094412624836,-0.010721300500631331,-0.08702055019661784
1772614962315260700,0.9042607421875,0.08098872268646955,-0.03137596599459648,-0.08046239725742489
1772614962325328600,0.91432861328125,0.06762129159122705,-0.022668927925825116,-0.06197214325573295
1772614962335395600,0.9243955078125,0.06268588101565838,-0.009498480707406998,-0.048551009211875495
1772614962345463600,0.934463623046875,0.061307286138832566,0.0006412205129861831,-0.03353314402848482
1772614962355530500,0.944530517578125,0.055339025384187696,-0.0060953942656517025,0.001950257284939289
1772614962365598700,0.9545986328125,0.030897973219305274,-0.025193477967381476,-0.00792264622543007
1772614962375666700,0.964666748046875,0.0093283848375082,-0.062409986683726305,-0.05636613994222134
1772614962385733600,0.974733642578125,-0.027820319339632988,-0.09947276614308356,-0.10503851051144301
1772614962395801600,0.984801513671875,-0.05113514395356178,-0.1065600940555334,-0.13236081720106302
1772614962405868500,0.99486865234375,-0.05873962760791182,-0.07560264573395252,-0.11596516085844487
1772614962415936500,1.0049365234375,-0.06208776899203658,-0.011526771664619444,-0.02629720142558217
1772614962426003700,1.015003662109375,-0.04808306290656328,0.050581017202138895,0.08400847236644476
1772614962436071700,1.02507177734375,-0.036845045055449006,0.07559855408072472,0.09694598761182278
1772614962446139600,1.0351396484375,-0.026928777327388524,0.07272095281779765,0.04389909175280481
1772614962456206600,1.04520654296875,-0.010494213746488094,0.06229658943712711,0.022117358457669614
1772614962466274600,1.055274658203125,-0.012852467310428618,0.0023480244308710096,-0.09577606704961508
1772614962476341500,1.065341552734375,-0.00924757468625903,-0.0718821639060974,-0.24916429204717278
1772614962486409700,1.07540966796875,0.009685527712106705,-0.07866787852346897,-0.2589067741109058
1772614962496476700,1.0854765625,0.002672141818702221,-0.04525017756819725,-0.16423611101992427
1772614962506544600,1.095544677734375,0.012983984735608101,0.007494155147671699,-0.07321410662960261
1772614962516612600,1.105612548828125,0.03785305305421352,0.053853170740604396,-0.05514752140007913
1772614962526679600,1.115679443359375,0.04563420844972133,0.09356032722890377,-0.022414259045012295
1772614962536747800,1.125747802734375,0.0828293821170926,0.10026362425982951,0.030016769937984644
1772614962546814700,1.135814697265625,0.09915493236556648,0.09844050048589706,0.02488459468130022
1772614962556882400,1.14588232421875,0.10474997589364647,0.07199965280592441,-0.03414652668647468
1772614962566949400,1.155949462890625,0.08313567158728838,0.022941315126419067,-0.13729798134230076
1772614962577017600,1.166017578125,0.060437225306034084,-0.0010223287850618362,-0.22469825157150625
1772614962587085600,1.17608544921875,0.021048633247613906,-0.02471884619295597,-0.2552502974299714
1772614962597152500,1.186152587890625,-0.018503624939918518,-0.03169511494636536,-0.20549601337555795
1772614962607220500,1.196220458984375,-0.014435206457227468,-0.02437865445315838,-0.1381900713438168
1772614962617287400,1.206287353515625,0.029408611444383857,-0.0024245967984199523,-0.04784819470476359
1772614962627355600,1.216355712890625,0.07211202713921666,0.03253098124861717,0.029667006652243432
1772614962637422600,1.226422607421875,0.09315291547179222,0.05548047968149185,0.05269826508443802
1772614962647490600,1.236490478515625,0.09957534973472357,0.0612643237799406,0.05845131218582392
1772614962657558500,1.24655859375,0.07237959203422069,0.020223872861266135,0.03083320088740438
1772614962667625500,1.25662548828125,0.014618892461061477,-0.007987491622567176,-0.06896759163364767
1772614962677693400,1.266693359375,-0.0334533567905426,-0.011124036082625388,-0.11117719592954962
1772614962687760400,1.276760498046875,-0.06721358757317066,-0.01250643035173416,-0.10236793959531933
1772614962697828600,1.28682861328125,-0.08301189907714725,-0.008559738552570343,-0.10010938354618847
1772614962707895600,1.2968955078125,-0.060277358569204804,0.007670096236467361,-0.042173108210414645
1772614962717963500,1.306963623046875,-0.017589724965393544,0.01353168174624443,0.00013407470844686032
1772614962728031500,1.317031494140625,0.023825112223625183,0.00672375529706478,-0.06729052526690066
1772614962738098400,1.327098388671875,0.06013268940150737,-0.015733575704693793,-0.08615395996253937
1772614962748166700,1.337166748046875,0.07756137858629227,-0.04039046257734299,-0.08417239422388374
1772614962758233600,1.347233642578125,0.0692249273955822,-0.04851005614697933,-0.07656327092703431
1772614962768301600,1.357301513671875,0.04594005952849984,-0.037106034079194064,-0.056145373331010336
1772614962778368500,1.367368408203125,0.019444266790896652,-0.025687983486056325,-0.04640793276857585
1772614962788436500,1.3774365234375,-0.017267799534648656,-0.015395137530565262,-0.05826642060559242
1772614962798504400,1.38750439453125,-0.01897694154009223,-0.0074514850497245785,-0.06687102121319621
1772614962808571600,1.397571533203125,-0.008785364001989364,0.0066916065931320184,-0.0327053149022162
1772614962818639600,1.4076396484375,-0.037516660706698894,0.027329320952296256,-0.0071949164727702734
1772614962828706600,1.41770654296875,-0.05540595314055681,0.058898179170489305,0.04134867661762982
1772614962838774500,1.4277744140625,-0.07475976516902447,0.06172141989767551,0.043265652687475085
1772614962848841500,1.437841552734375,-0.087746672514081,0.04377425979673862,-0.08131601841207593
1772614962858909400,1.447909423828125,-0.06092179395258426,0.03161269735991955,-0.15163590143751352
1772614962868977700,1.457977783203125,-0.023051789763569832,0.018264555487036704,-0.13758468932919204
1772614962879044600,1.468044677734375,0.025716040536761284,0.0142214175760746,-0.09468706623651087
1772614962889112600,1.478112548828125,0.06750234138667584,0.03684533731639385,-0.033649171623587604
1772614962899179500,1.488179443359375,0.06642565206587314,0.03891162219643592,0.04148571046814322
1772614962909247500,1.49824755859375,0.06914367885291577,0.05735387233793735,0.07745740675516426
1772614962919314400,1.508314453125,0.043310295546799896,0.05164952321648597,0.03911028657369316
1772614962929382700,1.518382568359375,0.020822423276305197,0.04501227715909481,0.017410605538822708
1772614962939450600,1.52845068359375,-0.003782733409106731,0.028542203873395917,-0.046692302667908366
1772614962949517600,1.538517578125,-0.05132599035054445,0.019174656069278716,-0.06448975209984928
1772614962959585500,1.54858544921875,-0.04740764786303043,0.003861351603269577,-0.046966991423442954
1772614962969652500,1.558652587890625,-0.060462944269180294,-0.03721475515067577,-0.07583689288124441
1772614962979720400,1.568720458984375,-0.07070011451467871,-0.05737491512596607,-0.114091987397708
1772614962989787600,1.57878759765625,-0.06078209322094917,-0.03467208493053913,-0.10370349904801696
1772614962999855600,1.588855712890625,-0.05886880694553256,-0.0020458266139030457,-0.04536624169591814
1772614963009923600,1.598923583984375,-0.03815992704629898,0.02798866164386272,-0.01591083196774125
1772614963019990500,1.608990478515625,-0.0001806172639131546,0.04512333631813526,-0.0006029343292117119
1772614963030058500,1.61905859375,0.05391337649524212,0.03996493064165115,0.0036065365919843314
1772614963040125400,1.62912548828125,0.07393675834834575,0.035005262407660484,-0.014689546544477343
1772614963050193700,1.639193603515625,0.055157969728857274,0.039673254218697544,-0.03519515895657241
1772614963060260600,1.649260498046875,0.04980725635066628,0.034763854867219925,-0.017599661837518214
1772614963070328600,1.65932861328125,0.03738324358537793,0.0024836335092782973,-0.046710568976961075
1772614963080396300,1.669396240234375,0.016598668101429938,-0.04442132552862167,-0.12488971413541584
1772614963090463500,1.67946337890625,0.05026961316540837,-0.061065586337447166,-0.1941123034434393
1772614963100531500,1.689531494140625,0.0798906983166933,-0.05936170502901077,-0.15772004365678877
1772614963110598700,1.6995986328125,0.09889949629977345,-0.06405775389075279,-0.11962021276727318
1772614963120666600,1.70966650390625,0.1058086911663413,-0.052414077848196024,-0.11760532928090542
1772614963130734300,1.719734375,0.09616320320367812,-0.02087152311503887,-0.0744656410606578
1772614963140801500,1.729801513671875,0.07471154211312532,-0.008205518287420272,-0.017478373545408248
1772614963150869200,1.739869140625,0.04836567924022674,-0.0004354688078165054,-0.022897877843491732
1772614963160936400,1.7499365234375,0.015186755476891994,0.027615736678242683,-0.00785546274073422
1772614963171004400,1.76000439453125,-0.009699556237459182,0.034468086791038514,0.025048114679940045
1772614963181071600,1.770071533203125,-0.062139353048801416,0.006492284628748893,-0.020992190352641046
1772614963191139600,1.7801396484375,-0.08309826218634843,-0.010609072297811507,-0.11635050691422075
1772614963201207300,1.790207275390625,-0.0855532541230321,-0.018138883280754088,-0.16547069431617856
1772614963211274500,1.8002744140625,-0.07287672790139914,-0.014819967991113661,-0.1100381088970229
1772614963221342500,1.810342529296875,-0.04289572339653969,-0.006439093136787414,-0.017067819983139634
1772614963231409700,1.82040966796875,-0.005942834052443504,0.027682956695556638,0.020805618271976706
1772614963241477400,1.830477294921875,0.02114332579374313,0.041618543067574496,-0.005432619507983327
1772614963251544600,1.840544677734375,0.03896306012272834,0.028920974057912826,-0.03226977302916348
1772614963261612300,1.8506123046875,0.05896145366504788,0.009988310050964355,-0.08158376597017049
1772614963271680300,1.86068017578125,0.06601531769931315,0.024590835899114608,-0.09477441572640091
1772614963281747500,1.87074755859375,0.03364040379524231,-0.003134206372499466,-0.04490878025200218
1772614963291815400,1.8808154296875,0.05373509731888771,0.03464052074849605,-0.01944667794369161
1772614963301882600,1.890882568359375,0.03426584221720695,0.037867081579565996,-0.01046056720521301
1772614963311950300,1.900950439453125,0.015456804589927195,0.056312838852405546,0.0032918811522424218
1772614963322017500,1.911017578125,0.02390928337574005,0.06021043081283569,-0.002262501571886241
1772614963332085200,1.921085205078125,0.010166881488263606,0.023680735316872596,-0.04281049279849976
1772614963342153500,1.931153564453125,0.004706277994811534,-0.023208441630005835,-0.12651373514067382
1772614963352220400,1.941220458984375,-0.016100947712361813,-0.04033493299782276,-0.15109193075392394
1772614963362288400,1.951288330078125,-0.029426000970602034,-0.02441197220087051,-0.1343691248161718
1772614963372355600,1.96135546875,-0.0207002582013607,0.0031482348978519436,-0.1011890320090577
1772614963382423300,1.97142333984375,0.01768003359735012,0.04614040440618992,-0.04782751724291592
1772614963392490500,1.981490478515625,0.0718611211180687,0.07528817295730114,0.0370414444103837
1772614963402558500,1.991558349609375,0.13768413111567496,0.05786649803519248,0.08878525831419974
1772614963412626400,2.00162646484375,0.21282705038338898,0.02027647983133793,0.06444459778387099
1772614963422693400,2.011693359375,0.2602770760834217,-0.026171967610716818,0.021524726326763628
1772614963432761300,2.02176123046875,0.22583587729930876,-0.04646715214252472,-0.032176834048703314
1772614963442828500,2.03182861328125,0.15109949300587178,-0.07125438739657401,-0.05474723350349813
1772614963452896300,2.041896240234375,0.06253931215181946,-0.09051496818363666,-0.1442543763514608
1772614963462963500,2.05196337890625,-0.05162234294861555,-0.05303191748559475,-0.19084330997643992
1772614963473031400,2.062031494140625,-0.14292583116143942,-0.018408347871899603,-0.15880699864327907
1772614963483099400,2.072099365234375,-0.18095336399972436,0.007234042906761169,-0.08611897998070343
1772614963493166300,2.082166259765625,-0.20257921261340378,0.028092706540226935,-0.008206614265963435
1772614963503234300,2.092234375,-0.192783794786036,0.030690321817994116,0.004590433062799275
1772614963513301200,2.10230126953125,-0.15388357076644896,0.013958967247605323,-0.03916176103260368
1772614963523369500,2.112369384765625,-0.10555530092716216,0.005026303729414939,-0.06249583833627403
1772614963533436400,2.1224365234375,-0.043892333218455315,-0.0022515783190727233,-0.03750000183284283
1772614963543504400,2.13250439453125,0.002279196978360414,0.015764555364847183,-0.01906067430078983
1772614963553573000,2.142572998046875,0.05025719207525253,0.027062778970599173,-0.045832836294360454
1772614963563640000,2.15264013671875,0.08732464770972728,0.019928104785084725,-0.07049275537431239
1772614963573708300,2.162708251953125,0.07898410486578941,0.017077976050972936,-0.0828536763081327
1772614963583775200,2.172775146484375,0.05097089330255985,0.019516016852855683,-0.09384298009518534
1772614963593843200,2.18284326171875,0.0314152750916779,0.022198972326517102,-0.07900679162163286
1772614963603910100,2.19291015625,-0.010483107830584048,0.03237257581651211,-0.07672741198018193
1772614963613978000,2.20297802734375,-0.0420236167371273,0.047836686930060386,-0.07000055141057819
1772614963624046300,2.21304638671875,-0.02932531707510352,0.10016133292913436,-0.04830739144803956
1772614963634113300,2.22311328125,-0.008009557323902844,0.12405658777952193,0.022415939545445143
1772614963644181200,2.23318115234375,0.02325593403354287,0.12368600090146065,0.038976613724045456
1772614963654248200,2.243248291015625,0.06269903275817633,0.1263069970548153,0.002594966662954539
1772614963664316200,2.253316162109375,0.08728212374225258,0.10201718992888927,-0.034978374400734896
1772614963674383000,2.263383056640625,0.07356207981705665,0.07121405538618564,-0.08141480261143297
1772614963684451000,2.273451171875,0.06657090575546026,0.03191606422066688,-0.09017501390585675
1772614963694519300,2.283519287109375,0.06393149716258048,-0.014004559955000877,-0.07141505785100162
1772614963704586200,2.293586181640625,0.03402151206731796,-0.05432195729613304,-0.12241039147507399
1772614963714654200,2.303654296875,-0.008764613474905491,-0.06379530356228351,-0.10564557302650064
1772614963724721200,2.31372119140625,-0.021027590459585188,-0.02946808654665947,-0.04805708821509033
1772614963734789000,2.3237890625,-0.04192117927595973,-0.0028968904852867123,0.001505326529033482
1772614963744856000,2.33385595703125,-0.05969824350699782,0.027453824114799498,0.008462543522100895
1772614963754924300,2.34392431640625,-0.06346504869461059,0.059248892304301255,0.0440380983646959
1772614963764992300,2.3539921875,-0.02832300816476345,0.0700742377012968,0.08330068942327051
1772614963775059200,2.36405908203125,0.01911459644511342,0.0698912823498249,0.0033642157360911367
1772614963785127200,2.374127197265625,0.06057648764625191,0.02161620400249958,-0.10075727126197889
1772614963795194000,2.384194091796875,0.08992883885875344,-0.01085515601336956,-0.10938178214645013
1772614963805262300,2.394262451171875,0.09804214881807564,-0.036897359764575956,-0.07146150907492264
1772614963815329300,2.404329345703125,0.09764233584553003,-0.06695698246359824,-0.01814281053720042
1772614963825397200,2.414397216796875,0.0591533229753375,-0.0947872386753559,-0.05245932349571958
1772614963835465200,2.42446533203125,0.011466273649036884,-0.06557458819448947,-0.08746551748514175
1772614963845532200,2.4345322265625,-0.026151509344577786,-0.0068710548132658,-0.0470472718517296
1772614963855600000,2.44460009765625,-0.022071400424093005,0.02915770542323589,0.072298599219881
1772614963865667000,2.4546669921875,-0.028546880048513412,0.038138299736380575,0.06697882896922529
1772614963875735300,2.4647353515625,-0.027791093245148658,0.03728898943066597,-0.04653937712851911
1772614963885803300,2.47480322265625,-0.01271320497021079,0.04824585225284099,-0.08892289495291188
1772614963895870200,2.4848701171875,-0.009614800563454628,0.00805354259610176,-0.08544137298008427
1772614963905938200,2.494938232421875,0.020742343777418137,-0.026205285358428955,-0.07621984605053439
1772614963916005000,2.505005126953125,0.053918783322721715,-0.012836685219407082,-0.06659724577311427
1772614963926073300,2.5150732421875,0.07229030631557107,0.0159597856760025,0.004825757922325283
1772614963936140300,2.525140380859375,0.07424597042798996,0.026867548659443855,0.06963791037695483
1772614963946208300,2.535208251953125,0.060605859871208666,0.02064063696861267,0.0388371687207371
1772614963956276200,2.545276123046875,0.033548049336671826,0.05533318016529083,-0.009317753845639527
1772614963966343200,2.55534326171875,0.00919160671532154,0.09041209233105182,0.043887346516083926
1772614963976411100,2.5654111328125,-0.015250760623812674,0.10529928033947944,0.054705805514566594
1772614963986478300,2.575478271484375,-0.03428688500523567,0.05913549505770206,-0.11323716066665947
1772614963996546300,2.58554638671875,-0.02923836944401264,-0.0012163900524377821,-0.22127070654192937
1772614964006613200,2.59561328125,-0.007292348965257406,-0.027468437162041663,-0.16493947351630775
1772614964016681200,2.60568115234375,0.012963672599941491,-0.04765022444725037,-0.09890216318089515
1772614964026749200,2.615749267578125,0.016276012018322943,-0.0265910698056221,-0.09383172804880886
1772614964036816100,2.625816162109375,0.028476299030333756,0.0008902268379926681,-0.08056074306536465
1772614964046884400,2.63588427734375,0.030603228056430815,0.02734393399953842,-0.020613438434433192
1772614964056951300,2.645951416015625,0.02856441570520401,0.06207154850959778,-0.002686462604999542
1772614964067019300,2.656019287109375,0.04144815493673086,0.08107903131842613,0.00020586130302399394
1772614964077086200,2.666086181640625,0.06958981518521905,0.07893325146138667,-0.009680321814026683
1772614964087154200,2.676154296875,0.07823211745470762,0.06136076989173889,-0.01454418325703591
1772614964097222400,2.686222412109375,0.07674041759222745,0.03064823624193668,-0.050576907282602036
1772614964107289300,2.696289306640625,0.08359569031447171,0.006464812099933624,-0.03917905922727659
1772614964117357300,2.706357421875,0.062304188221693035,-0.020178280153870583,-0.0645040728861466
1772614964127424300,2.71642431640625,0.0241249719530344,-0.023861937102675437,-0.09056383056035265
1772614964137492200,2.7264921875,-0.021204554461687803,-0.007062777993083,-0.0516898369605653
1772614964147559200,2.73655908203125,-0.0605061988890171,0.012456745991110801,-0.01351520553547889
1772614964157627100,2.746627197265625,-0.09097951695546508,0.03274491626024246,-0.05591437758672982
1772614964167695400,2.7566953125,-0.09922375981807709,0.02100187149643898,-0.08714134529838338
1772614964177762300,2.76676220703125,-0.062018210887163874,-0.021620880177617072,-0.11603859142083674
1772614964187830300,2.776830322265625,-0.008908551990240812,-0.020285832181572913,-0.12556571370083838
1772614964197897200,2.786897216796875,0.02771934318318963,-0.005177110376954079,-0.04841488867681473
1772614964207965200,2.796965087890625,0.047049920466542244,0.01248597208559513,0.0414075854643248
1772614964218033400,2.807033447265625,0.0348082785308361,0.006050386080145836,0.07714066895619034
1772614964228100400,2.817100341796875,0.0031045418865978717,0.006249123522639274,0.033616420131456104
1772614964238168300,2.827168212890625,-0.01138166410550475,0.006439093136787414,-0.012698098732624202
1772614964248235300,2.8372353515625,-0.01787336421236396,-0.011351999619603157,-0.04485471197720617
1772614964258303200,2.84730322265625,-0.011559358759969472,-0.03599661153256893,-0.10463089782493189
1772614964268370200,2.8573701171875,0.023486089527606963,-0.034660979014635086,-0.12887871070634574
1772614964278438400,2.8674384765625,0.044878567776829005,-0.03338321416378021,-0.0591199138960801
1772614964288506400,2.87750634765625,0.06669920831024646,-0.05011807586550712,-0.04550574149815365
1772614964298573300,2.8875732421875,0.06221767898201942,-0.03629530221819877,-0.06977498076008633
1772614964308641300,2.897641357421875,0.022221184158325195,-0.018192659294605253,-0.05259840317284688
1772614964318708200,2.907708251953125,-0.0194182555668056,-0.013145312777161598,-0.04095047108028084
1772614964328776200,2.917776123046875,-0.04200958821177482,-0.000012274959683418274,-0.11451191157652064
1772614964338843100,2.927843017578125,-0.03999459512755275,0.02377425881922245,-0.13272678270293398
1772614964348911400,2.937911376953125,-0.010241700290143489,0.0659831689953804,-0.05553136961851269
1772614964358979300,2.947979248046875,0.007981061881780624,0.07218202363550663,0.010755842091049999
1772614964369046300,2.95804638671875,0.027131898684054613,0.03693827629685402,-0.04735164335947484
1772614964379114200,2.9681142578125,0.05589432117938995,0.02256780563890934,-0.09679171036556362
1772614964389181200,2.97818115234375,0.03095627927780151,0.01686053390800953,-0.05350291426451877
1772614964399249400,2.98824951171875,0.01105403958633542,0.025659341913461683,-0.054714682940766216
1772614964409316400,2.99831640625,-0.018122808928787707,0.017401801177859305,-0.11348276945818216
1772614964419384300,3.00838427734375,-0.039353813005983826,0.005650573107600212,-0.16068391669737175
1772614964429452300,3.018452392578125,-0.03571867137402296,-0.002611643803119659,-0.17209831402869893
1772614964439519200,3.028519287109375,-0.03950461965352296,0.022096096473932264,-0.12990224506780504
1772614964449587200,3.038587158203125,-0.04899667062014341,0.04036883526742458,-0.10276559714339673
1772614964459654400,3.048654296875,-0.023039368673413992,0.057523383685946464,-0.09176339734215289
1772614964469722400,3.058722412109375,-0.007628449051827192,0.06863222219944,-0.0666302895261906
1772614964479789300,3.068789306640625,0.020210574988275765,0.08184592403769493,-0.046851986741647124
1772614964489857300,3.078857177734375,0.057300826976448296,0.092569562625885,-0.05786299090385437
1772614964499925200,3.08892529296875,0.06543254937529563,0.0861257933139801,-0.011230291202384978
1772614964509992200,3.0989921875,0.07703267853707074,0.07887947544753551,0.003656915072351694
1772614964520060400,3.109060302734375,0.05064779882803559,0.06596037264168263,-0.014503504186775535
1772614964530127400,3.11912744140625,0.03499532553553581,0.027245149800181386,-0.02152839785488322
1772614964540195300,3.1291953125,0.004365793994069099,-0.013193828094005584,-0.09000908275442197
1772614964550262300,3.13926220703125,-0.03369067267775536,-0.05117021526694297,-0.13797418183712287
1772614964560329700,3.149329833984375,-0.044939211922883984,-0.0734293933480978,-0.15859233297929168
1772614964570398000,3.15939794921875,-0.05381693038344383,-0.09361059611141681,-0.1447842454444617
1772614964580465000,3.16946484375,-0.05893968022465706,-0.07659048772752285,-0.07431730036484077
1772614964590532900,3.179532958984375,-0.05013794960975647,-0.0462152232080698,-0.0054955834752880035
1772614964600599800,3.189599853515625,-0.05296045968458056,-0.025495091262459753,-0.0010962708041071891
1772614964610667800,3.199667724609375,-0.04311535749658942,-0.011191840621829032,0.010835227470193057
1772614964620734700,3.209734619140625,-0.02774360084161162,0.01913958475589752,0.029845724220015107
1772614964630803000,3.219802978515625,-0.02601151635199785,0.015709610307216643,0.01289243399463594
1772614964640871000,3.229870849609375,-0.01782324146032333,-0.003398410266637802,-0.0646512993371114
1772614964650937900,3.239937744140625,-0.017906828090548513,-0.024267595294117927,-0.11699947234224527
1772614964661005800,3.250005859375,-0.002882277438044548,-0.013131284251809119,-0.1503848053978756
1772614964671072800,3.26007275390625,0.009329553881287575,0.015385785180330276,-0.10409817918771877
1772614964681140700,3.270140625,0.004448357710987329,0.02989011135101318,-0.05935089137405157
1772614964691207700,3.280207763671875,0.0047016018196940415,0.05250760135054588,-0.031049455720279364
1772614964701276000,3.29027587890625,0.012783493727445602,0.0698866061747074,-0.04137835936984047
1772614964711343900,3.30034375,0.015904256096482276,0.06835282073616981,-0.04938291172506287
1772614964721410800,3.310410888671875,0.03509469425678253,0.061726096072793,-0.07340235921069979
1772614964731478800,3.320478759765625,0.05332417843043804,0.042025954824686046,-0.1220270181806758
1772614964741545700,3.330545654296875,0.07491232538223266,0.012767711636424064,-0.1844327670807019
1772614964751614000,3.340614013671875,0.08815876044631003,-0.012469020950794218,-0.2218095626589842
1772614964761682000,3.350681884765625,0.07298691027760505,-0.0056540802389383315,-0.21064707599580287
1772614964771748900,3.360748779296875,0.06214812087714672,0.018853753551840782,-0.1775403041532263
1772614964781816800,3.37081689453125,0.046072015345096584,0.01724865644276142,-0.14760639019310473
1772614964791883800,3.3808837890625,0.026935060937702655,0.039030280140042305,-0.14439340122966096
1772614964801951700,3.39095166015625,0.03682224870175123,0.06934767699241638,-0.05876951128952205
1772614964812019000,3.40101904296875,0.059846273675560946,0.09898878201842308,0.06905265783490613
1772614964822087000,3.4110869140625,0.06868775177896022,0.09162088359892367,0.09816893526921049
1772614964832154600,3.421154541015625,0.040193186439573765,0.06282675079107285,0.08020314353303984
1772614964842221800,3.431221923828125,0.00791851803958416,0.031796237233281135,-0.0012881035817787051
1772614964852289800,3.441289794921875,-0.05181961908638477,0.018548633125424385,-0.038880898264609276
1772614964862356700,3.451356689453125,-0.12544190465807914,0.016236264529824258,-0.0538747615179047
1772614964872425000,3.461425048828125,-0.16516747358590364,0.008528758892416954,-0.08306536456374451
1772614964882492000,3.471491943359375,-0.15924305197298524,0.009067103552818298,-0.04580554642863571
1772614964892560000,3.481559814453125,-0.13139642914831637,-0.0034761516779661175,-0.0024908121687360106
1772614964902627600,3.491627685546875,-0.08082651786208152,-0.02788637031316757,-0.020282946104742586
1772614964912694800,3.50169482421875,-0.03864508021473884,-0.04882628248929977,-0.07362531777899711
1772614964922762800,3.5117626953125,-0.018369477166235444,-0.05722001682519912,-0.04986559894178062
1772614964932830000,3.521829833984375,-0.024767069248855113,-0.051608022162318225,0.012791421305574476
1772614964942898000,3.53189794921875,-0.04562281027287245,-0.047504678496718404,-0.016977894943673164
1772614964952964900,3.54196484375,-0.05670446851849555,-0.0454787256270647,-0.05554501455137506
1772614964963032800,3.55203271484375,-0.06720248165726661,-0.061033437633514404,-0.06411052525760605
1772614964973100500,3.5621005859375,-0.07673895628750324,-0.05791442883014679,-0.10633328129602596
1772614964983167700,3.572167724609375,-0.06993599827438593,-0.054288055026531216,-0.10299779846407472
1772614964993235700,3.582235595703125,-0.05173837054371833,-0.029424831926822662,-0.07655521548474208
1772614965003303000,3.592302978515625,-0.027600831370055673,0.0015448913544416428,-0.06433790427269413
1772614965013371000,3.602370849609375,0.012189034965634345,0.0379237802028656,-0.04888510000444948
1772614965023438600,3.6124384765625,0.05428747050464153,0.07036416055858134,-0.061909489815682166
1772614965033505800,3.622505859375,0.09667363694384694,0.07064297749996185,-0.07177989084171131
1772614965043573800,3.63257373046875,0.12755509741976856,0.07893734311461448,-0.08881769927907734
1772614965053641000,3.642640869140625,0.12689590285867453,0.07156652208566665,-0.08300904953293502
1772614965063708700,3.652708740234375,0.10145400308817625,0.055357730084657664,-0.10054353717975317
1772614965073775900,3.66277587890625,0.08407032208889723,0.04611410092115402,-0.08283294404735789
1772614965083843600,3.672843505859375,0.043690819296985865,0.02380465395748615,-0.0963807732108049
1772614965093911600,3.68291162109375,0.016332126119732854,0.004704816690087319,-0.12225025074360892
1772614965103978800,3.692978759765625,-0.011525456490367651,-0.007165069323778152,-0.11714167555822058
1772614965114046700,3.703046630859375,-0.041358284696191544,-0.022657822009921072,-0.10220734220612794
1772614965124114000,3.713114013671875,-0.04500993907153606,-0.018630466189980505,-0.09524119298793375
1772614965134181600,3.723181640625,-0.06960749697238207,-0.0012122983992099762,-0.07922925699958577
1772614965144248800,3.733248779296875,-0.099309684535861,-0.0025707272708415984,-0.05123003742909059
1772614965154316500,3.743316650390625,-0.10654109709411859,-0.004657470417022705,-0.05455499886702746
1772614965164384800,3.753384765625,-0.09370923418030143,0.0008797054439783096,-0.05734346054177731
1772614965174451700,3.76345166015625,-0.06411445251405239,-0.0040630116552114485,-0.030577362962812184
1772614965184519700,3.773519775390625,-0.014636428117752074,-0.00036766426861286163,-0.04400275305667892
1772614965194587000,3.7835869140625,0.003083352968096733,0.008493687579035758,-0.020487711429223416
1772614965204654600,3.793654541015625,0.011539046624302864,0.01189385141134262,0.010807681876141577
1772614965214721800,3.8037216796875,0.019468670579791066,0.019102759876847265,0.02627566544720903
1772614965224789800,3.813789794921875,-0.0007423427999019623,0.0265431390106678,0.012817140268720686
1772614965234857700,3.823857666015625,-0.006803250274062156,0.022474866658449173,-0.011845116898790002
1772614965244924700,3.833924560546875,-0.028052959051728246,0.019133155015110967,-0.00733395961727947
1772614965254992600,3.84399267578125,-0.033606209264695645,0.01710486405789852,0.013680497366096823
1772614965265059600,3.8540595703125,-0.042512277036905285,0.03180734314918518,0.007666315110493451
1772614965275127600,3.86412744140625,-0.051002311354130504,0.01890168434679508,-0.038439511172659695
1772614965285194800,3.87419482421875,-0.024518647445738315,-0.001035188266634941,-0.0689748433583416
1772614965295262700,3.8842626953125,0.0019435352832078933,-0.00649286915063858,-0.05107590631330385
1772614965305330700,3.89433056640625,0.013686580047011374,-0.029742227312922476,-0.04500506196701899
1772614965315397600,3.904397705078125,0.028330606949329373,-0.027491233515739438,-0.07481566007472575
1772614965325465600,3.914465576171875,0.03064896689429879,-0.026418635848164555,-0.07179165434474125
1772614965335532500,3.924532470703125,0.011810264781117439,-0.01635024629831314,-0.030754874954186377
1772614965345600800,3.934600830078125,-0.009242460119724273,0.011415127983689308,-0.015928970412630587
1772614965355667700,3.944667724609375,-0.034353812761604784,0.04053308591842651,-0.03451095781838521
1772614965365735700,3.954735595703125,-0.037681788140535355,0.048532267978787416,-0.037256457134243096
1772614965375803600,3.9648037109375,-0.03459229769259691,0.042238136270642275,-0.07640680172368884
1772614965385870600,3.97487060546875,-0.021648791097849607,0.04155190757215023,-0.1136241872228682
1772614965395938800,3.984938720703125,-0.0035588615253567693,0.03852349966168404,-0.09826571017457171
1772614965406005800,3.995005859375,-0.007766542348265648,0.04208557605743408,-0.07393270322773605
1772614965416073700,4.00507373046875,0.0028426760800182816,0.06188976220190524,-0.05982386091435328
1772614965426141700,4.0151416015625,0.01851370794251561,0.05130056364834308,-0.023557766524329782
1772614965436208600,4.025208740234375,0.03458513729944825,0.04271978230774402,-0.028408731953147796
1772614965446276600,4.035276611328125,0.0458797076433897,0.016448445975780487,-0.04124267722619697
1772614965456343600,4.045343505859375,0.05475041184127331,0.014627660289406775,-0.037965135126560925
1772614965466411800,4.055411865234375,0.0540448939204216,0.024555764585733414,-0.05429523368598893
1772614965476478700,4.065478759765625,0.05221534040570259,0.035626024654507635,-0.06888957622768357
1772614965486546700,4.075546630859375,0.04234992608204484,0.037439796078205106,-0.07084169667614623
1772614965496614700,4.08561474609375,0.02436287236213684,0.044531800165772434,-0.07678228397257626
1772614965506681600,4.095681640625,-0.0055085342884063715,0.04538870925605297,-0.06528788020759821
1772614965516749800,4.105749755859375,-0.015368103393167257,0.015089432582259176,-0.11479257341511546
1772614965526816800,4.115816650390625,-0.01253565644621849,-0.003395487657189369,-0.11619686898877843
1772614965536884700,4.125884765625,-0.009364625194668769,0.01618599564731121,-0.047307091831695285
1772614965546951700,4.13595166015625,0.007054594686627388,0.03711830903887749,0.07555327190058306
1772614965557020400,4.1460205078125,0.01773585543781519,0.013574936366081237,0.11502945091091096
1772614965567088400,4.15608837890625,0.014754647669941187,0.007373743638396262,0.061347581616602836
1772614965577155300,4.1661552734375,-0.00672638564556837,-0.00943126069009304,-0.011719901350233703
1772614965587223300,4.176223388671875,-0.033359248766303064,-0.03091360917985439,-0.08975567424893378
1772614965597290200,4.186290283203125,-0.040880145790427924,-0.05140811567604541,-0.17043699322035535
1772614965607358500,4.1963583984375,-0.03183540019989013,-0.024103929165005682,-0.1337218216222711
1772614965617425400,4.20642529296875,-0.0024938626423478124,0.005796119058132172,-0.02438610710725188
1772614965627493400,4.216493408203125,0.029960400108247992,-0.0008043021202087402,0.008650193314999341
1772614965637561300,4.226561279296875,0.06309475407749414,-0.027923195192217826,0.001701872014440596
1772614965647628300,4.236628173828125,0.07529431043714284,-0.035819501399993896,-0.022281627374980597
1772614965657696500,4.246696533203125,0.05801145946383476,-0.0328606515944004,0.02436787733081728
1772614965667763500,4.256763427734375,0.03861950738206506,-0.01956570121347904,0.0281498435549438
1772614965677831400,4.26683154296875,0.00817526927962899,-0.016946458625793456,-0.00931804610658437
1772614965687899400,4.2768994140625,-0.00006882745251059532,-0.01681903285384178,-0.031369737183209505
1772614965697966300,4.28696630859375,0.009300912308692932,-0.012050503277778625,-0.044564953516703094
1772614965708034300,4.297034423828125,0.01772358047813177,-0.03312602453231811,-0.07262554788561537
1772614965718101200,4.307101318359375,0.009399696508049964,-0.03317746245861053,-0.05224971759933978
1772614965728169500,4.31716943359375,0.00924304464161396,-0.021197101807594296,-0.01087999819368124
1772614965738236400,4.327236328125,-0.01155658228099346,-0.033873043507337566,-0.05087223696736619
1772614965748304400,4.337304443359375,-0.03198313810750842,-0.026713234880566594,-0.10299836471965536
1772614965758372400,4.347372314453125,-0.038439913031458856,0.010161913052201271,-0.09757493316512554
1772614965768439300,4.357439208984375,-0.045182373028993604,0.03663432491421699,-0.05123321576686576
1772614965778507500,4.367507568359375,-0.013206103053689001,0.07717500961720943,-0.0610962006714195
1772614965788574500,4.377574462890625,0.02729775677025318,0.09778642049133777,-0.029867314997315406
1772614965798642400,4.387642333984375,0.06776186910569668,0.09238543823063373,-0.003323774127848446
1772614965808709400,4.39770947265625,0.07539338689744472,0.08251870873272418,-0.039513734541740266
1772614965818777300,4.40777734375,0.05300619852244853,0.059660395714640616,-0.08971841097846626
1772614965828845300,4.41784521484375,0.047371992027759546,0.04822071781158447,-0.06744734153011814
1772614965838912500,4.42791259765625,0.030815994024276733,0.037842531660199165,-0.016152385638654232
1772614965848980500,4.43798046875,0.017839608073234557,0.022239304336905477,-0.03916338673410937
1772614965859047400,4.44804736328125,-0.0007584171518683433,0.03242284469902515,-0.0920557678848505
1772614965869115400,4.458115478515625,-0.012256108852475881,0.043967152020335194,-0.08941307135634123
1772614965879182300,4.468182373046875,-0.0274875802539289,0.04196107289493084,-0.08138692822381853
1772614965889250300,4.478250244140625,-0.052909167888760565,0.016233926442265508,-0.08651945054037496
1772614965899318500,4.488318603515625,-0.04225961745008826,0.009156535401940346,-0.10663745187437161
1772614965909385500,4.498385498046875,-0.019683190113306045,-0.001619125634431839,-0.06793262256272137
1772614965919453400,4.508453369140625,0.0013324176475405691,0.016207622957229613,-0.009308821620512752
1772614965929520400,4.518520263671875,0.041945290803909296,0.03539923016130924,0.030168891759775576
1772614965939588400,4.52858837890625,0.07040624613463878,0.02996902180612087,0.0640565117817372
1772614965949656600,4.538656494140625,0.10493979937732219,0.023793548041582107,0.047028603683877734
1772614965959723500,4.5487236328125,0.10086714311093091,-0.012377835536003112,-0.04214905148139223
1772614965969791500,4.55879150390625,0.09263561359941959,-0.020053192469477652,-0.08952577448319643
1772614965979858400,4.5688583984375,0.058032502251863474,-0.025099369943141936,-0.059710609798226504
1772614965989926400,4.578926513671875,0.0009305588483810425,-0.03785305305421352,-0.06654155179681256
1772614965999993300,4.588993408203125,-0.02476326985657215,-0.03282382671535015,-0.13806224371306597
1772614966010061300,4.599061279296875,-0.036370559411495924,-0.03563362343907356,-0.09110228481860831
1772614966020129500,4.609129638671875,-0.044755672049522396,-0.031098318096995353,-0.02464411872262135
1772614966030196500,4.619196533203125,-0.036522681233286856,-0.017177344772219657,-0.013144910918362437
1772614966040264400,4.629264404296875,-0.008243950601667166,-0.013577274453639984,-0.04802669307682663
1772614966050331400,4.639331298828125,0.003669190032035112,0.0033995793104171753,-0.005956953909341246
1772614966060399400,4.6493994140625,0.011718640974909067,0.020422025781869888,0.02560483524724841
1772614966070466300,4.65946630859375,0.01882861911058426,0.024180501532554625,0.00011602759510278701
1772614966080534500,4.669534423828125,0.02439209845662117,0.03191080352365971,-0.09553836756991221
1772614966090602500,4.6796025390625,0.04457826965600252,0.011053308933973311,-0.16741461319187656
1772614966100669400,4.68966943359375,0.05459492901861667,-0.0007318214058876037,-0.14110374856712296
1772614966110737400,4.6997373046875,0.05616290898770093,0.009983049353957175,-0.08881380855524912
1772614966120804400,4.709804443359375,0.06694529202580451,0.040405660146474835,-0.02728951866487041
1772614966130872600,4.71987255859375,0.06650748513042927,0.06463409247398376,0.00005392214432358741
1772614966140939500,4.729939453125,0.054745735666155815,0.07132453002333641,-0.0013343721426092088
1772614966151007500,4.740007568359375,0.046558337557315824,0.05446691872477531,-0.023593824218399822
1772614966161075500,4.750075439453125,0.010161474660784006,0.058820437759160994,-0.02528490084419027
1772614966171142400,4.760142333984375,-0.025119682078808544,0.06304828458726405,-0.04888358390079811
1772614966181210400,4.77021044921875,-0.04719312832951546,0.041542555221915245,-0.14379375483607873
1772614966191277300,4.78027734375,-0.05550093794763088,0.02538987732231617,-0.17670703166685997
1772614966201345500,4.790345458984375,-0.03474485790580511,0.026877485531568525,-0.08069194996329024
1772614966211413500,4.80041357421875,0.017750468485057354,0.04588321477472782,-0.006379563235584646
1772614966221480400,4.81048046875,0.0582905686661601,0.04833119244873523,-0.022000563677586613
1772614966231548400,4.82054833984375,0.07169234042242169,0.03707037824392319,-0.060125455943122505
1772614966241615400,4.830615478515625,0.06014686405733227,0.03523673307597637,-0.05322769578602165
1772614966251683600,4.84068359375,0.045588323481380935,0.04602700715959072,-0.010256934391893445
1772614966261750500,4.85075048828125,0.01387260413840413,0.0618961919426918,-0.0036077239020727574
1772614966271818500,4.860818603515625,-0.0030744390092790124,0.05705401260852813,-0.007173069967143237
1772614966281886500,4.870886474609375,-0.0030604104839265346,0.030785598886013028,-0.03100466673048213
1772614966291953400,4.880953369140625,0.024735505066812036,0.010280570995807647,-0.040041174215637146
1772614966302021400,4.891021484375,0.03149140906780958,-0.030130934369564055,-0.016022658311761914
1772614966312088600,4.901088623046875,0.01964125066772103,-0.07931202164590358,-0.026181283428333698
1772614966322156500,4.911156494140625,-0.0479211503431201,-0.10866378833651542,-0.05482767832856625
1772614966332223500,4.921223388671875,-0.11438070467859505,-0.12139876674711704,-0.0738392162580043
1772614966342291500,4.93129150390625,-0.17377777328193186,-0.10700783782303333,-0.09213518979661166
1772614966352359200,4.941359130859375,-0.20984087417945266,-0.05168459452986717,-0.0838204389810562
1772614966362426400,4.95142626953125,-0.18020371467620133,0.016476503026485442,-0.041052598014194516
1772614966372494300,4.961494384765625,-0.12162424606606363,0.06916121450960636,0.020480295307748017
1772614966382561500,4.9715615234375,-0.0199029703438282,0.09167875126600265,0.046244303172081704
1772614966392629500,4.98162939453125,0.06909574805796145,0.07343523856699466,0.04932219451377168
1772614966402696400,4.991696533203125,0.13680690988972782,0.015849895560741425,-0.05305244881696999
1772614966412764400,5.001764404296875,0.17788579312264918,-0.0379933383077383,-0.14370298954639582
1772614966422832400,5.011832275390625,0.16493395709097383,-0.05766249989569187,-0.11266389082334935
1772614966432899600,5.021899658203125,0.14031623318493366,-0.04821662615835667,-0.08685536796385422
1772614966442967300,5.03196728515625,0.1246416941910982,-0.016556582525372503,-0.06449358802475035
1772614966453034500,5.042034423828125,0.09539806405007839,0.01181844808757305,-0.03355773048046976
1772614966463102500,5.0521025390625,0.040571664363145826,0.03859948750734329,0.0031315029587596654
1772614966473170200,5.062170166015625,0.008068740165233611,0.05557575674951076,-0.031101240706443784
1772614966483237400,5.0722373046875,-0.055634793460369106,0.05551087481975555,-0.033603560649883
1772614966493305300,5.082305419921875,-0.08314414715468883,0.030086510705947873,-0.042961007185094054
1772614966503372500,5.09237255859375,-0.1196744271725416,0.014984218642115592,-0.08874419565144925
1772614966513440300,5.102440185546875,-0.13451719151735306,0.007371405550837516,-0.147203764208965
1772614966523507500,5.112507568359375,-0.09639628130719065,0.02675707402229309,-0.09817189441127702
1772614966533575400,5.122575439453125,-0.0453524688988924,0.06708499275743961,-0.03794847625270486
1772614966543643400,5.132643310546875,-0.01448328338265419,0.09637421560585498,-0.008309965042583644
1772614966553710000,5.1427099609375,0.034076018733531235,0.11124036082625388,0.05605133837200701
1772614966563778000,5.152778076171875,0.062418900642544024,0.10290858581066131,0.04960029906909912
1772614966573845000,5.162844970703125,0.07759075081124901,0.07427519652247429,-0.014546886670775711
1772614966583913000,5.172912841796875,0.07732435496002435,0.03169862207770347,-0.08280094147389754
1772614966593980200,5.182980224609375,0.06899930194616317,-0.01184767418205738,-0.07110962689733133
1772614966604048100,5.193048095703125,0.04007745110541582,-0.033061142602562904,-0.05337108631208539
1772614966614115800,5.20311572265625,-0.008976210398972034,-0.02750467751920223,-0.04725346194831654
1772614966624183000,5.21318310546875,-0.03048749272227287,-0.028166356298327443,-0.07100015690717845
1772614966634250800,5.223250732421875,-0.05260609328895807,-0.040973815423250196,-0.10683392429454251
1772614966644318000,5.23331787109375,-0.07151683772504329,-0.013379706054925918,-0.11215117379454895
1772614966654386000,5.243385986328125,-0.05370587122440338,0.00310439575612545,-0.09793786645969375
1772614966664454000,5.253453857421875,-0.008691694369167089,-0.011538462102413176,-0.09477196804098785
1772614966674521000,5.26352099609375,0.012286796251684426,-0.011763503029942512,-0.07135302546545863
1772614966684588800,5.2735888671875,0.02744242593795061,0.009031447717547415,-0.02777640713267028
1772614966694656000,5.283656005859375,0.05425020723417401,0.00886135184764862,0.014573592014610767
1772614966704724000,5.293723876953125,0.055430941451340913,0.022076807251572607,0.018541070873476565
1772614966714791200,5.303791259765625,0.06078852296173572,0.0373357511818409,0.019531177889369426
1772614966724859000,5.31385888671875,0.06057941025570034,0.022470775005221367,0.022067527966573835
1772614966734926800,5.3239267578125,0.05341726354137063,0.025507366222143172,-0.03660442296629771
1772614966744994000,5.333994140625,0.04930632109120488,0.01467325299680233,-0.11124869026318192
1772614966755061800,5.344061767578125,0.03724076637476682,-0.019332476979494095,-0.1779965234881267
1772614966765129000,5.35412890625,0.024466332736611366,-0.04106792344748974,-0.19208269731197505
1772614966775197000,5.364197021484375,0.015295768809318542,-0.03599953414201736,-0.12942368603693322
1772614966785264000,5.37426416015625,0.00046060324907302855,-0.026966917380690573,-0.040516317446716126
1772614966795331800,5.384331787109375,-0.009839841490983962,-0.016474164938926696,-0.007273516400624066
1772614966805399800,5.39439990234375,-0.0019736381605267523,-0.012801029384136199,-0.017306323180440814
1772614966815467000,5.404467041015625,-0.011024375100433826,0.009328969359397888,-0.02811758525315672
1772614966825535000,5.414534912109375,-0.008458616265654563,0.03843874398767948,-0.015024989043921232
1772614966835602000,5.424601806640625,-0.001621171461045742,0.07490706468522548,-0.0027645876088179646
1772614966845670000,5.434669921875,0.0013619360029697416,0.057467854106426235,-0.023009083133004603
1772614966855737900,5.44473779296875,0.014371055179834365,0.020310382100939748,-0.08511760265212505
1772614966865804800,5.4548046875,0.01106733745932579,-0.011744213807582855,-0.19029364020442588
1772614966875872800,5.464872802734375,0.009962591087818145,-0.030204584127664563,-0.22266599682522936
1772614966885940000,5.47493994140625,0.01460574071854353,-0.01082768348455429,-0.10697064761780202
1772614966896008000,5.485008056640625,0.0047290743485093115,0.034195115068554875,0.009510646069236099
1772614966906075000,5.495074951171875,0.01311637894362211,0.07288578799068927,0.03885927095469087
1772614966916142800,5.505142822265625,0.017220014870166778,0.054417234364151953,0.010274342184420674
1772614966926210800,5.5152109375,-0.0011275427252054214,0.029737551137804984,-0.06598205475052818
1772614966936277800,5.52527783203125,-0.009016104017943144,0.03247778975665569,-0.0666056482752785
1772614966946346000,5.535345947265625,-0.0056077568791806694,0.03150806794166565,-0.015331260247807949
1772614966956413000,5.545412841796875,-0.011593699420988559,0.018856676161289214,-0.043901119313109666
1772614966966481000,5.55548095703125,-0.006939882265776395,0.015205167916417121,-0.10583959776125848
1772614966976547800,5.5655478515625,-0.0004522738121449947,0.008689502412080764,-0.10745306083988397
1772614966986615800,5.57561572265625,0.010004092141985893,0.000647065731883049,-0.10816615927899256
1772614966996684000,5.58568408203125,0.023403818071633577,0.014084639453887939,-0.08574433798203245
1772614967006751000,5.5957509765625,0.04961728673651814,0.019797171881794928,-0.03191670354148373
1772614967016819000,5.60581884765625,0.053775429329276085,0.041917818275094026,-0.012573924363683908
1772614967026886000,5.615885986328125,0.04104483483284711,0.06695230628848076,0.018086605104245243
1772614967036953900,5.625953857421875,0.029357904170453548,0.0940244376093149,0.09712543583195656
1772614967047021800,5.636021728515625,0.03314677505940199,0.07906593793034553,0.1491626979907043
1772614967057088800,5.6460888671875,0.030115736800432204,0.0016407529443502424,0.07548354939892887
1772614967067157000,5.656156982421875,-0.001379179398715496,-0.057634442844986915,-0.055116249478980896
1772614967077224000,5.666223876953125,-0.049410073726624246,-0.09385551078319548,-0.13335585612040013
1772614967087292000,5.6762919921875,-0.09656418522000312,-0.09578267945349216,-0.14326622383063659
1772614967097358800,5.68635888671875,-0.1307154611468315,-0.060360068416595455,-0.18051296328846364
1772614967107426800,5.6964267578125,-0.15055442634373903,-0.03281505888700485,-0.18590515945451333
1772614967117495000,5.7064951171875,-0.13111322829276323,0.0029880759000778198,-0.10042725385632366
1772614967127562000,5.71656201171875,-0.07917275930568575,0.027144027513265608,-0.031389994519948956
1772614967137630000,5.7266298828125,-0.013257979371398687,0.03337619990110397,-0.014288801990170031
1772614967147697000,5.73669677734375,0.03933087052181363,0.020771569871902464,-0.002437017888575792
1772614967157766000,5.746765869140625,0.07248597501814365,0.021119944918155668,-0.014847951976582407
1772614967167832800,5.756832763671875,0.06481354069411754,0.01963993549346924,-0.035328977936692534
1772614967177901000,5.766901123046875,0.04503039733767509,0.010081833553314209,-0.04365454240720719
1772614967187969000,5.776968994140625,0.013653846821188927,0.019774375528097153,-0.02367057924903929
1772614967198036000,5.787035888671875,-0.01811608692705631,0.02503156540393829,-0.06074998104963451
1772614967208104000,5.79710400390625,-0.034355274066329,0.023508301359415052,-0.12330054524783045
1772614967218171000,5.8071708984375,-0.01882102032601833,0.011411620852351189,-0.11268495187768712
1772614967228239000,5.817239013671875,0.005928805527091026,0.020699673679471016,-0.03964063059072941
1772614967238306000,5.82730615234375,0.012845160786807537,0.02405482932627201,-0.02820438675377518
1772614967248374000,5.8373740234375,0.0005257774397730827,0.032682372418045995,-0.04687445430178195
1772614967258442000,5.84744189453125,-0.02171995663791895,0.045105216139554975,-0.06566128009725361
1772614967268509000,5.857509033203125,-0.06626417789384723,0.07263385905623436,-0.0454341558329761
1772614967278577000,5.867576904296875,-0.07101502568274735,0.09507190083563327,-0.03703183633182198
1772614967288644000,5.87764404296875,-0.054657472860813135,0.09327040437161922,-0.017466281248815357
1772614967298712000,5.887712158203125,-0.009690642278641462,0.06624854193329811,-0.0317814963218756
1772614967308779000,5.897779052734375,0.03876724528968334,0.04496726897358894,-0.10656593927443027
1772614967318847000,5.907846923828125,0.06169336284697056,0.026100655940175056,-0.11659881911948322
1772614967328915000,5.9179150390625,0.05675239931344986,0.006283025792241096,-0.044323600775189695
1772614967338982000,5.92798193359375,0.04602393841966986,0.009894786548614502,0.004727211184985936
1772614967349050000,5.938050048828125,0.012689970225095748,0.010306874480843543,0.0046110191931016745
1772614967359117000,5.948116943359375,-0.015816577813029288,-0.015806640940904615,-0.01398459487920627
1772614967369185000,5.95818505859375,-0.032359131813049315,-0.033920974302291865,-0.06134515219749882
1772614967379253000,5.9682529296875,-0.04443418501019478,-0.04513327319025993,-0.1233711627986282
1772614967389320000,5.97831982421875,-0.034228871207684274,-0.03840601076185703,-0.12776899589877574
1772614967399388200,5.98838818359375,0.010321049136668443,-0.02392798807621002,-0.1086565000792034
1772614967409455000,5.998455078125,0.03909340850412845,-0.039030280140042305,-0.10752006166148931
1772614967419523000,6.008523193359375,0.054163697994500395,-0.0440063149869442,-0.07560171415219083
1772614967429590000,6.018590087890625,0.04671338198855519,-0.04398351863324642,-0.06716943790419026
1772614967439658000,6.028657958984375,0.02585062670186162,-0.028828619599342343,-0.07976009420696646
1772614967449726000,6.038725830078125,0.013432459155470132,-0.016792729368805884,-0.04903225339017808
1772614967459793000,6.04879296875,-0.0070960957407951355,-0.0038180969834327697,-0.03357994231227785
1772614967469861000,6.058861083984375,-0.009185761496424675,0.009932780471444129,-0.022309099903795867
1772614967479928000,6.068927978515625,0.01493687236905098,0.009841010534763335,-0.038233193211909385
1772614967489996000,6.07899609375,0.03788169462680816,0.010603227078914642,-0.055810241358820345
1772614967500063000,6.08906298828125,0.031470658540725706,0.007551438292860984,-0.11683028978779911
1772614967510131000,6.099130859375,0.030293431454896925,0.011938275074958801,-0.10782702698512002
1772614967520199200,6.10919921875,0.006854103678464889,0.0015039748221635817,-0.06280912380283699
1772614967530266000,6.11926611328125,-0.0009556932896375655,0.009310264658927916,-0.06447996135819703
1772614967540334000,6.129333984375,0.002032528740912676,0.014866729742288589,-0.045760958368238056
1772614967550401000,6.139401123046875,0.007341010412573814,0.013411270236968994,-0.025796887220628558
1772614967560468700,6.14946875,0.016775339842587708,0.014405541971325873,-0.02858887429302558
1772614967570537000,6.159536865234375,0.03197042475640774,0.04179799128770828,-0.030012002431321887
1772614967580604000,6.16960400390625,0.028100597585737703,0.04939268420040607,-0.007510960152000188
1772614967590672000,6.179671875,0.024412848983705042,0.050073067680001256,0.002284384610131383
1772614967600738800,6.18973876953125,0.01395955176949501,0.03725508716106415,-0.07007034697746857
1772614967610806800,6.199806884765625,0.007122399225831032,0.01585164912641048,-0.11431350292759015
1772614967620873700,6.209873779296875,-0.011554536454379557,-0.003799392282962799,-0.14665279752900823
1772614967630942000,6.21994189453125,-0.022341011145710944,-0.010884966629743576,-0.15329778850143774
1772614967641010000,6.230010009765625,-0.012462591210007666,0.002740238618850708,-0.1105616030481644
1772614967651076900,6.240076904296875,-0.0101040453851223,0.037217677760124204,-0.03547651491491124
1772614967661144800,6.250144775390625,0.005770400094985962,0.04508943404853344,-0.018278017756808547
1772614967671211800,6.260211669921875,0.02194558208733797,0.03863514334261417,-0.00562558479681611
1772614967681279700,6.27027978515625,0.04014905503690243,0.05413374124765396,0.0068681870027445255
1772614967691347700,6.28034765625,0.06464402934610844,0.048587213036417956,0.011032558406889438
1772614967701415000,6.290414794921875,0.06123334411978721,0.046696284723281856,-0.03284329860080033
1772614967711483000,6.30048291015625,0.0522539188504219,0.030873277169466015,-0.03974774422701448
1772614967721549800,6.3105498046875,0.03061959466934204,0.0016787468671798705,-0.07262087171049789
1772614967731617800,6.32061767578125,0.0033804362185299395,-0.017153963896632193,-0.12271573109719902
1772614967741684700,6.330684814453125,-0.006707388684153557,-0.014034370571374893,-0.14467252869829533
1772614967751753000,6.3407529296875,-0.003135375416278839,0.0010322656571865082,-0.07473231090651825
1772614967761820700,6.350820556640625,0.003993745811283588,0.02235211706161499,-0.008864694582205266
1772614967771887900,6.360887939453125,0.02238046637326479,0.02074526638686657,0.030101361215207723
1772614967781955800,6.370955810546875,0.02691971723809838,0.01005085389316082,0.03502292592851445
1772614967792022800,6.381022705078125,-0.003243950357288122,-0.013024901267886161,-0.018924992157146332
1772614967802090800,6.3910908203125,-0.019188100072741507,-0.02981879968047142,-0.07120061138272285
1772614967812158700,6.40115869140625,-0.03595379530414939,-0.0221381820499897,-0.08383702478967607
1772614967822226000,6.411225830078125,-0.05792714218124747,0.00658697717487812,-0.07315676868548616
1772614967832293600,6.421293701171875,-0.029045477220416067,0.04079787433445453,-0.07825049336161465
1772614967842360800,6.43136083984375,0.006944120049476623,0.04165069177150726,-0.05510912561845034
1772614967852428800,6.4414287109375,0.035437224084138866,0.02911854245662689,-0.00593423062087968
1772614967862495700,6.451495849609375,0.05983838263005018,-0.008912205252051353,-0.024109208128321916
1772614967872563700,6.461563720703125,0.03566664892584085,-0.04149696251451969,-0.060769781728647644
1772614967882631700,6.471631591796875,0.011897358542680739,-0.06228957517445087,-0.06376280779847875
1772614967892699000,6.481698974609375,-0.00532908606827259,-0.04473170665204525,-0.013969506907928734
1772614967902766600,6.4917666015625,-0.030437808361649513,-0.03283142549991608,0.02202639223858714
1772614967912833800,6.501833740234375,-0.024801848301291465,-0.026928923457860944,-0.0011604768804274498
1772614967922901800,6.51190185546875,-0.02069032132923603,0.0016489362508058548,-0.04023676985297352
1772614967932969000,6.521968994140625,-0.01676759492754936,0.010671616140007972,-0.04442801099773496
1772614967943036700,6.53203662109375,-0.017947744622826577,0.03080781071782112,-0.015750070181768386
1772614967953104600,6.542104736328125,-0.039974282991886136,0.03195230457782745,-0.015189075298141686
1772614967963171800,6.552171875,-0.05041267489790916,0.01800502776801586,-0.057370786940120155
1772614967973239600,6.562239501953125,-0.061976855963468545,-0.003680734339356422,-0.10017631130255758
1772614967983306800,6.572306640625,-0.06495265690386295,-0.01672550935149193,-0.1577605035313405
1772614967993374700,6.582374755859375,-0.04859247373342514,0.03159633074700832,-0.11298145060623065
1772614968003442700,6.592442626953125,-0.022868249890208244,0.08701368206441402,-0.000702065588440746
1772614968013509600,6.602509521484375,0.0023921558335423467,0.11813012033998965,0.031855876732338216
1772614968023577600,6.61257763671875,0.05309285389259457,0.12237258021533488,0.049444761447515334
1772614968033644800,6.622644775390625,0.0790130386993289,0.1226549042880535,0.029144590213336048
1772614968043712800,6.632712646484375,0.09321662835776805,0.1117103164255619,0.0013286913204938171
1772614968053780000,6.642780029296875,0.09874445186853409,0.06434767674803733,-0.06496635663565248
1772614968063847700,6.65284765625,0.08014087368547916,-0.009041969111561774,-0.15202077256925403
1772614968073915600,6.66291552734375,0.045700551684200764,-0.05522270552814006,-0.20115957334013654
1772614968083982600,6.672982666015625,0.02905015339553356,-0.08415537002384663,-0.15361399657744915
1772614968094050600,6.683050537109375,-0.013024901267886161,-0.08354571369290352,-0.09898991452958435
1772614968104117800,6.69311767578125,-0.05325228223800659,-0.04196107289493084,-0.08029379922486841
1772614968114185700,6.703185791015625,-0.0746492905318737,0.011626724907755851,-0.031483499755989755
1772614968124253700,6.713253662109375,-0.05644128753766417,0.057145198023319244,0.021241963862627743
1772614968134320600,6.723320556640625,-0.020480331840366125,0.07851648735404014,0.04607168655153364
1772614968144388600,6.733388671875,0.017974778760224578,0.06029752457439899,0.017427118282206354
1772614968154455600,6.74345556640625,0.06317395679354668,0.026227497190237044,-0.03233905713940039
1772614968164523800,6.753523681640625,0.058267041660100216,-0.020264789393544196,-0.08884816748257726
1772614968174590700,6.7635908203125,0.03804594527781009,-0.02601063956916332,-0.11924832898126915
1772614968184658700,6.77365869140625,0.037876580060273404,-0.009689619365334511,-0.08414990839743987
1772614968194726700,6.7837265625,0.024509733486920593,0.0013607669591903686,-0.06369352368824184
1772614968204793600,6.793793701171875,0.007407645907998085,0.014990648382902145,-0.02889300833875313
1772614968214861800,6.80386181640625,0.01774038548246026,0.01822422347664833,0.0033278657810762525
1772614968224928800,6.8139287109375,0.01966755415275693,0.01776420474946499,-0.04132871154183522
1772614968234996700,6.823996826171875,0.01868482672572136,-0.004875497081875801,-0.07793768281908706
1772614968245063700,6.834063720703125,0.012912234673649072,-0.011917232286930084,-0.07368285665251315
1772614968255131600,6.844131591796875,-0.00994797804057598,-0.0011246201157569884,-0.0746870652589947
1772614968265199600,6.85419970703125,-0.03176043526753783,0.002886369091272354,-0.07901212538387625
1772614968275266600,6.8642666015625,-0.0370393985837698,0.027517537000775336,-0.06640544952806085
1772614968285334800,6.874334716796875,-0.02164484557509422,0.023780104038119313,-0.08993559739310295
1772614968295401700,6.884401611328125,0.01053834514915943,0.023254618859291077,-0.07190296923210844
1772614968305469700,6.8944697265625,0.03619958675876259,0.03312836261987686,-0.04488839505109936
1772614968315537700,6.90453759765625,0.07274038817062974,0.0424637617200613,-0.042740569367446
1772614968325604600,6.9146044921875,0.08706921164393425,0.028929741886258124,-0.05873190095918253
1772614968335672800,6.9246728515625,0.08269318851679563,0.026413375151157378,-0.0499892801203765
1772614968345739800,6.93473974609375,0.06159370186477899,0.03164893771708011,-0.03178588023604825
1772614968355807700,6.944807861328125,0.013113164073228835,0.03753215053677559,-0.011119871364161371
1772614968365874700,6.954874755859375,-0.025775077247619627,0.04624678739011288,-0.033603414519410575
1772614968375942700,6.964942626953125,-0.05263210451304912,0.0266477684289217,-0.08690375541653483
1772614968386010600,6.9750107421875,-0.041589901494979854,0.03246083862185478,-0.08110732583114877
1772614968396077800,6.985077880859375,-0.04414893832802772,0.020040332987904547,-0.0716394594577141
1772614968406145800,6.995145751953125,-0.019003098894655703,0.025824761608242985,-0.07598145245108753
1772614968416212700,7.005212646484375,0.01892623426616192,0.018922142612934113,-0.084328790361993
1772614968426280700,7.01528076171875,0.027552900575101374,-0.010276479342579841,-0.07047616956569254
1772614968436347600,7.02534765625,0.05011106160283088,-0.018103811967372894,-0.08970573415998369
1772614968446415600,7.03541552734375,0.039057168146967886,-0.016994389420747755,-0.07753622587872669
1772614968456483800,7.04548388671875,0.008355155891180037,-0.010407412245869637,-0.06320097266463562
1772614968466550800,7.05555078125,-0.02488061262592673,0.03226911544203758,-0.043529381657578047
1772614968476618800,7.06561865234375,-0.04467953807339072,0.06952069547176361,0.00580751723498106
1772614968486685700,7.075685791015625,-0.04454612095206976,0.09773439804315566,0.03210071833888069
1772614968496753700,7.085753662109375,-0.028326953687518832,0.12131050394177437,0.026662545872945337
1772614968506822000,7.09582177734375,0.04335720342844725,0.09997311688065529,-0.012824556390196085
1772614968516888800,7.105888916015625,0.1119061312586069,0.01729483367204666,-0.03882664732672274
1772614968526956800,7.115956787109375,0.14924889670312405,-0.044161797809600827,-0.03362407371494919
1772614968537023700,7.126023681640625,0.13700623185411095,-0.10096855765879154,-0.02106337415901944
1772614968547091700,7.136091796875,0.06686053635179996,-0.12982581883072852,-0.027355240844842046
1772614968557158700,7.14615869140625,-0.00786795689612627,-0.11509177555739879,-0.06674723043674603
1772614968567226600,7.1562265625,-0.052893239667266605,-0.07368482941389083,-0.05963085909290239
1772614968577294600,7.166294677734375,-0.06048164896965026,-0.006906710648536682,-0.03670260437745601
1772614968587361500,7.176361572265625,-0.04712985383495688,0.03617255262136459,-0.012760478178039193
1772614968597429500,7.186429443359375,-0.016827800682187078,0.04414484667479992,0.017700601461343467
1772614968607496700,7.19649658203125,-0.01633329516351223,0.028669629645347593,0.017206716997176408
1772614968617564700,7.206564697265625,-0.016338555860519407,-0.016164952859282492,-0.03377699925433844
1772614968627632600,7.216632568359375,-0.02395122282132506,-0.02052957780957222,-0.06087623777780681
1772614968637699600,7.226699462890625,-0.04365677089691162,-0.01177928512096405,-0.05591682527214288
1772614968647767600,7.236767578125,-0.02610927763804793,-0.01683773755431175,-0.0709406635385938
1772614968657834500,7.24683447265625,-0.01788958469480276,-0.027243980756402015,-0.09141257461048662
1772614968667902700,7.25690283203125,0.027609891459345816,-0.02283785475194454,-0.08583804414747283
1772614968677969700,7.2669697265625,0.07513502822220325,-0.012562544453144073,-0.07528802682682871
1772614968688037600,7.27703759765625,0.07789689415097237,0.009375146588683127,-0.02442667657965794
1772614968698105600,7.287105712890625,0.06783683403804898,0.040330841344594956,0.017497333974204957
1772614968708172500,7.297172607421875,0.01853752720952034,0.035737668335437775,0.011907934735622256
1772614968718240800,7.30724072265625,-0.025697920358180998,0.034627661266922946,-0.031434472982492294
1772614968728307700,7.3173076171875,-0.05595394241213798,0.03153554047048092,-0.0647906530088745
1772614968738375700,7.327375732421875,-0.06614215894937515,0.013118424770236014,-0.07453614901360124
1772614968748443600,7.337443603515625,-0.05797814171612262,0.025038579666614533,-0.0620254626118578
1772614968758510600,7.347510498046875,-0.04714402849078178,0.038566169759631154,-0.04378711927831173
1772614968768578600,7.35757861328125,-0.035355098758637904,0.057094929140806196,0.013754256722051649
1772614968778645500,7.3676455078125,-0.011720832931995391,0.05575812757909298,0.01116495261490345
1772614968788713700,7.377713623046875,0.00208440505862236,0.0481716179728508,-0.02751149085247889
1772614968798780700,7.38778076171875,-0.004036123648285866,0.049830491095781325,-0.04016739441119134
1772614968808848600,7.3978486328125,0.0020244915649294854,0.05491700057983398,-0.04319896239312365
1772614968818916600,7.40791650390625,0.031021161207556724,0.03410860582888126,-0.04557283365130424
1772614968828983600,7.417983642578125,0.05399579408168793,0.00715162532031536,-0.050008222282864154
1772614968839051800,7.4280517578125,0.07133578206971287,-0.02792085710465908,-0.05089919803952798
1772614968849118700,7.43811865234375,0.057791094711422915,-0.03517944993078709,-0.06150777714699506
1772614968859186700,7.448186767578125,0.043104397711157795,-0.03609071955680847,-0.05919840422607958
1772614968869254700,7.458254638671875,0.0045078328132629394,-0.02740355523228645,-0.05851838607266545
1772614968879321600,7.468321533203125,-0.030559681175649164,0.021914894688129422,-0.049509369382634755
1772614968889389600,7.4783896484375,-0.044914954264461994,0.04508884952664375,-0.037264001119881866
1772614968899456800,7.488456787109375,-0.019184300680458545,0.06286942088901996,0.0007297755792737006
1772614968909524700,7.498524658203125,0.014239537754654884,0.08745265800356865,0.04836535044666379
1772614968919591700,7.508591796875,0.04803250176310539,0.09220949714183807,0.051141847688984124
1772614968929659600,7.51865966796875,0.058226563519239424,0.08488952951729298,0.010892912474181502
1772614968939727600,7.5287275390625,0.04865881696790456,0.06516717643737793,-0.023440259358193723
1772614968949794600,7.538794677734375,0.04134323325753212,0.040032735180854796,-0.04705675206612795
1772614968959862800,7.54886279296875,0.018593056789040566,0.023033669584989546,-0.050345473146904254
1772614968969929700,7.5589296875,0.013279168289899826,0.013641571861505507,-0.06783575632581487
1772614968979997700,7.568997802734375,0.006924538566172122,0.008201426634192465,-0.07847529682712628
1772614968990065700,7.579065673828125,0.0004956745624542236,-0.007032382854819297,-0.07768915141811594
1772614969000132600,7.589132568359375,0.0006682546503841877,-0.013704700225591658,-0.0749517440771684
1772614969010200800,7.599200927734375,-0.018887948082387446,-0.019234861823916434,-0.08888486449746415
1772614969020267800,7.609267822265625,-0.016911387312412263,-0.03648176470100879,-0.09912501215133815
1772614969030335700,7.619335693359375,-0.006319850671291351,-0.04339081343710422,-0.08696825375379993
1772614969040402700,7.629402587890625,0.004945055186748504,-0.03685468966662884,-0.08740595105132087
1772614969050470700,7.639470703125,0.003556815698742866,-0.04196925620138645,-0.09593772388473153
1772614969060538600,7.64953857421875,0.003512684296071529,-0.01674538309574127,-0.053122280916478484
1772614969070605600,7.65960546875,0.014296820899844168,0.025606150421500204,0.004287979517504573
1772614969080673800,7.669673828125,0.026045710882544516,0.030772154882550237,0.04726089633610099
1772614969090740700,7.67974072265625,0.025186463704705238,0.03131576023995876,0.010886190472450107
1772614969100808700,7.68980859375,0.014051321706175804,0.04325345079302788,-0.04443480606470257
1772614969110875600,7.699875732421875,0.01763327184617519,0.034525954458117486,-0.06703337216805666
1772614969120943600,7.709943603515625,0.0359977805763483,0.033245266997814174,-0.07966845213444904
1772614969131011800,7.72001171875,0.04896189156770706,0.027449147939682006,-0.06358553326912224
1772614969141078800,7.730078857421875,0.045509705287218094,0.021536124503612517,-0.06245062922136858
1772614969151146800,7.740146728515625,0.01968202106952667,0.004119125756621361,-0.04434535594927147
1772614969161213700,7.750213623046875,0.006578793868422508,0.013927403065562248,-0.01135161602711305
1772614969171281700,7.76028173828125,0.011751228070259094,0.014537643918395042,-0.0171415245401673
1772614969181349600,7.770349609375,-0.0007373743638396262,-0.017705752560496328,-0.07592884548101574
1772614969191416800,7.780416748046875,-0.0019112404488027094,-0.004115618625283241,-0.11913153420118615
1772614969201484800,7.79048486328125,-0.012007833179831505,0.026330373042821882,-0.07102720931088552
1772614969211551700,7.8005517578125,-0.019641689059138295,0.02388181084692478,-0.033324926371593025
1772614969221619700,7.81061962890625,-0.03040039896070957,0.03669160805940628,-0.046654053016752
1772614969231686700,7.820686767578125,-0.022428689429163932,0.05872749877870082,-0.04532486850591376
1772614969241754600,7.830754638671875,-0.007577449516952038,0.058580199262499806,0.006445669008046388
1772614969251822600,7.840822509765625,0.007417144388705492,0.05757306804656982,0.030446484858449547
1772614969261889800,7.850889892578125,0.031104893968254325,0.03615735505223274,0.06167473121173679
1772614969271957800,7.860957763671875,0.052393035060167306,-0.015870353826880453,0.023932280658837405
1772614969282024700,7.871024658203125,0.038786534512042996,-0.06568447830975055,-0.091803638020996
1772614969292092700,7.8810927734375,-0.00585457124710083,-0.07116495554745197,-0.15515251299003138
1772614969302160600,7.89116064453125,-0.04366553872525692,-0.025014029747247694,-0.10163903166572563
1772614969312227800,7.901227783203125,-0.07579173856526612,0.018055881172418593,-0.05955070652877911
1772614969322295600,7.911295654296875,-0.08015724029839039,0.059065936952829357,-0.04343854330265894
1772614969332362800,7.92136279296875,-0.055776540018618107,0.06298983239829539,-0.0037012382712680843
1772614969342430500,7.931430419921875,-0.006896189254522323,0.06691840401887893,0.021981493650935588
1772614969352497700,7.94149755859375,0.03172726365029812,0.034878421157598496,-0.011148494670446962
1772614969362565600,7.951565673828125,0.07205810499489307,-0.02746025385558605,-0.02740342736812308
1772614969372633600,7.961633544921875,0.07785553922727703,-0.08481529523730277,-0.056490405642706895
1772614969382700800,7.97170068359375,0.05058817759528756,-0.12735153767168522,-0.13737934861597603
1772614969392768500,7.9817685546875,0.024952947209775447,-0.11426233899593352,-0.16601539565213025
1772614969402835700,7.991835693359375,0.0005716624081134796,-0.06427110438048839,-0.10994397347331977
1772614969412903400,8.0019033203125,-0.046237727300822734,-0.002853635865449905,-0.04542041956856847
1772614969422971600,8.0119716796875,-0.06736877813488244,0.054871407872438424,0.006825900497287512
1772614969433038600,8.02203857421875,-0.05977554652690887,0.08600012110769749,0.0546896215647459
1772614969443106600,8.0321064453125,-0.04826864860653877,0.08663608092367649,0.024106952239153906
1772614969453173800,8.042173828125,-0.018719898039102553,0.06690145288407802,-0.02081317139077
1772614969463241500,8.052241455078125,-0.009437105908989905,0.04306289665699005,-0.08716345666549168
1772614969473308700,8.06230859375,-0.020984628100693226,0.023218963024020194,-0.1263191350171808
1772614969483376600,8.072376708984375,0.003440495842695236,0.053448097071051595,-0.10712164606158621
1772614969493444600,8.082444580078125,0.03874444893598556,0.06656009210050105,-0.06619893977106549
1772614969503511600,8.092511474609376,0.05326280363202095,0.04425356774628162,-0.037382805193960665
1772614969513579500,8.10257958984375,0.06725801123678683,0.039677930393815036,-0.038206834927946326
1772614969523646700,8.112646728515625,0.07528232773840426,0.019139000234007834,-0.047748131863772865
1772614969533714400,8.12271435546875,0.057255088138580316,0.0038163434177637097,-0.06382944329390301
1772614969543782700,8.13278271484375,0.0157005502179265,-0.004612462231516838,-0.07410777666685171
1772614969553849600,8.142849609375,-0.02435293549001217,-0.0155938749730587,-0.09698434686083346
1772614969563917800,8.152917724609376,-0.028325346252322196,-0.013382044142484664,-0.09437559826769866
1772614969573984800,8.16298486328125,-0.041740708142519,-0.005344283637404442,-0.07471334134456702
1772614969584052700,8.173052734375,-0.040298108118772505,0.018911621218919754,-0.023101738985674455
1772614969594119700,8.18311962890625,-0.03666092066019773,0.022643208962678907,0.018613460256252438
1772614969604187600,8.193187744140625,-0.01876490622460842,0.025764555853605268,-0.005846972462534904
1772614969614255900,8.203255859375,0.000007014262676239014,0.011343816313147544,-0.05763227828736417
1772614969624322800,8.21332275390625,0.028197335958480833,0.0047118309527635575,-0.07663034481387584
1772614969634390800,8.223390869140625,0.0525198763102293,-0.006371288597583771,-0.08452682455158791
1772614969644457700,8.233457763671876,0.06235270353853702,-0.012325813087821005,-0.07059938495340756
1772614969654525700,8.243525634765625,0.03751709909811616,-0.0014531214177608488,-0.04158756340742111
1772614969664594000,8.253593994140624,0.007592939347028732,0.02879179472029209,0.00797971930806525
1772614969674660900,8.263660888671875,-0.017829671201109884,0.04485270268321037,0.03938806233545765
1772614969684728800,8.273728759765625,-0.044188101294636725,0.049475686308741565,0.059071827837498855
1772614969694795800,8.283795654296876,-0.05285802222341299,0.03478489765524864,0.009694596934551372
1772614969704863700,8.29386376953125,-0.03691577220410108,-0.0032388357907533645,-0.09111242262013255
1772614969714931700,8.303931640625,-0.01774316196143627,-0.02988718874156475,-0.14277930796337313
1772614969724999000,8.3139990234375,0.0015245792187750338,-0.05075929637849331,-0.10040120609961449
1772614969735067000,8.32406689453125,-0.011733400152623653,-0.05926935057044029,-0.06927782662659883
1772614969745133800,8.3341337890625,-0.021284049438685178,-0.033170448195934295,-0.06362812116867862
1772614969755201800,8.344201904296876,-0.02041340408399701,0.005029810860753059,-0.04606112862490117
1772614969765268700,8.354268798828125,-0.018145605282485485,0.02582242352068424,-0.01844727337649092
1772614969775336700,8.364336669921874,0.0018178630769252776,0.054279287198185915,-0.03116089847180992
1772614969785405000,8.374405029296875,0.015224164877831936,0.08568214119970798,-0.05318970186319202
1772614969795472000,8.384471923828125,0.04491144713312387,0.08327917171120643,-0.09951103406054898
1772614969805539800,8.394539794921876,0.03479951070249081,0.08113806802928447,-0.07451401024702936
1772614969815606800,8.404606689453125,-0.01941021839082241,0.1208428864300251,-0.0019022625579033046
1772614969825674800,8.4146748046875,0.025149054303765295,0.09227671715915202,0.030932688339659942
1772614969835743000,8.424742919921876,0.1509998320236802,0.07353519181013107,-0.025939656692184506
1772614969845810000,8.434809814453125,0.12916355552971362,-0.015544775134325027,-0.06604508264991454
1772614969855878000,8.4448779296875,0.14958397387638686,-0.04989712659120559,-0.1509142269663047
1772614969865944800,8.45494482421875,0.1327162795752287,-0.03488309733271599,-0.12210577337215654
1772614969876012800,8.4650126953125,0.049563364592194556,0.009323708662390708,-0.0638047929098364
1772614969886079700,8.475079833984376,-0.019640520015358924,0.0453349332422018,-0.038087628995068366
1772614969896147700,8.485147705078125,-0.09640168813467025,0.0378191507846117,-0.03946535622221418
1772614969906216000,8.4952158203125,-0.13084274078831076,0.02599193486869335,-0.07650817973893136
1772614969916283000,8.505282958984376,-0.1560918944656849,0.021574118426442145,-0.11200897057857363
1772614969926350800,8.515350830078125,-0.1524006387323141,0.015175357300043105,-0.08572809010013006
1772614969936417800,8.525417724609374,-0.11680910086929798,0.03135258511900901,-0.08468289189613423
1772614969946485800,8.53548583984375,-0.10533186743482947,0.03412789505124092,-0.04976839477815665
1772614969956554000,8.545553955078125,-0.06480053508207202,0.014559271228313445,-0.020922951908176765
