time,seconds_elapsed,z,y,x
1772614961489720300,0.07872021484375,-0.0030831145122647285,0.018778210505843163,-0.028200507164001465
1772614961499788300,0.088788330078125,0.003659210167825222,0.023010240867733955,-0.042756013572216034
1772614961509855200,0.098855224609375,-0.0032786522060632706,0.023252982646226883,-0.04693107306957245
1772614961519923500,0.10892333984375,-0.010291554033756256,0.026100967079401016,-0.038248367607593536
1772614961529990400,0.118990478515625,-0.014662783592939377,0.034767936915159225,-0.026305953040719032
1772614961540058400,0.129058349609375,-0.006707655265927315,0.04726774990558624,-0.007434527389705181
1772614961550125600,0.13912548828125,0.004008679650723934,0.046514928340911865,0.01303017046302557
1772614961560192500,0.149192626953125,0.014185682870447636,0.047047559171915054,0.021175716072320938
1772614961570260500,0.159260498046875,0.011559116654098034,0.039813295006752014,0.028978554531931877
1772614961580327400,0.169327392578125,0.0031669631134718657,0.037351470440626144,0.027524203062057495
1772614961590395600,0.179395751953125,-0.0018576906295493245,0.048915550112724304,0.019895702600479126
1772614961600462600,0.189462646484375,-0.0012265214463695884,0.05430259183049202,0.011247087270021439
1772614961610530600,0.199530517578125,-0.0028524629306048155,0.051990069448947906,0.00662163645029068
1772614961620598500,0.2095986328125,-0.001890262821689248,0.04972798004746437,0.0012274039909243584
1772614961630665500,0.21966552734375,-0.001980873290449381,0.047905951738357544,-0.0017949007451534271
1772614961640733400,0.2297333984375,0.0010998714715242386,0.049478545784950256,0.0022038354072719812
1772614961650800600,0.239800537109375,0.0013353772228583694,0.04506061226129532,0.0033380796667188406
1772614961660868600,0.24986865234375,0.005636648740619421,0.039381686598062515,0.009428196586668491
1772614961670935600,0.259935546875,0.011742834001779556,0.04139809310436249,0.0007299685385078192
1772614961681003500,0.27000341796875,0.018476104363799095,0.05128508061170578,-0.015858862549066544
1772614961691071500,0.280071533203125,0.02067398838698864,0.045623764395713806,-0.03972935304045677
1772614961701138400,0.290138427734375,0.021555494517087936,0.032554566860198975,-0.05529606342315674
1772614961711206700,0.30020654296875,0.005008122883737087,0.036566104739904404,-0.05856775492429733
1772614961721273600,0.310273681640625,-0.012920543551445007,0.04089214280247688,-0.0553559809923172
1772614961731341600,0.320341552734375,-0.024957453832030296,0.03909178078174591,-0.03682427853345871
1772614961741408500,0.330408447265625,-0.025067707523703575,0.035745784640312195,-0.010878167115151882
1772614961751476500,0.3404765625,-0.028132418170571327,0.03875887393951416,0.006843937560915947
1772614961761544700,0.350544677734375,-0.026972610503435135,0.04400290176272392,0.022527026012539864
1772614961771611600,0.360611572265625,-0.026081658899784088,0.034513555467128754,0.033198483288288116
1772614961781679600,0.3706796875,-0.03897561877965927,0.011580810882151127,0.03494365140795708
1772614961791746600,0.38074658203125,-0.039026081562042236,-0.01942867785692215,0.030712319537997246
1772614961801814500,0.390814453125,-0.021194882690906525,0.0360468327999115,-0.016693012788891792
1772614961811881500,0.400881591796875,-0.006557221990078688,0.06481488049030304,-0.06458594650030136
1772614961821949400,0.410949462890625,-0.012741082347929478,0.030961845070123672,-0.07878991216421127
1772614961832017700,0.421017578125,-0.024051165208220482,0.00896044634282589,-0.060937944799661636
1772614961842084600,0.431084716796875,-0.026351602748036385,0.008775090798735619,-0.032577674835920334
1772614961852152600,0.441152587890625,-0.011137967929244041,0.02572319656610489,-0.01781155914068222
1772614961862219500,0.451219482421875,0.0026055416092276573,0.025960218161344528,-0.008569324389100075
1772614961872287500,0.46128759765625,-0.003851457266137004,0.03264360502362251,-0.002675290685147047
1772614961882354400,0.4713544921875,-0.005468262359499931,0.028081079944968224,-0.00999339111149311
1772614961892422700,0.481422607421875,-0.009656713344156742,0.01611385866999626,-0.02119091898202896
1772614961902490600,0.49149072265625,-0.007529113907366991,0.011810988187789917,-0.02329534851014614
1772614961912557600,0.5015576171875,-0.0013426134828478098,0.0356159545481205,-0.03841229900717735
1772614961922625500,0.51162548828125,0.00370194623246789,0.05203833803534508,-0.03453393653035164
1772614961932692500,0.5216923828125,0.001889110659249127,0.04076015204191208,-0.018758481368422508
1772614961942760700,0.5317607421875,0.008345678448677063,0.024076245725154877,0.0010778068099170923
1772614961952827600,0.54182763671875,0.019024789333343506,0.023646865040063858,0.01695842854678631
1772614961962895600,0.5518955078125,0.02176571451127529,0.023684415966272354,0.01918856054544449
1772614961972963600,0.561963623046875,0.02286265417933464,0.02682673931121826,0.021940475329756737
1772614961983030500,0.572030517578125,0.018124891445040703,0.03067713789641857,0.016571810469031334
1772614961993098500,0.582098388671875,0.009484201669692993,0.03748922049999237,0.005038774572312832
1772614962003165400,0.59216552734375,-0.005230562295764685,0.045351140201091766,-0.002613019896671176
1772614962013233700,0.602233642578125,-0.004762277938425541,0.0485905297100544,-0.009045425802469254
1772614962023300600,0.612300537109375,-0.005804106593132019,0.04343678057193756,-0.018745455890893936
1772614962033368600,0.62236865234375,-0.0036010174080729485,0.04663325473666191,-0.026328301057219505
1772614962043436500,0.6324365234375,-0.005982416216284037,0.04519754648208618,-0.02389683574438095
1772614962053503500,0.64250341796875,-0.011323932558298111,0.04009871929883957,-0.014782627113163471
1772614962063571700,0.65257177734375,-0.01029968075454235,0.04090432822704315,-0.008954565972089767
1772614962073638700,0.662638671875,-0.004322712309658527,0.03546472266316414,0.0012293406762182713
1772614962083706600,0.67270654296875,-0.00009600957855582237,0.030615637078881264,0.005677086301147938
1772614962093773600,0.682773681640625,0.006278536282479763,0.025326747447252274,0.006273559294641018
1772614962103841500,0.692841552734375,0.010673018172383308,0.02716725692152977,0.00044097029604017735
1772614962113909500,0.702909423828125,0.012482160702347755,0.02745259366929531,-0.006112105678766966
1772614962123976400,0.7129765625,0.011214762926101685,0.022112689912319183,-0.01060006394982338
1772614962134044700,0.723044677734375,0.0022723176516592503,0.024577755481004715,-0.014277496375143528
1772614962144111600,0.733111572265625,-0.005870563443750143,0.024261903017759323,-0.02100091427564621
1772614962154179600,0.7431796875,-0.01124529354274273,0.02024960145354271,-0.01653590425848961
1772614962164246500,0.75324658203125,-0.006724044214934111,0.02446192130446434,-0.00708061782643199
1772614962174314500,0.763314453125,0.005359006114304066,0.030479565262794495,0.00794764794409275
1772614962184382700,0.7733828125,0.01967775821685791,0.03336270526051521,0.01764288730919361
1772614962194449700,0.78344970703125,0.024439223110675812,0.03074854612350464,0.023061353713274002
1772614962204517600,0.793517578125,0.029106944799423218,0.0341414138674736,0.02719777636229992
1772614962214584600,0.80358447265625,0.024458235129714012,0.030055657029151917,0.02437414601445198
1772614962224652500,0.813652587890625,0.020643524825572968,0.025908581912517548,0.020775947719812393
1772614962234719500,0.823719482421875,0.008262199349701405,0.030865825712680817,0.012763516046106815
1772614962244787700,0.83378759765625,0.009860895574092865,0.039402589201927185,0.007752778008580208
1772614962254855700,0.843855712890625,0.01459004357457161,0.04107075557112694,0.004068285226821899
1772614962264922600,0.853922607421875,0.020515576004981995,0.039439037442207336,0.002601949032396078
1772614962274990600,0.863990478515625,0.027790237218141556,0.03605324402451515,0.0015625501982867718
1772614962285057500,0.8740576171875,0.03010878711938858,0.029872050508856773,0.001816349569708109
1772614962295125500,0.88412548828125,0.029180066660046577,0.01944502256810665,0.0033147591166198254
1772614962305192400,0.8941923828125,0.02619519643485546,0.011867264285683632,0.0021520229056477547
1772614962315260700,0.9042607421875,0.025291498750448227,0.009620904922485352,-0.001115670776925981
1772614962325328600,0.91432861328125,0.02351037599146366,0.01274186372756958,-0.002418755553662777
1772614962335395600,0.9243955078125,0.020357726141810417,0.017695875838398933,-0.005337047390639782
1772614962345463600,0.934463623046875,0.019374486058950424,0.01550702378153801,-0.008169852197170258
1772614962355530500,0.944530517578125,0.020587367936968803,0.012036879546940327,-0.009408075362443924
1772614962365598700,0.9545986328125,0.020174311473965645,0.010269340127706528,-0.009547891095280647
1772614962375666700,0.964666748046875,0.016531353816390038,0.0018761566607281566,-0.009857134893536568
1772614962385733600,0.974733642578125,0.0042131682857871056,0.0012503138277679682,-0.004557710140943527
1772614962395801600,0.984801513671875,-0.005608752835541964,0.003399996552616358,-0.0022764443419873714
1772614962405868500,0.99486865234375,-0.014484003186225891,0.0051648737862706184,0.001939605688676238
1772614962415936500,1.0049365234375,-0.00866229273378849,0.010211881250143051,0.004352865274995565
1772614962426003700,1.015003662109375,0.006991501431912184,0.0041169701144099236,0.007408576551824808
1772614962436071700,1.02507177734375,0.008940529078245163,0.00018324563279747963,0.014548680745065212
1772614962446139600,1.0351396484375,0.018417388200759888,0.0033060682471841574,0.01565176248550415
1772614962456206600,1.04520654296875,0.02060910500586033,-0.007172686979174614,0.0173378586769104
1772614962466274600,1.055274658203125,0.009284545667469501,-0.01142495684325695,0.019609002396464348
1772614962476341500,1.065341552734375,-0.01130509190261364,-0.004400999750941992,0.017562387511134148
1772614962486409700,1.07540966796875,-0.020553451031446457,0.002604711800813675,0.01126001589000225
1772614962496476700,1.0854765625,-0.018491016700863838,0.006729782558977604,0.012157307006418705
1772614962506544600,1.095544677734375,-0.01263605710119009,0.008806249126791954,0.014089697040617466
1772614962516612600,1.105612548828125,-0.006337005645036697,0.011994168162345886,0.015005582012236118
1772614962526679600,1.115679443359375,0.003123874543234706,0.007884910330176353,0.012897157110273838
1772614962536747800,1.125747802734375,0.015622539445757866,-0.0011331858113408089,0.017468934878706932
1772614962546814700,1.135814697265625,0.024897264316678047,-0.01686767488718033,0.012392949312925339
1772614962556882400,1.14588232421875,0.027243448421359062,-0.023501090705394745,0.006746562197804451
1772614962566949400,1.155949462890625,0.01796526089310646,-0.01823602244257927,-0.0013435883447527885
1772614962577017600,1.166017578125,0.006382991559803486,-0.007069673389196396,-0.0052589671686291695
1772614962587085600,1.17608544921875,-0.0033205023501068354,-0.0005987244658172131,0.0000945189967751503
1772614962597152500,1.186152587890625,-0.009511124342679977,0.0037510725669562817,0.00790951494127512
1772614962607220500,1.196220458984375,-0.009273039177060127,0.004492762964218855,0.01810968667268753
1772614962617287400,1.206287353515625,-0.003970417194068432,-0.0006182307843118906,0.0199155081063509
1772614962627355600,1.216355712890625,0.004128788132220507,-0.00719597190618515,0.010469808243215084
1772614962637422600,1.226422607421875,0.01108285691589117,-0.018187938258051872,0.003112873062491417
1772614962647490600,1.236490478515625,0.020900599658489227,-0.024760352447628975,-0.01118990033864975
1772614962657558500,1.24655859375,0.018852408975362778,-0.02767312154173851,-0.025081388652324677
1772614962667625500,1.25662548828125,0.014729302376508713,-0.02236996777355671,-0.02516740933060646
1772614962677693400,1.266693359375,0.005679713562130928,-0.022850219160318375,-0.015689287334680557
1772614962687760400,1.276760498046875,0.004933762364089489,-0.0276939757168293,-0.0009276516502723098
1772614962697828600,1.28682861328125,0.000012954347766935825,-0.025268081575632095,0.015009239315986633
1772614962707895600,1.2968955078125,0.007715881336480379,-0.02121475338935852,0.023974504321813583
1772614962717963500,1.306963623046875,0.007817537523806095,-0.016917163506150246,0.02274956926703453
1772614962728031500,1.317031494140625,0.0052979206666350365,-0.011969274841248989,0.018991846591234207
1772614962738098400,1.327098388671875,-0.0012723492691293359,-0.016989804804325104,0.0057623255997896194
1772614962748166700,1.337166748046875,-0.003958946093916893,-0.01932113617658615,-0.0032777744345366955
1772614962758233600,1.347233642578125,-0.0027643744833767414,-0.006953423842787743,-0.009935188107192516
1772614962768301600,1.357301513671875,-0.0020583707373589277,-0.007375534623861313,-0.011460114270448685
1772614962778368500,1.367368408203125,-0.0023881937377154827,-0.009206753224134445,-0.0037525645457208157
1772614962788436500,1.3774365234375,-0.0045717195607721806,-0.010957248508930206,0.0022741686552762985
1772614962798504400,1.38750439453125,-0.003187488531693816,-0.01033109612762928,0.001166151138022542
1772614962808571600,1.397571533203125,-0.0003224598476663232,-0.015100018121302128,0.006410181522369385
1772614962818639600,1.4076396484375,0.005386107601225376,-0.012728639878332615,0.0017422656528651714
1772614962828706600,1.41770654296875,0.015308246947824955,-0.011700659058988094,0.00662357360124588
1772614962838774500,1.4277744140625,0.019561033695936203,-0.00923690665513277,0.01313400361686945
1772614962848841500,1.437841552734375,0.008703061379492283,-0.00435932632535696,0.02141963131725788
1772614962858909400,1.447909423828125,-0.0019208668963983655,-0.0061686099506914616,0.025657959282398224
1772614962868977700,1.457977783203125,-0.010148969478905201,-0.005713209975510836,0.021874140948057175
1772614962879044600,1.468044677734375,-0.006925113964825869,0.004930687602609396,0.01594434306025505
1772614962889112600,1.478112548828125,-0.004446509759873152,0.008509709499776363,0.002361423335969448
1772614962899179500,1.488179443359375,0.0064748297445476055,0.005778697319328785,-0.003018885850906372
1772614962909247500,1.49824755859375,0.013078137300908566,-0.0011788108386099339,-0.006149964407086372
1772614962919314400,1.508314453125,0.01749558188021183,-0.0029555363580584526,-0.010923922061920166
1772614962929382700,1.518382568359375,0.019388822838664055,-0.0027605928480625153,-0.010937770828604698
1772614962939450600,1.52845068359375,0.01861458085477352,-0.004707111977040768,-0.008432753384113312
1772614962949517600,1.538517578125,0.015317320823669434,0.00003091758117079735,-0.005542424973100424
1772614962959585500,1.54858544921875,0.01799689047038555,-0.005571107380092144,-0.0022831044625490904
1772614962969652500,1.558652587890625,0.01188280526548624,-0.004546056501567364,-0.00022874190472066402
1772614962979720400,1.568720458984375,0.0054595740512013435,0.005502658896148205,0.000040526967495679855
1772614962989787600,1.57878759765625,0.005448388867080212,0.010718460194766521,0.0071242693811655045
1772614962999855600,1.588855712890625,0.0053474148735404015,0.009700816124677658,0.018121888861060143
1772614963009923600,1.598923583984375,0.013398682698607445,0.01371020544320345,0.025734268128871918
1772614963019990500,1.608990478515625,0.01846189983189106,0.011046450585126877,0.02833664044737816
1772614963030058500,1.61905859375,0.02465721219778061,0.003613301320001483,0.023815391585230827
1772614963040125400,1.62912548828125,0.027310624718666077,0.0019208075245842338,0.01889391615986824
1772614963050193700,1.639193603515625,0.028503723442554474,-0.0012483543250709772,0.016981501132249832
1772614963060260600,1.649260498046875,0.034054551273584366,-0.0008430208545178175,0.014723407104611397
1772614963070328600,1.65932861328125,0.03214719519019127,-0.0030009804759174585,0.02003135345876217
1772614963080396300,1.669396240234375,0.020339615643024445,-0.0007869941182434559,0.02219684235751629
1772614963090463500,1.67946337890625,0.01272670365869999,0.0016258296091109514,0.02045140601694584
1772614963100531500,1.689531494140625,0.007821775041520596,-0.000463852658867836,0.01860484480857849
1772614963110598700,1.6995986328125,0.005854764953255653,-0.005023717414587736,0.01296586636453867
1772614963120666600,1.70966650390625,0.005237237084656954,-0.005800159648060799,0.00800309143960476
1772614963130734300,1.719734375,0.009098021313548088,-0.0070435889065265656,0.00014010793529450893
1772614963140801500,1.729801513671875,0.012044684961438179,-0.009455909952521324,-0.007768852636218071
1772614963150869200,1.739869140625,0.014711575582623482,-0.009341660887002945,-0.011376903392374516
1772614963160936400,1.7499365234375,0.021433087065815926,-0.013057620264589787,-0.0016719808336347342
1772614963171004400,1.76000439453125,0.027202824130654335,-0.018113896250724792,0.004041298758238554
1772614963181071600,1.770071533203125,0.02526574395596981,-0.014066359959542751,0.012240494601428509
1772614963191139600,1.7801396484375,0.013143034651875496,-0.007889690808951855,0.01727893017232418
1772614963201207300,1.790207275390625,0.003942079376429319,0.0030931858345866203,0.02672675997018814
1772614963211274500,1.8002744140625,0.0018634820589795709,0.004934495314955711,0.03639696538448334
1772614963221342500,1.810342529296875,0.008330538868904114,0.002131849993020296,0.03805570304393768
1772614963231409700,1.82040966796875,0.013935694471001625,0.005654945969581604,0.0342942513525486
1772614963241477400,1.830477294921875,0.017520638182759285,0.008807078003883362,0.03201693296432495
1772614963251544600,1.840544677734375,0.017419438809156418,-0.0007059997878968716,0.03134288638830185
1772614963261612300,1.8506123046875,0.010461274534463882,-0.0059110322035849094,0.02562963403761387
1772614963271680300,1.86068017578125,0.007729404605925083,-0.007353933062404394,0.02100079320371151
1772614963281747500,1.87074755859375,0.01090335939079523,0.003055298700928688,0.012169219553470612
1772614963291815400,1.8808154296875,0.014032040722668171,0.0006225008983165026,0.006862869951874018
1772614963301882600,1.890882568359375,0.016790995374321938,0.00010122032836079597,0.010351271368563175
1772614963311950300,1.900950439453125,0.022368719801306725,-0.005077828653156757,0.01655750349164009
1772614963322017500,1.911017578125,0.027285655960440636,-0.0019713863730430603,0.014606710523366928
1772614963332085200,1.921085205078125,0.020245056599378586,-0.002069124486297369,0.015683958306908607
1772614963342153500,1.931153564453125,0.009862532839179039,-0.0037482944317162037,0.01462470181286335
1772614963352220400,1.941220458984375,0.0042840102687478065,0.0005306066013872623,0.015579445287585258
1772614963362288400,1.951288330078125,0.0006336778169497848,0.007777083199471235,0.01836399734020233
1772614963372355600,1.96135546875,-0.004002352710813284,0.009722522459924221,0.024090593680739403
1772614963382423300,1.97142333984375,0.0004811380058526993,0.011476881802082062,0.029706157743930817
1772614963392490500,1.981490478515625,0.011340975761413574,0.014128591865301132,0.0311698317527771
1772614963402558500,1.991558349609375,0.023194173350930214,0.01386999897658825,0.025242168456315994
1772614963412626400,2.00162646484375,0.026094354689121246,0.002378192264586687,0.006251698825508356
1772614963422693400,2.011693359375,0.022937241941690445,-0.013628455810248852,-0.016880566254258156
1772614963432761300,2.02176123046875,0.025029420852661133,-0.024561796337366104,-0.0372026190161705
1772614963442828500,2.03182861328125,0.01468576304614544,-0.030081596225500107,-0.05343269556760788
1772614963452896300,2.041896240234375,0.004317277576774359,-0.025370463728904724,-0.06012175604701042
1772614963462963500,2.05196337890625,-0.008693759329617023,-0.014512957073748112,-0.05301232635974884
1772614963473031400,2.062031494140625,-0.016119983047246933,-0.006206025369465351,-0.03190357983112335
1772614963483099400,2.072099365234375,-0.01494927890598774,-0.003388098906725645,-0.010336284525692463
1772614963493166300,2.082166259765625,-0.00700959749519825,0.0021414223592728376,0.009670979343354702
1772614963503234300,2.092234375,-0.0024905409663915634,0.0001477652695029974,0.026794886216521263
1772614963513301200,2.10230126953125,-0.0061643715016543865,-0.00011056149378418922,0.037874165922403336
1772614963523369500,2.112369384765625,-0.004786212462931871,0.0001737226266413927,0.04238782823085785
1772614963533436400,2.1224365234375,-0.0022804441396147013,-0.0024332457687705755,0.03895741328597069
1772614963543504400,2.13250439453125,0.0028219944797456264,-0.005148714408278465,0.030653491616249084
1772614963553573000,2.142572998046875,0.0025029475800693035,-0.0020205657929182053,0.017780303955078125
1772614963563640000,2.15264013671875,0.003834310919046402,-0.00021859374828636646,0.005217128433287144
1772614963573708300,2.162708251953125,-0.0007340754964388907,0.006218000315129757,-0.0019643516279757023
1772614963583775200,2.172775146484375,-0.0003058220027014613,0.010860772803425789,-0.003902742173522711
1772614963593843200,2.18284326171875,0.0028505567461252213,0.008554209023714066,0.0042585148476064205
1772614963603910100,2.19291015625,0.0012485795887187123,0.0029141863342374563,0.013281839899718761
1772614963613978000,2.20297802734375,0.0036741867661476135,0.0010020365007221699,0.018984733149409294
1772614963624046300,2.21304638671875,0.009427354671061039,0.0026477347128093243,0.02786395326256752
1772614963634113300,2.22311328125,0.01903310976922512,0.0006431734655052423,0.031432054936885834
1772614963644181200,2.23318115234375,0.026321133598685265,-0.00363552151247859,0.02363850735127926
1772614963654248200,2.243248291015625,0.028473500162363052,-0.007384985685348511,0.016049563884735107
1772614963664316200,2.253316162109375,0.025690661743283272,-0.010193209163844585,0.009736880660057068
1772614963674383000,2.263383056640625,0.02170657180249691,-0.006133220158517361,0.0012206248939037323
1772614963684451000,2.273451171875,0.021639524027705193,-0.0008220630697906017,-0.005957441404461861
1772614963694519300,2.283519287109375,0.01615927182137966,-0.004623459652066231,-0.00679447315633297
1772614963704586200,2.293586181640625,0.006302930414676666,-0.003755449317395687,-0.01040772907435894
1772614963714654200,2.303654296875,0.0041233994998037815,-0.004244139418005943,-0.007058803923428059
1772614963724721200,2.31372119140625,0.008442599326372147,-0.003651872742921114,-0.0020773615688085556
1772614963734789000,2.3237890625,0.007517150603234768,-0.005359491799026728,0.00794358178973198
1772614963744856000,2.33385595703125,0.014518475160002708,-0.003754434874281287,0.014249776490032673
1772614963754924300,2.34392431640625,0.020377961918711662,-0.009744682349264622,0.02358495630323887
1772614963764992300,2.3539921875,0.02603211998939514,-0.01183727290481329,0.023786092177033424
1772614963775059200,2.36405908203125,0.017684973776340485,-0.009893164969980717,0.019876305013895035
1772614963785127200,2.374127197265625,0.009275119751691818,-0.010572955012321472,0.0094378050416708
1772614963795194000,2.384194091796875,-0.003189272712916136,-0.009075725451111794,-0.0022564008831977844
1772614963805262300,2.394262451171875,-0.003117465879768133,-0.0074496399611234665,-0.012706642970442772
1772614963815329300,2.404329345703125,-0.0010553800966590643,-0.009378568269312382,-0.023662354797124863
1772614963825397200,2.414397216796875,-0.005915486253798008,-0.006528785452246666,-0.024030523374676704
1772614963835465200,2.42446533203125,-0.009758960455656052,0.000436446163803339,-0.017713239416480064
1772614963845532200,2.4345322265625,-0.006517934147268534,-0.0005785343237221241,-0.013693368062376976
1772614963855600000,2.44460009765625,0.0040652016177773476,-0.011112933978438377,-0.004869250115007162
1772614963865667000,2.4546669921875,0.005919682793319225,-0.014223090372979641,0.001669052755460143
1772614963875735300,2.4647353515625,-0.0029345289804041386,-0.010555118322372437,-0.0005493604112416506
1772614963885803300,2.47480322265625,-0.00963500328361988,-0.009202060289680958,0.0028658511582762003
1772614963895870200,2.4848701171875,-0.009875486604869366,-0.009397003799676895,0.0028653184417635202
1772614963905938200,2.494938232421875,-0.013659100048244,-0.004546192474663258,0.0015227964613586664
1772614963916005000,2.505005126953125,-0.014623165130615234,0.004914687015116215,-0.007815045304596424
1772614963926073300,2.5150732421875,-0.0026419642381370068,0.00545207504183054,-0.013379724696278572
1772614963936140300,2.525140380859375,0.00882028043270111,0.00015131919644773006,-0.01265028491616249
1772614963946208300,2.535208251953125,0.013245340436697006,-0.0072872331365942955,-0.010518444702029228
1772614963956276200,2.545276123046875,0.016299720853567123,-0.004853636026382446,-0.008545841090381145
1772614963966343200,2.55534326171875,0.02615251950919628,-0.008180762641131878,-0.007025445345789194
1772614963976411100,2.5654111328125,0.033510301262140274,-0.016032826155424118,0.006616331171244383
1772614963986478300,2.575478271484375,0.015353436581790447,-0.007383388467133045,0.00878445990383625
1772614963996546300,2.58554638671875,0.005109854508191347,-0.0022064694203436375,0.009557309560477734
1772614964006613200,2.59561328125,0.001655127271078527,-0.005993292201310396,0.006951453164219856
1772614964016681200,2.60568115234375,0.0033219996839761734,-0.00439193332567811,0.0039926813915371895
1772614964026749200,2.615749267578125,0.003331356216222048,-0.0010923738591372967,0.004241666756570339
1772614964036816100,2.625816162109375,0.007269905414432287,0.002189971972256899,0.004734084941446781
1772614964046884400,2.63588427734375,0.010174307972192764,0.002006163587793708,0.006580817513167858
1772614964056951300,2.645951416015625,0.017453260719776154,0.004017649218440056,0.0034974098671227694
1772614964067019300,2.656019287109375,0.02028605341911316,0.0017148773185908794,0.0042639318853616714
1772614964077086200,2.666086181640625,0.0225092601031065,-0.011242199689149857,-0.0007918131304904819
1772614964087154200,2.676154296875,0.020279282703995705,-0.01194643322378397,-0.008526666089892387
1772614964097222400,2.686222412109375,0.02012668363749981,-0.014347272925078869,-0.013555512763559818
1772614964107289300,2.696289306640625,0.01735730469226837,-0.020307498052716255,-0.02376837283372879
1772614964117357300,2.706357421875,0.01681002415716648,-0.017555121332406998,-0.032712601125240326
1772614964127424300,2.71642431640625,0.013775781728327274,-0.011555351316928864,-0.03522195294499397
1772614964137492200,2.7264921875,0.015262092463672161,-0.008375003933906555,-0.029393089935183525
1772614964147559200,2.73655908203125,0.018904659897089005,-0.0040714009664952755,-0.021134480834007263
1772614964157627100,2.746627197265625,0.018862050026655197,-0.0019461982883512974,-0.004054830875247717
1772614964167695400,2.7566953125,0.013191763311624527,0.0012318461667746305,0.0046707140281796455
1772614964177762300,2.76676220703125,0.001977458130568266,-0.0016741950530558825,0.00782576110213995
1772614964187830300,2.776830322265625,-0.004639994818717241,0.0009984392672777176,0.0031255832873284817
1772614964197897200,2.786897216796875,-0.003169397357851267,0.001995526719838381,-0.006253005005419254
1772614964207965200,2.796965087890625,0.008141644299030304,0.0015654417220503092,-0.008698636665940285
1772614964218033400,2.807033447265625,0.016337255015969276,-0.001312370179221034,-0.008398763835430145
1772614964228100400,2.817100341796875,0.0197751522064209,0.0019102870719507337,-0.0010510572465136647
1772614964238168300,2.827168212890625,0.018659822642803192,-0.0003544650971889496,0.006844948977231979
1772614964248235300,2.8372353515625,0.014903590083122253,-0.0049768611788749695,0.009530704468488693
1772614964258303200,2.84730322265625,0.006244854535907507,-0.0031009302474558353,0.005486161448061466
1772614964268370200,2.8573701171875,-0.0007036171737127006,0.0017025286797434092,0.0033099702559411526
1772614964278438400,2.8674384765625,0.0020727282389998436,-0.001853856723755598,-0.00827877502888441
1772614964288506400,2.87750634765625,-0.0011627278290688992,-0.00291850371286273,-0.018843146041035652
1772614964298573300,2.8875732421875,-0.001834643422625959,-0.003129692282527685,-0.014860388822853565
1772614964308641300,2.897641357421875,0.005818568170070648,-0.007321792654693127,-0.013385533355176449
1772614964318708200,2.907708251953125,0.003429979318752885,-0.003781120525673032,-0.003927316516637802
1772614964328776200,2.917776123046875,-0.0033894150983542204,0.005945476703345776,0.0020628119818866253
1772614964338843100,2.927843017578125,-0.006300250068306923,0.012185796163976192,0.01029197871685028
1772614964348911400,2.937911376953125,-0.00242439191788435,0.008766352199018002,0.015918923541903496
1772614964358979300,2.947979248046875,0.0011317271273583174,-0.001214110292494297,0.01254523266106844
1772614964369046300,2.95804638671875,0.00024127238430082798,-0.0038741305470466614,0.0031126299872994423
1772614964379114200,2.9681142578125,0.004104453604668379,-0.003146554809063673,-0.0051895081996917725
1772614964389181200,2.97818115234375,0.008564571850001812,-0.006140863057225943,-0.00917841400951147
1772614964399249400,2.98824951171875,0.011527338065207005,-0.013149769976735115,-0.007150150835514069
1772614964409316400,2.99831640625,0.010750112123787403,-0.009395248256623745,-0.00865089800208807
1772614964419384300,3.00838427734375,0.004879173822700977,-0.0028657095972448587,-0.00819416530430317
1772614964429452300,3.018452392578125,-0.00008347327820956707,0.0015878014964982867,-0.007469754666090012
1772614964439519200,3.028519287109375,0.0012030999641865492,0.0007422477938234806,-0.0017977540846914053
1772614964449587200,3.038587158203125,0.0019486431265249848,0.005100807175040245,0.002026449190452695
1772614964459654400,3.048654296875,0.0026815449818968773,0.005686702206730843,0.0052480753511190414
1772614964469722400,3.058722412109375,0.007599070202559233,0.0024428274482488632,0.007193319499492645
1772614964479789300,3.068789306640625,0.006885342765599489,-0.005902986973524094,0.00586759764701128
1772614964489857300,3.078857177734375,0.010484345257282257,-0.005943973548710346,0.002008263487368822
1772614964499925200,3.08892529296875,0.019208859652280807,-0.0038845515809953213,-0.005759112071245909
1772614964509992200,3.0989921875,0.024982016533613205,-0.005149217322468758,-0.016747940331697464
1772614964520060400,3.109060302734375,0.02814292162656784,-0.003950262442231178,-0.01810428872704506
1772614964530127400,3.11912744140625,0.029676085337996483,-0.003481897059828043,-0.018938247114419937
1772614964540195300,3.1291953125,0.019418921321630478,-0.0014413832686841488,-0.022127382457256317
1772614964550262300,3.13926220703125,0.008838633075356483,-0.004532081540673971,-0.018033644184470177
1772614964560329700,3.149329833984375,-0.0005141218425706029,-0.0037009092047810555,-0.01840515434741974
1772614964570398000,3.15939794921875,-0.012534687295556068,-0.0037471321411430836,-0.017363836988806725
1772614964580465000,3.16946484375,-0.011720025911927223,-0.005041162483394146,-0.011836444959044456
1772614964590532900,3.179532958984375,-0.007366439327597618,-0.005507477559149265,-0.011411353014409542
1772614964600599800,3.189599853515625,-0.004418053664267063,-0.009122985415160656,-0.009677635505795479
1772614964610667800,3.199667724609375,-0.003522306913509965,-0.014166980981826782,-0.010753650218248367
1772614964620734700,3.209734619140625,0.006999043747782707,-0.010431366041302681,-0.007398067973554134
1772614964630803000,3.219802978515625,0.008989756926894188,-0.01487511582672596,-0.007164242211729288
1772614964640871000,3.229870849609375,0.00885180477052927,-0.017674097791314125,-0.004481906071305275
1772614964650937900,3.239937744140625,-0.0011477917432785034,-0.012483015656471252,-0.0018148468807339668
1772614964661005800,3.250005859375,-0.006009658798575401,-0.009344479069113731,-0.0026894290931522846
1772614964671072800,3.26007275390625,-0.0047154659405350685,-0.008281677961349487,0.0001597665250301361
1772614964681140700,3.270140625,0.0021349831949919462,-0.007979941554367542,0.0018740431405603886
1772614964691207700,3.280207763671875,0.00928073562681675,-0.010134754702448845,0.011172300204634666
1772614964701276000,3.29027587890625,0.016775403171777725,-0.016580136492848396,0.015497541055083275
1772614964711343900,3.30034375,0.019886653870344162,-0.023007560521364212,0.017528757452964783
1772614964721410800,3.310410888671875,0.022549282759428024,-0.02455858513712883,0.013379818759858608
1772614964731478800,3.320478759765625,0.021519659087061882,-0.022051416337490082,0.01168009266257286
1772614964741545700,3.330545654296875,0.014783725142478943,-0.03155677020549774,0.005240835249423981
1772614964751614000,3.340614013671875,0.005646010395139456,-0.028881743550300598,-0.004431523382663727
1772614964761682000,3.350681884765625,0.0006850740173831582,-0.02088746428489685,-0.010749872773885727
1772614964771748900,3.360748779296875,-0.00014443846885114908,-0.019446145743131638,-0.017940988764166832
1772614964781816800,3.37081689453125,-0.0007100938819348812,-0.014903859235346317,-0.015186481177806854
1772614964791883800,3.3808837890625,-0.005247198976576328,-0.013427517376840115,-0.014111919328570366
1772614964801951700,3.39095166015625,0.004008350893855095,-0.015192127786576748,-0.01889708638191223
1772614964812019000,3.40101904296875,0.01385637279599905,-0.021598462015390396,-0.02202504314482212
1772614964822087000,3.4110869140625,0.028227588161826134,-0.03113577514886856,-0.028138061985373497
1772614964832154600,3.421154541015625,0.030253374949097633,-0.041105419397354126,-0.03665972128510475
1772614964842221800,3.431221923828125,0.02679366059601307,-0.04004441574215889,-0.0399031825363636
1772614964852289800,3.441289794921875,0.02317953109741211,-0.03527689352631569,-0.03699145466089249
1772614964862356700,3.451356689453125,0.018039096146821976,-0.03408805653452873,-0.024506820365786552
1772614964872425000,3.461425048828125,0.015094682574272156,-0.017119960859417915,-0.010630732402205467
1772614964882492000,3.471491943359375,0.0164390467107296,-0.010898815467953682,-0.0007117892382666469
1772614964892560000,3.481559814453125,0.015800971537828445,-0.012849107384681702,0.012376506812870502
1772614964902627600,3.491627685546875,0.0053243618458509445,-0.014355923980474472,0.009273124858736992
1772614964912694800,3.50169482421875,0.0017166462494060397,-0.011136388406157494,0.0022352610249072313
1772614964922762800,3.5117626953125,-0.0001334517728537321,-0.011021606624126434,-0.003772830357775092
1772614964932830000,3.521829833984375,0.0008818738861009479,-0.02047792635858059,-0.0035937028005719185
1772614964942898000,3.53189794921875,-0.0011951255146414042,-0.014369700103998184,0.00018505635671317577
1772614964952964900,3.54196484375,-0.00323655316606164,-0.01198919489979744,0.0003126561641693115
1772614964963032800,3.55203271484375,-0.004340699873864651,-0.014900029636919498,0.005998504348099232
1772614964973100500,3.5621005859375,-0.012544834055006504,-0.012762310914695263,0.006205964833498001
1772614964983167700,3.572167724609375,-0.013460961170494556,-0.01723162829875946,0.01267211977392435
1772614964993235700,3.582235595703125,-0.013586102984845638,-0.01144446711987257,0.01882079802453518
1772614965003303000,3.592302978515625,-0.007885606959462166,-0.013580054976046085,0.022159337997436523
1772614965013371000,3.602370849609375,-0.007233114913105965,-0.018404286354780197,0.020505905151367188
1772614965023438600,3.6124384765625,-0.0045662252232432365,-0.022850168868899345,0.014971057884395123
1772614965033505800,3.622505859375,-0.004821748472750187,-0.026658251881599426,0.01029437780380249
1772614965043573800,3.63257373046875,-0.0030914926901459694,-0.03082796186208725,-0.002184928860515356
1772614965053641000,3.642640869140625,0.0011340011842548847,-0.03390110284090042,-0.013531085103750229
1772614965063708700,3.652708740234375,-0.0027677961625158787,-0.03081769496202469,-0.014585696160793304
1772614965073775900,3.66277587890625,0.00013126141857355833,-0.029164806008338928,-0.019001508131623268
1772614965083843600,3.672843505859375,-0.00041335506830364466,-0.027280084788799286,-0.02050619386136532
1772614965093911600,3.68291162109375,-0.004247404634952545,-0.024463994428515434,-0.016168583184480667
1772614965103978800,3.692978759765625,-0.0006622569635510445,-0.025782790035009384,-0.012865996919572353
1772614965114046700,3.703046630859375,-0.0007483807276003063,-0.01995692402124405,-0.007515559904277325
1772614965124114000,3.713114013671875,-0.0014282857300713658,-0.015717972069978714,-0.006113672628998756
1772614965134181600,3.723181640625,-0.000008161761797964573,-0.012144245207309723,-0.003677778411656618
1772614965144248800,3.733248779296875,-0.001104318886063993,-0.014692091383039951,0.002102878876030445
1772614965154316500,3.743316650390625,-0.0054763490334153175,-0.011150520294904709,0.012147863395512104
1772614965164384800,3.753384765625,-0.00009649747516959906,-0.0017780570778995752,0.013373450376093388
1772614965174451700,3.76345166015625,-0.005790635943412781,-0.0018503961618989706,0.010832544416189194
1772614965184519700,3.773519775390625,-0.010070069693028927,-0.0010919279884546995,0.00894116796553135
1772614965194587000,3.7835869140625,-0.013213305734097958,-0.003515101969242096,0.0054220762103796005
1772614965204654600,3.793654541015625,-0.008939465507864952,-0.0036818156950175762,0.0034257706720381975
1772614965214721800,3.8037216796875,-0.007206186652183533,-0.0062455106526613235,0.0017492265906184912
1772614965224789800,3.813789794921875,-0.008301811292767525,-0.008611463010311127,0.001641901209950447
1772614965234857700,3.823857666015625,-0.011406553909182549,-0.006907687522470951,0.00023871660232543945
1772614965244924700,3.833924560546875,-0.006731109227985144,-0.006345493718981743,0.0023719086311757565
1772614965254992600,3.84399267578125,-0.00657502468675375,-0.007148738019168377,0.0073278313502669334
1772614965265059600,3.8540595703125,-0.010387606918811798,-0.006432879716157913,0.011060518212616444
1772614965275127600,3.86412744140625,-0.0131817776709795,-0.0016420353204011917,0.012764531187713146
1772614965285194800,3.87419482421875,-0.01654135435819626,0.0031753568910062313,0.013880128972232342
1772614965295262700,3.8842626953125,-0.015256852842867374,0.0015490996884182096,0.010030555538833141
1772614965305330700,3.89433056640625,-0.01803000271320343,0.004094016272574663,0.004213413223624229
1772614965315397600,3.904397705078125,-0.016111236065626144,0.007392558269202709,-0.0012710043229162693
1772614965325465600,3.914465576171875,-0.015102962963283062,0.012233385816216469,-0.0043791793286800385
1772614965335532500,3.924532470703125,-0.013272286392748356,0.0057771699503064156,-0.0026402813382446766
1772614965345600800,3.934600830078125,-0.008288446813821793,0.00399871077388525,0.004778486676514149
1772614965355667700,3.944667724609375,-0.00449049286544323,0.0032688246574252844,0.008716622367501259
1772614965365735700,3.954735595703125,-0.004170115105807781,0.0031740162521600723,0.014403268694877625
1772614965375803600,3.9648037109375,-0.007485319394618273,0.012041356414556503,0.010393956676125526
1772614965385870600,3.97487060546875,-0.011070732958614826,0.009454095736145973,0.009973442181944847
1772614965395938800,3.984938720703125,-0.012535716407001019,0.009726502001285553,0.011654744856059551
1772614965406005800,3.995005859375,-0.010070960968732834,0.006804214790463448,0.0094786761328578
1772614965416073700,4.00507373046875,-0.004273096099495888,0.006362597923725843,0.007073454093188047
1772614965426141700,4.0151416015625,0.0017954489449039102,0.005924507975578308,0.008453503251075745
1772614965436208600,4.025208740234375,0.0016741401050239801,0.0033209132961928844,0.006399498786777258
1772614965446276600,4.035276611328125,0.0064609055407345295,0.0005317847244441509,0.0017213898245245218
1772614965456343600,4.045343505859375,0.008235329762101173,-0.0008094329386949539,-0.0010266300523653626
1772614965466411800,4.055411865234375,0.00749337300658226,0.0011218914296478033,-0.00639183446764946
1772614965476478700,4.065478759765625,0.007076501380652189,0.0005525255110114813,-0.007441380992531776
1772614965486546700,4.075546630859375,0.005074603017419577,-0.004362071864306927,-0.005144137889146805
1772614965496614700,4.08561474609375,0.0046476759016513824,-0.004559644497931004,-0.0017840748187154531
1772614965506681600,4.095681640625,0.002466812962666154,-0.004292795434594154,-0.004120998550206423
1772614965516749800,4.105749755859375,-0.0006372232455760241,0.001977999694645405,-0.003658916335552931
1772614965526816800,4.115816650390625,-0.007809115573763847,0.0062875268049538136,-0.002865560818463564
1772614965536884700,4.125884765625,-0.001293895416893065,0.012282317504286766,-0.0016972817247733474
1772614965546951700,4.13595166015625,0.014786004088819027,0.008789049461483955,-0.0023470930755138397
1772614965557020400,4.1460205078125,0.021670792251825333,-0.002822949318215251,-0.002923525869846344
1772614965567088400,4.15608837890625,0.02519921213388443,-0.0009137287270277739,-0.006892701145261526
1772614965577155300,4.1661552734375,0.018298422917723656,-0.005465365014970303,0.0004844055511057377
1772614965587223300,4.176223388671875,0.007892919704318047,-0.005876556970179081,0.004088461399078369
1772614965597290200,4.186290283203125,-0.005475165322422981,0.005754698999226093,0.008103104308247566
1772614965607358500,4.1963583984375,-0.006089556962251663,0.012934048660099506,0.010517260059714317
1772614965617425400,4.20642529296875,-0.0010926180984824896,0.016084911301732063,0.012490680441260338
1772614965627493400,4.216493408203125,0.0024246186949312687,0.02135690487921238,0.01201770268380642
1772614965637561300,4.226561279296875,-0.0002798084169626236,0.016718681901693344,0.010000025853514671
1772614965647628300,4.236628173828125,-0.00298850960098207,0.017568496987223625,0.007627948187291622
1772614965657696500,4.246696533203125,-0.0004614786012098193,0.009184936061501503,0.0027808963786810637
1772614965667763500,4.256763427734375,-0.000463342759758234,0.006115110125392675,0.006760990247130394
1772614965677831400,4.26683154296875,-0.005349357146769762,0.008310746401548386,0.013345849700272083
1772614965687899400,4.2768994140625,-0.006640457548201084,0.009612232446670532,0.01673205941915512
1772614965697966300,4.28696630859375,-0.01237899623811245,0.0069800144992768764,0.010963289067149162
1772614965708034300,4.297034423828125,-0.015883449465036392,0.012777449563145638,0.006900903768837452
1772614965718101200,4.307101318359375,-0.014005349017679691,0.01189439557492733,0.003830714849755168
1772614965728169500,4.31716943359375,-0.012721438892185688,0.00846664048731327,-0.0012055891565978527
1772614965738236400,4.327236328125,-0.01565955951809883,0.0011683644261211157,0.00764038972556591
1772614965748304400,4.337304443359375,-0.020602919161319733,0.0008069735486060381,0.007948784157633781
1772614965758372400,4.347372314453125,-0.02053302712738514,0.004780679941177368,0.01149909570813179
1772614965768439300,4.357439208984375,-0.01716146431863308,0.008922161534428596,0.01794181391596794
1772614965778507500,4.367507568359375,-0.014802642166614532,0.01169358380138874,0.020190609619021416
1772614965788574500,4.377574462890625,-0.010488320142030716,0.01090608723461628,0.014296235516667366
1772614965798642400,4.387642333984375,-0.007123207673430443,0.011233133263885975,0.01095387153327465
1772614965808709400,4.39770947265625,-0.007649181876331568,0.00748420087620616,0.00619666650891304
1772614965818777300,4.40777734375,-0.007582336198538542,0.010798238217830658,-0.0006476568523794413
1772614965828845300,4.41784521484375,-0.003309560939669609,0.011271215975284576,-0.003980603069067001
1772614965838912500,4.42791259765625,0.0011288000969216228,0.007415476255118847,-0.003031935077160597
1772614965848980500,4.43798046875,0.002892611548304558,0.007165671791881323,-0.0004348205402493477
1772614965859047400,4.44804736328125,-0.0009316689101979136,0.008890952914953232,0.0015208597760647535
1772614965869115400,4.458115478515625,-0.002386820036917925,0.008787089958786964,0.0010678560938686132
1772614965879182300,4.468182373046875,-0.003154957201331854,0.010812855325639248,0.0057541485875844955
1772614965889250300,4.478250244140625,-0.0072628832422196865,0.015449685044586658,0.008826637640595436
1772614965899318500,4.488318603515625,-0.009292028844356537,0.02071397751569748,0.013641897588968277
1772614965909385500,4.498385498046875,-0.007273086346685886,0.020748065784573555,0.011422418989241123
1772614965919453400,4.508453369140625,-0.0032631629146635532,0.01848159357905388,0.01607169397175312
1772614965929520400,4.518520263671875,0.004407805856317282,0.010896111838519573,0.012377889826893806
1772614965939588400,4.52858837890625,0.014543079771101475,0.007838637568056583,0.0071349972859025
1772614965949656600,4.538656494140625,0.01574230194091797,0.00441967137157917,-0.0009863123996183276
1772614965959723500,4.5487236328125,0.008882454596459866,0.006977950222790241,-0.011129375547170639
1772614965969791500,4.55879150390625,0.0051508331671357155,0.004952882416546345,-0.01907598227262497
1772614965979858400,4.5688583984375,0.004657876677811146,0.0014986153692007065,-0.01581699587404728
1772614965989926400,4.578926513671875,-0.0042368145659565926,0.004569239914417267,-0.012747703120112419
1772614965999993300,4.588993408203125,-0.00824835617095232,0.011067388579249382,-0.0060962410643696785
1772614966010061300,4.599061279296875,-0.011867059394717216,0.01093582808971405,-0.0024692818988114595
1772614966020129500,4.609129638671875,-0.0075440313667058945,0.008289877325296402,0.003978691063821316
1772614966030196500,4.619196533203125,-0.008963230066001415,0.0049044666811823845,0.005472192075103521
1772614966040264400,4.629264404296875,-0.0055832639336586,0.007755909580737352,0.009193109348416328
1772614966050331400,4.639331298828125,0.00041337613947689533,0.0007528611458837986,0.009847714565694332
1772614966060399400,4.6493994140625,0.00564627954736352,-0.007483096327632666,0.013257652521133423
1772614966070466300,4.65946630859375,0.003675274085253477,-0.007652739528566599,0.011996112763881683
1772614966080534500,4.669534423828125,-0.0005529861664399505,0.004728612955659628,0.008210865780711174
1772614966090602500,4.6796025390625,-0.013521782122552395,0.00618749251589179,0.004245418589562178
1772614966100669400,4.68966943359375,-0.017806310206651688,0.008122109808027744,0.0030219811014831066
1772614966110737400,4.6997373046875,-0.015914134681224823,0.011933625675737858,-0.00247158738784492
1772614966120804400,4.709804443359375,-0.009093761444091797,0.007007128559052944,-0.00573303597047925
1772614966130872600,4.71987255859375,-0.0027826023288071156,0.0025588509161025286,-0.008253185078501701
1772614966140939500,4.729939453125,0.0013456272426992655,-0.0032071431633085012,-0.00933634303510189
1772614966151007500,4.740007568359375,0.005772333592176437,-0.012974552810192108,-0.014478906989097595
1772614966161075500,4.750075439453125,0.012063884176313877,-0.011445713229477406,-0.01309120375663042
1772614966171142400,4.760142333984375,0.008819621056318283,-0.011361557990312576,-0.011747105978429317
1772614966181210400,4.77021044921875,-0.0012502643512561917,-0.0039804717525839806,-0.003641217714175582
1772614966191277300,4.78027734375,-0.0066911024041473866,0.0013117622584104538,0.00397542305290699
1772614966201345500,4.790345458984375,-0.0016777832061052322,0.0011196474079042673,0.009775981307029724
1772614966211413500,4.80041357421875,0.005396105349063873,0.00200861063785851,0.003250970272347331
1772614966221480400,4.81048046875,0.008414085023105145,0.0005723489448428154,-0.0008929109899327159
1772614966231548400,4.82054833984375,0.007783448323607445,-0.005183541215956211,-0.00568953063338995
1772614966241615400,4.830615478515625,0.00891170371323824,-0.00943610817193985,-0.009333433583378792
1772614966251683600,4.84068359375,0.011271797120571136,-0.001653286162763834,-0.012948941439390182
1772614966261750500,4.85075048828125,0.0156534556299448,0.002259646076709032,-0.011591166257858276
1772614966271818500,4.860818603515625,0.015412705019116402,0.002501194830983877,-0.011919001117348671
1772614966281886500,4.870886474609375,0.00861081201583147,0.007564644329249859,-0.011902758851647377
1772614966291953400,4.880953369140625,0.0032930118031799793,0.010984143242239952,-0.015613339841365814
1772614966302021400,4.891021484375,0.007505491841584444,0.00400378555059433,-0.027330229058861732
1772614966312088600,4.901088623046875,0.0025229835882782936,0.004917782731354237,-0.03421583026647568
1772614966322156500,4.911156494140625,-0.0036755604669451714,0.003555938368663192,-0.03430582582950592
1772614966332223500,4.921223388671875,-0.005449225660413504,0.0056188227608799934,-0.02039160765707493
1772614966342291500,4.93129150390625,-0.010594388470053673,0.009451127611100674,-0.002539690351113677
1772614966352359200,4.941359130859375,-0.012639163993299007,0.013745741918683052,0.026678649708628654
1772614966362426400,4.95142626953125,-0.010813404805958271,0.016961975023150444,0.046541716903448105
1772614966372494300,4.961494384765625,-0.0054625822231173515,0.019811023026704788,0.06124129891395569
1772614966382561500,4.9715615234375,0.001670076628215611,0.022504299879074097,0.06323094666004181
1772614966392629500,4.98162939453125,0.0047737243585288525,0.021052341908216476,0.05414238199591637
1772614966402696400,4.991696533203125,-0.004445913713425398,0.0189121775329113,0.03779838979244232
1772614966412764400,5.001764404296875,-0.012551244348287582,0.014025541953742504,0.02172035537660122
1772614966422832400,5.011832275390625,-0.017025146633386612,0.005688381381332874,0.007139788940548897
1772614966432899600,5.021899658203125,-0.020076066255569458,0.0009591400157660246,-0.01113402284681797
1772614966442967300,5.03196728515625,-0.017163196578621864,0.0020654993131756783,-0.024360544979572296
1772614966453034500,5.042034423828125,-0.01033831387758255,0.007398745510727167,-0.029516423121094704
1772614966463102500,5.0521025390625,-0.008441940881311893,0.005500162020325661,-0.032283131033182144
1772614966473170200,5.062170166015625,-0.003340123686939478,0.009081580676138401,-0.028276139870285988
1772614966483237400,5.0722373046875,0.003003115067258477,0.012936923652887344,-0.020010508596897125
1772614966493305300,5.082305419921875,0.004757605493068695,0.010000521317124367,-0.010731789283454418
1772614966503372500,5.09237255859375,0.00394783541560173,0.00813768059015274,0.007999022491276264
1772614966513440300,5.102440185546875,-0.007802031468600035,0.007184801623225212,0.016151757910847664
1772614966523507500,5.112507568359375,-0.005005809478461742,0.008839916437864304,0.012383916415274143
1772614966533575400,5.122575439453125,-0.0017647423082962632,0.014278357848525047,0.018030351027846336
1772614966543643400,5.132643310546875,0.001402920694090426,0.012671058066189289,0.016938384622335434
1772614966553710000,5.1427099609375,0.014153337106108665,0.01006408967077732,0.01158436480909586
1772614966563778000,5.152778076171875,0.018261181190609932,0.014799090102314949,0.0032789576798677444
1772614966573845000,5.162844970703125,0.0181349478662014,0.02136511355638504,-0.0076882061548531055
1772614966583913000,5.172912841796875,0.015573332086205482,0.01514232624322176,-0.011479870416224003
1772614966593980200,5.182980224609375,0.015106214210391045,0.003068086924031377,-0.015849318355321884
1772614966604048100,5.193048095703125,0.020117688924074173,0.0043510617688298225,-0.02154690772294998
1772614966614115800,5.20311572265625,0.01962260715663433,0.007370553910732269,-0.019933830946683884
1772614966624183000,5.21318310546875,0.01788347028195858,0.002082543447613716,-0.00988386757671833
1772614966634250800,5.223250732421875,0.008160268887877464,0.003102001501247287,-0.0027223608922213316
1772614966644318000,5.23331787109375,0.0063812946900725365,0.012672687880694866,0.005714657716453075
1772614966654386000,5.243385986328125,0.0010717499535530806,0.01934869959950447,0.006290699355304241
1772614966664454000,5.253453857421875,-0.005245863925665617,0.01834866777062416,0.0073504215106368065
1772614966674521000,5.26352099609375,-0.004417887423187494,0.013458038680255413,0.011691374704241753
1772614966684588800,5.2735888671875,-0.002919471124187112,0.013321302831172943,0.01143355667591095
1772614966694656000,5.283656005859375,0.00529744615778327,0.007420003414154053,0.010940605774521828
1772614966704724000,5.293723876953125,0.012369499541819096,0.006087205372750759,0.006072313990443945
1772614966714791200,5.303791259765625,0.018131781369447708,0.002070625778287649,0.0053689731284976006
1772614966724859000,5.31385888671875,0.023407353088259697,-0.005026163533329964,0.0008299383334815502
1772614966734926800,5.3239267578125,0.01595982350409031,-0.009473642334342003,0.0007686857134103775
1772614966744994000,5.333994140625,0.006918080151081085,-0.005673508159816265,-0.0068475184962153435
1772614966755061800,5.344061767578125,-0.008472860790789127,-0.004604249261319637,-0.008062985725700855
1772614966765129000,5.35412890625,-0.01658851094543934,-0.0027302871458232403,-0.007117420434951782
1772614966775197000,5.364197021484375,-0.018378155305981636,-0.0026511913165450096,-0.0047072600573301315
1772614966785264000,5.37426416015625,-0.009920858778059483,-0.008606085553765297,-0.0004207554738968611
1772614966795331800,5.384331787109375,-0.004779359325766563,-0.005292047746479511,0.003515929216518998
1772614966805399800,5.39439990234375,-0.000013081938959658146,-0.007490934804081917,0.00451420433819294
1772614966815467000,5.404467041015625,0.004408298060297966,-0.01006328221410513,0.0061858706176280975
1772614966825535000,5.414534912109375,0.009963512420654297,-0.006737761199474335,0.01031873095780611
1772614966835602000,5.424601806640625,0.015791574493050575,-0.011702959425747395,0.008687011897563934
1772614966845670000,5.434669921875,0.014530034735798836,-0.011726128868758678,0.0043830773793160915
1772614966855737900,5.44473779296875,0.005386071279644966,-0.011836117133498192,-0.0013818673323839903
1772614966865804800,5.4548046875,-0.010646077804267406,-0.005692371167242527,-0.002126413630321622
1772614966875872800,5.464872802734375,-0.0192885659635067,-0.005171190947294235,-0.002287268405780196
1772614966885940000,5.47493994140625,-0.017218289896845818,-0.005295309703797102,-0.00026028661523014307
1772614966896008000,5.485008056640625,-0.0017069743480533361,-0.0002070737536996603,-0.0007367262151092291
1772614966906075000,5.495074951171875,0.008471586741507053,0.0010064784437417984,-0.00284239137545228
1772614966916142800,5.505142822265625,0.011480159126222134,-0.007471428718417883,-0.0025137572083622217
1772614966926210800,5.5152109375,0.006537025328725576,-0.01643088459968567,0.001539936987683177
1772614966936277800,5.52527783203125,0.009081143885850906,-0.015855908393859863,0.0036813849583268166
1772614966946346000,5.535345947265625,0.011768742464482784,-0.017293766140937805,0.0018313361797481775
1772614966956413000,5.545412841796875,0.011428124271333218,-0.012280629947781563,0.0030721027869731188
1772614966966481000,5.55548095703125,0.005901005119085312,-0.0067171393893659115,0.0027673605363816023
1772614966976547800,5.5655478515625,0.0013469994300976396,-0.0067349825985729694,0.0007926265243440866
1772614966986615800,5.57561572265625,-0.0011296593584120274,0.004449595231562853,0.0014395820908248425
1772614966996684000,5.58568408203125,-0.002271889243274927,0.006527393124997616,-0.004654795862734318
1772614967006751000,5.5957509765625,-0.005643676966428757,0.004084791988134384,-0.0062527889385819435
1772614967016819000,5.60581884765625,-0.0013847497757524252,0.001192599069327116,-0.006583021022379398
1772614967026886000,5.615885986328125,0.0012974163983017206,0.00009701424278318882,-0.0035028071142733097
1772614967036953900,5.625953857421875,0.015191394835710526,-0.005460469983518124,0.000008304370567202568
1772614967047021800,5.636021728515625,0.029041599482297897,-0.014847087673842907,-0.004753163084387779
1772614967057088800,5.6460888671875,0.03174816817045212,-0.016850316897034645,-0.007910074666142464
1772614967067157000,5.656156982421875,0.024348184466362,-0.013392766006290913,-0.015009162947535515
1772614967077224000,5.666223876953125,0.021968383342027664,-0.007029942236840725,-0.015541261993348598
1772614967087292000,5.6762919921875,0.011967572383582592,-0.006784251891076565,-0.014218874275684357
1772614967097358800,5.68635888671875,0.0012997486628592014,0.003057193709537387,-0.005478645674884319
1772614967107426800,5.6964267578125,-0.006061880849301815,0.014853956177830696,0.009770993143320084
1772614967117495000,5.7064951171875,-0.006264280993491411,0.01385846734046936,0.019593529403209686
1772614967127562000,5.71656201171875,-0.0031239609234035015,0.013937341049313545,0.026095228269696236
1772614967137630000,5.7266298828125,0.0027698806952685118,0.010374298319220543,0.02017209120094776
1772614967147697000,5.73669677734375,0.0026300624012947083,0.00612694351002574,0.014229051768779755
1772614967157766000,5.746765869140625,0.001340293325483799,-0.0005866191349923611,0.0030554935801774263
1772614967167832800,5.756832763671875,0.0009965632343664765,-0.004601088352501392,0.0004943325184285641
1772614967177901000,5.766901123046875,-0.00047430070117115974,-0.004712941125035286,-0.006328419782221317
1772614967187969000,5.776968994140625,-0.0010810045059770346,-0.0022124024108052254,-0.006073269061744213
1772614967198036000,5.787035888671875,0.001649268320761621,0.008097759447991848,-0.0010729177156463265
1772614967208104000,5.79710400390625,-0.0047394344583153725,0.011986842378973961,-0.0009284011321142316
1772614967218171000,5.8071708984375,-0.006445721723139286,0.00816440675407648,0.0029073497280478477
1772614967228239000,5.817239013671875,-0.0036830399185419083,0.0012089291121810675,-0.0022110522259026766
1772614967238306000,5.82730615234375,-0.0016870007384568453,0.006303556263446808,-0.008560294285416603
1772614967248374000,5.8373740234375,0.0018167949747294188,0.0011372596491128206,-0.009579922072589397
1772614967258442000,5.84744189453125,0.00514228455722332,0.0004115481860935688,-0.004962799604982138
1772614967268509000,5.857509033203125,0.004169493913650513,0.002689364831894636,0.004821339622139931
1772614967278577000,5.867576904296875,0.007702176459133625,0.00817627552896738,0.008209946565330029
1772614967288644000,5.87764404296875,0.014440611004829407,0.007544639520347118,0.01468021608889103
1772614967298712000,5.887712158203125,0.011971061117947102,0.0058838920667767525,0.01149401068687439
1772614967308779000,5.897779052734375,0.003703573253005743,0.007598016411066055,0.010192224755883217
1772614967318847000,5.907846923828125,0.0012851570500060916,0.0051684146746993065,0.0015582561027258635
1772614967328915000,5.9179150390625,0.006454670801758766,0.005416074767708778,-0.004408450331538916
1772614967338982000,5.92798193359375,0.018381904810667038,0.008359400555491447,-0.00950147956609726
1772614967349050000,5.938050048828125,0.02503485605120659,0.0036695213057100773,-0.007303796708583832
1772614967359117000,5.948116943359375,0.02456374280154705,-0.008474227041006088,-0.0009300534147769213
1772614967369185000,5.95818505859375,0.019087526947259903,-0.005248290486633778,0.001345254946500063
1772614967379253000,5.9682529296875,0.011341189034283161,-0.003408578457310796,0.010551802814006805
1772614967389320000,5.97831982421875,0.002606484806165099,-0.008087382651865482,0.010377226397395134
1772614967399388200,5.98838818359375,-0.004204017110168934,-0.006157922558486462,0.01056098472326994
1772614967409455000,5.998455078125,-0.00746740959584713,-0.0027853643987327814,0.004433411173522472
1772614967419523000,6.008523193359375,-0.006944631226360798,-0.0030247827526181936,-0.006560916546732187
1772614967429590000,6.018590087890625,-0.010364747606217861,-0.004259405191987753,-0.006438940763473511
1772614967439658000,6.028657958984375,-0.006939923390746117,0.0049703121185302734,-0.004613876808434725
1772614967449726000,6.038725830078125,-0.0043539078906178474,0.007777265273034573,0.0022458904422819614
1772614967459793000,6.04879296875,-0.002604743931442499,0.003534050425514579,0.009299805387854576
1772614967469861000,6.058861083984375,0.002685866318643093,-0.0012237983755767345,0.014371289871633053
1772614967479928000,6.068927978515625,0.0036224997602403164,-0.0028280862607061863,0.016761211678385735
1772614967489996000,6.07899609375,0.0013642290141433477,-0.006836549378931522,0.00901639461517334
1772614967500063000,6.08906298828125,-0.006849758792668581,-0.005261821672320366,0.007039529737085104
1772614967510131000,6.099130859375,-0.009910657070577145,-0.007518083788454533,0.008900115266442299
1772614967520199200,6.10919921875,-0.006930047180503607,-0.00904087908565998,0.007488373667001724
1772614967530266000,6.11926611328125,-0.006893562152981758,-0.003626672551035881,0.008134456351399422
1772614967540334000,6.129333984375,-0.003443170338869095,0.0005398427601903677,0.00929559487849474
1772614967550401000,6.139401123046875,-0.0010312842205166817,-0.0003959604073315859,0.01003318838775158
1772614967560468700,6.14946875,0.0003889794461429119,-0.006202716380357742,0.009650759398937225
1772614967570537000,6.159536865234375,0.0032098351512104273,-0.006151415407657623,0.011160751804709435
1772614967580604000,6.16960400390625,0.00878915749490261,-0.012007973156869411,0.008635543286800385
1772614967590672000,6.179671875,0.013472940772771835,-0.018721435219049454,0.009676112793385983
1772614967600738800,6.18973876953125,0.0069713653065264225,-0.015794355422258377,0.008709652349352837
1772614967610806800,6.199806884765625,0.0017948457971215248,-0.013452989980578423,0.004448414780199528
1772614967620873700,6.209873779296875,-0.004939489532262087,-0.011724332347512245,0.0038017991464585066
1772614967630942000,6.21994189453125,-0.009402930736541748,-0.0006071492098271847,0.00611168472096324
1772614967641010000,6.230010009765625,-0.00863061472773552,0.0002250887919217348,0.01015383005142212
1772614967651076900,6.240076904296875,-0.004635525401681662,-0.002567401621490717,0.010081732645630836
1772614967661144800,6.250144775390625,-0.00217396579682827,-0.008459379896521568,0.011439944617450237
1772614967671211800,6.260211669921875,0.0026619406417012215,-0.008520449511706829,0.011452804319560528
1772614967681279700,6.27027978515625,0.006451885681599379,-0.015145860612392426,0.00938965380191803
1772614967691347700,6.28034765625,0.010847536846995354,-0.018329020589590073,0.0016842070035636425
1772614967701415000,6.290414794921875,0.011026500724256039,-0.019842227920889854,-0.0034240023232996464
1772614967711483000,6.30048291015625,0.010299595072865486,-0.01654025912284851,-0.007611209526658058
1772614967721549800,6.3105498046875,0.009196513332426548,-0.011500493623316288,-0.009534544311463833
1772614967731617800,6.32061767578125,0.0009069994557648897,-0.0019068694673478603,-0.0038709277287125587
1772614967741684700,6.330684814453125,-0.004695758689194918,-0.001471176277846098,0.00039252685382962227
1772614967751753000,6.3407529296875,-0.00498613528907299,-0.0027713673189282417,0.008114618249237537
1772614967761820700,6.350820556640625,0.001081610913388431,-0.004881123546510935,0.008147108368575573
1772614967771887900,6.360887939453125,0.009112268686294556,-0.004720867611467838,0.005774380639195442
1772614967781955800,6.370955810546875,0.011446262709796429,-0.013709302060306072,0.0013343582395464182
1772614967792022800,6.381022705078125,0.01279069110751152,-0.01646193116903305,0.006719750352203846
1772614967802090800,6.3910908203125,0.009951494634151459,-0.01778552122414112,0.00444035092368722
1772614967812158700,6.40115869140625,0.008148301392793655,-0.01390752475708723,0.010705421678721905
1772614967822226000,6.411225830078125,0.006309389136731625,-0.006994224153459072,0.01506874430924654
1772614967832293600,6.421293701171875,-0.0001663706498220563,-0.0032746712677180767,0.01732218824326992
1772614967842360800,6.43136083984375,0.001155622536316514,0.00301651400513947,0.016985563561320305
1772614967852428800,6.4414287109375,0.003307973500341177,0.00243266555480659,0.013346760533750057
1772614967862495700,6.451495849609375,-0.0009506874484941363,0.0029522483237087727,0.01075044460594654
1772614967872563700,6.461563720703125,-0.006302269641309977,0.0019743856973946095,0.006987834349274635
1772614967882631700,6.471631591796875,-0.010110589675605297,0.0019133992027491331,0.010336759500205517
1772614967892699000,6.481698974609375,-0.007230695337057114,0.001656205509789288,0.009851709008216858
1772614967902766600,6.4917666015625,-0.0047800540924072266,0.0011432806495577097,0.013311421498656273
1772614967912833800,6.501833740234375,-0.004142355173826218,-0.0008027746807783842,0.008266940712928772
1772614967922901800,6.51190185546875,-0.009899843484163284,0.0032473604660481215,0.0027563273906707764
1772614967932969000,6.521968994140625,-0.010522193275392056,0.0057200053706765175,0.004295623395591974
1772614967943036700,6.53203662109375,-0.008504848927259445,0.003340204479172826,0.002290796022862196
1772614967953104600,6.542104736328125,-0.00759704178199172,0.011900653131306171,0.004692486021667719
1772614967963171800,6.552171875,-0.007716084830462933,0.012111575342714787,0.007245125714689493
1772614967973239600,6.562239501953125,-0.01403969619423151,0.013117467984557152,0.012267796322703362
1772614967983306800,6.572306640625,-0.022081643342971802,0.015355322510004044,0.014874499291181564
1772614967993374700,6.582374755859375,-0.020851491019129753,0.01713649369776249,0.017355402931571007
1772614968003442700,6.592442626953125,-0.011222298257052898,0.0138626703992486,0.021665196865797043
1772614968013509600,6.602509521484375,-0.0027357307262718678,0.011855147778987885,0.018439145758748055
1772614968023577600,6.61257763671875,0.006248975172638893,0.0042952317744493484,0.015376510098576546
1772614968033644800,6.622644775390625,0.011025096289813519,0.006049604620784521,0.008490560576319695
1772614968043712800,6.632712646484375,0.014542332850396633,0.005448795855045319,-0.00013568461872637272
1772614968053780000,6.642780029296875,0.01398724876344204,0.004220179282128811,-0.00673267524689436
1772614968063847700,6.65284765625,0.0036270199343562126,0.006854844279587269,-0.010785473510622978
1772614968073915600,6.66291552734375,-0.004072614014148712,0.009256133809685707,-0.011549601331353188
1772614968083982600,6.672982666015625,-0.00614881468936801,0.012159778736531734,-0.01475072093307972
1772614968094050600,6.683050537109375,-0.007536337710916996,0.012665961869060993,-0.011144393123686314
1772614968104117800,6.69311767578125,-0.006497971247881651,0.01664019748568535,-0.0023535650689154863
1772614968114185700,6.703185791015625,-0.003077274188399315,0.013873792253434658,0.0036499120760709047
1772614968124253700,6.713253662109375,0.0025483868084847927,0.016671709716320038,0.010841778479516506
1772614968134320600,6.723320556640625,0.007499805185943842,0.013340789824724197,0.01099531538784504
1772614968144388600,6.733388671875,0.008040159940719604,0.005298843141645193,0.00466871028766036
1772614968154455600,6.74345556640625,0.006861776113510132,0.0012846768368035555,-0.004810864105820656
1772614968164523800,6.753523681640625,-0.0015298443613573909,0.0013978612842038274,-0.007052446715533733
1772614968174590700,6.7635908203125,-0.0065172165632247925,0.002725549042224884,-0.011629224754869938
1772614968184658700,6.77365869140625,-0.00944882445037365,0.0046986849047243595,-0.011384746991097927
1772614968194726700,6.7837265625,-0.007816276513040066,0.014547435566782951,-0.009276355616748333
1772614968204793600,6.793793701171875,-0.0041951765306293964,0.018855631351470947,-0.014224509708583355
1772614968214861800,6.80386181640625,0.0024881591089069843,0.018743865191936493,-0.016021430492401123
1772614968224928800,6.8139287109375,0.004188853781670332,0.015812788158655167,-0.012083946727216244
1772614968234996700,6.823996826171875,0.001014266163110733,0.012214673683047295,-0.008746402338147163
1772614968245063700,6.834063720703125,-0.003245726227760315,0.0017452551983296871,-0.004771368578076363
1772614968255131600,6.844131591796875,-0.005938360467553139,-0.00022496911697089672,0.003605065867304802
1772614968265199600,6.85419970703125,-0.005731166806071997,0.006317352410405874,0.006598991807550192
1772614968275266600,6.8642666015625,-0.004861514549702406,0.007398628629744053,0.01178219635039568
1772614968285334800,6.874334716796875,-0.006664208136498928,0.015355887822806835,0.013597406446933746
1772614968295401700,6.884401611328125,-0.00590570829808712,0.019633622840046883,0.007476384751498699
1772614968305469700,6.8944697265625,-0.0011003006948158145,0.012743493542075157,0.0041098827496171
1772614968315537700,6.90453759765625,-0.003631988540291786,0.007189223542809486,-0.0017874164041131735
1772614968325604600,6.9146044921875,-0.0019925464875996113,-0.0010977350175380707,-0.006134760566055775
1772614968335672800,6.9246728515625,-0.004693970084190369,-0.003571030916646123,-0.01576795056462288
1772614968345739800,6.93473974609375,0.003830808214843273,-0.01160845160484314,-0.021298272535204887
1772614968355807700,6.944807861328125,0.008186791092157364,-0.012823916040360928,-0.014938056468963623
1772614968365874700,6.954874755859375,0.006110590882599354,-0.005499689839780331,-0.008592275902628899
1772614968375942700,6.964942626953125,0.003871571971103549,0.001628875033929944,-0.0063410354778170586
1772614968386010600,6.9750107421875,0.0012233243323862553,0.0005622790195047855,0.0025336823891848326
1772614968396077800,6.985077880859375,0.0038775349967181683,-0.0032899174839258194,0.012014389038085938
1772614968406145800,6.995145751953125,0.001892947475425899,-0.0035130903124809265,0.008107531815767288
1772614968416212700,7.005212646484375,0.0017016110941767693,-0.006279199384152889,0.0010246103629469872
1772614968426280700,7.01528076171875,0.0012472758535295725,-0.004869588650763035,-0.004056700970977545
1772614968436347600,7.02534765625,0.00040766200982034206,-0.0021400146652013063,-0.012548914179205894
1772614968446415600,7.03541552734375,0.0017328509129583836,0.0015969331143423915,-0.019907761365175247
1772614968456483800,7.04548388671875,0.0008009704761207104,0.0023252577520906925,-0.01572463847696781
1772614968466550800,7.05555078125,0.006148864049464464,0.007459033280611038,-0.006396384444087744
1772614968476618800,7.06561865234375,0.013264492154121399,0.008149374276399612,0.007142436690628529
1772614968486685700,7.075685791015625,0.01694604754447937,0.0064524076879024506,0.02480345591902733
1772614968496753700,7.085753662109375,0.01848834753036499,0.0028613251633942127,0.030410515144467354
1772614968506822000,7.09582177734375,0.016533587127923965,-0.004458905663341284,0.023202402517199516
1772614968516888800,7.105888916015625,0.009537704288959503,-0.009242882020771503,0.005884263664484024
1772614968526956800,7.115956787109375,0.01054118387401104,-0.006910485215485096,-0.01778511144220829
1772614968537023700,7.126023681640625,0.010164935141801834,-0.006891709752380848,-0.0326809398829937
1772614968547091700,7.136091796875,0.0051752361468970776,-0.009970057755708694,-0.032489992678165436
1772614968557158700,7.14615869140625,-0.0020224552135914564,-0.007847617380321026,-0.025309327989816666
1772614968567226600,7.1562265625,0.0008606830378994346,-0.0019844016060233116,-0.017306262627243996
1772614968577294600,7.166294677734375,-0.0032066754065454006,0.008078334853053093,-0.006269062869250774
1772614968587361500,7.176361572265625,-0.001598925213329494,0.005948604550212622,0.0019297448452562094
1772614968597429500,7.186429443359375,0.0002976816613227129,-0.003378767753019929,0.009539793245494366
1772614968607496700,7.19649658203125,-0.002647241810336709,-0.00695699080824852,0.008495301008224487
1772614968617564700,7.206564697265625,-0.008490432053804398,-0.00678741279989481,0.004373343661427498
1772614968627632600,7.216632568359375,-0.00871973019093275,-0.004433977417647839,0.008664495311677456
1772614968637699600,7.226699462890625,-0.007853963412344456,-0.0016903569921851158,0.013320991769433022
1772614968647767600,7.236767578125,-0.011022591963410378,-0.0022916984744369984,0.01746140792965889
1772614968657834500,7.24683447265625,-0.010775556787848473,0.0030598570592701435,0.015867123380303383
1772614968667902700,7.25690283203125,-0.015042739920318127,0.004281449131667614,0.005174797959625721
1772614968677969700,7.2669697265625,-0.017694950103759766,-0.0017323344945907593,-0.008907478302717209
1772614968688037600,7.27703759765625,-0.013647211715579033,0.000026416964828968048,-0.020756149664521217
1772614968698105600,7.287105712890625,-0.008961500599980354,0.0008489175233989954,-0.021239491179585457
1772614968708172500,7.297172607421875,-0.0028170552104711533,-0.001036334317177534,-0.0238933302462101
1772614968718240800,7.30724072265625,-0.0054694185964763165,0.0043707978911697865,-0.018107058480381966
1772614968728307700,7.3173076171875,-0.00791473314166069,0.003992629237473011,-0.003994700964540243
1772614968738375700,7.327375732421875,-0.006339890882372856,0.006493605673313141,0.0063709113746881485
1772614968748443600,7.337443603515625,-0.00639262143522501,0.00952401664108038,0.01471246499568224
1772614968758510600,7.347510498046875,-0.002553749131038785,0.00985616073012352,0.016397027298808098
1772614968768578600,7.35757861328125,0.0020284857600927353,0.005740511696785688,0.020036770030856133
1772614968778645500,7.3676455078125,0.002689765300601721,0.0031804987229406834,0.016400881111621857
1772614968788713700,7.377713623046875,0.003127322532236576,0.007803746499121189,0.018197981640696526
1772614968798780700,7.38778076171875,0.0017076319782063365,0.008642692118883133,0.013269172981381416
1772614968808848600,7.3978486328125,0.0035633225925266743,0.011248861439526081,0.014820730313658714
1772614968818916600,7.40791650390625,0.003557245247066021,0.009307881817221642,0.01116243563592434
1772614968828983600,7.417983642578125,0.005669664591550827,0.00496692955493927,0.0000013939570635557175
1772614968839051800,7.4280517578125,0.0030278738122433424,0.0013282697182148695,-0.008177226409316063
1772614968849118700,7.43811865234375,0.0016318447887897491,0.002004446228966117,-0.010150895453989506
1772614968859186700,7.448186767578125,-0.0022449837997555733,0.004903546534478664,-0.013807895593345165
1772614968869254700,7.458254638671875,-0.006481806747615337,0.00770279485732317,-0.010786538943648338
1772614968879321600,7.468321533203125,-0.005974441766738892,0.012316090986132622,-0.004316937178373337
1772614968889389600,7.4783896484375,-0.008205638267099857,0.011561084538698196,0.0030440399423241615
1772614968899456800,7.488456787109375,-0.0026560386177152395,0.014974257908761501,0.007608284708112478
1772614968909524700,7.498524658203125,0.001209805952385068,0.010283898562192917,0.004575476981699467
1772614968919591700,7.508591796875,0.007854062132537365,0.00607768539339304,0.0014431178569793701
1772614968929659600,7.51865966796875,0.010105765424668789,-0.00249396450817585,-0.004260574467480183
1772614968939727600,7.5287275390625,0.01043967716395855,-0.00926184095442295,-0.009696731343865395
1772614968949794600,7.538794677734375,0.010660452768206596,-0.007279915735125542,-0.01575275883078575
1772614968959862800,7.54886279296875,0.014015438966453075,-0.0073747411370277405,-0.020076880231499672
1772614968969929700,7.5589296875,0.010171432048082352,-0.003915827721357346,-0.018827591091394424
1772614968979997700,7.568997802734375,0.008307565934956074,0.002410078886896372,-0.012012221850454807
1772614968990065700,7.579065673828125,0.007704093586653471,-0.00021206960082054138,-0.013474296778440475
1772614969000132600,7.589132568359375,0.007584776729345322,0.001079414738342166,-0.011661402881145477
1772614969010200800,7.599200927734375,0.003341562347486615,0.002359596313908696,-0.0055403932929039
1772614969020267800,7.609267822265625,0.00312532065436244,-0.0006277891807258129,-0.0003877895651385188
1772614969030335700,7.619335693359375,-0.0020020632073283195,-0.002977496013045311,-0.0005363939562812448
1772614969040402700,7.629402587890625,-0.004117387346923351,-0.0011266320943832397,-0.005632842890918255
1772614969050470700,7.639470703125,-0.007254591211676598,0.004980262368917465,-0.011443061754107475
1772614969060538600,7.64953857421875,-0.006020820699632168,0.008420368656516075,-0.007231670431792736
1772614969070605600,7.65960546875,0.005419852212071419,0.005788099952042103,-0.00466704647988081
1772614969080673800,7.669673828125,0.01121083926409483,-0.0023117719683796167,-0.0033629252575337887
1772614969090740700,7.67974072265625,0.012308860197663307,-0.0020587716717272997,-0.003026035148650408
1772614969100808700,7.68980859375,0.008453669026494026,-0.007474309764802456,-0.002692074980586767
1772614969110875600,7.699875732421875,0.00807976070791483,-0.012123390100896358,-0.004539243411272764
1772614969120943600,7.709943603515625,0.0014728696551173925,-0.010828178375959396,-0.00817017536610365
1772614969131011800,7.72001171875,0.003137079067528248,-0.006927446462213993,-0.014660298824310303
1772614969141078800,7.730078857421875,0.0025596984196454287,-0.00850631669163704,-0.021157000213861465
1772614969151146800,7.740146728515625,0.0024289374705404043,-0.0029051569290459156,-0.014477791264653206
1772614969161213700,7.750213623046875,0.00929797999560833,-0.003860683413222432,-0.010048801079392433
1772614969171281700,7.76028173828125,0.01049879938364029,-0.008284460753202438,-0.005795732140541077
1772614969181349600,7.770349609375,0.005394390784204006,-0.010807855054736137,-0.0005723172798752785
1772614969191416800,7.780416748046875,0.003014057409018278,-0.005112951621413231,-0.0023869951255619526
1772614969201484800,7.79048486328125,0.006953215226531029,-0.005069589242339134,-0.0027349197771400213
1772614969211551700,7.8005517578125,0.007825932465493679,-0.004258656408637762,-0.00408647395670414
1772614969221619700,7.81061962890625,0.008721883408725262,-0.0011272961273789406,-0.0029826429672539234
1772614969231686700,7.820686767578125,0.007758085150271654,-0.00015257904306054115,0.0023913495242595673
1772614969241754600,7.830754638671875,0.012617416679859161,-0.0058972518891096115,0.007191862445324659
1772614969251822600,7.840822509765625,0.015773527324199677,-0.0029781614430248737,0.007591602858155966
1772614969261889800,7.850889892578125,0.028162699192762375,0.0006877961568534374,0.00036327377893030643
1772614969271957800,7.860957763671875,0.02493548020720482,-0.007717406377196312,-0.009385227225720882
1772614969282024700,7.871024658203125,0.015581676736474037,-0.009732536971569061,-0.016507193446159363
1772614969292092700,7.8810927734375,0.007995927706360817,-0.0073854923248291016,-0.020137615501880646
1772614969302160600,7.89116064453125,0.00719929626211524,-0.005263319704681635,-0.014491787180304527
1772614969312227800,7.901227783203125,0.0072661410085856915,-0.0021141315810382366,-0.001023382879793644
1772614969322295600,7.911295654296875,0.008965915068984032,0.00022290810011327267,0.010799743235111237
1772614969332362800,7.92136279296875,0.01024689618498087,-0.0008396932389587164,0.01676788739860058
1772614969342430500,7.931430419921875,0.009352659806609154,-0.001828536856919527,0.021175522357225418
1772614969352497700,7.94149755859375,0.00854412466287613,0.004332952667027712,0.014870753511786461
1772614969362565600,7.951565673828125,0.012576160952448845,-0.000584013294428587,0.002964405342936516
1772614969372633600,7.961633544921875,0.007790460251271725,-0.00531112402677536,-0.008845116943120956
1772614969382700800,7.97170068359375,-0.0014916157815605402,-0.004084938205778599,-0.019847847521305084
1772614969392768500,7.9817685546875,-0.012756254523992538,-0.001254530856385827,-0.02445564977824688
1772614969402835700,7.991835693359375,-0.015270545147359371,0.0005585493054240942,-0.022560277953743935
1772614969412903400,8.0019033203125,-0.015554438345134258,-0.0014907533768564463,-0.013049863278865814
1772614969422971600,8.0119716796875,-0.004658081568777561,0.002361144172027707,-0.004049725830554962
1772614969433038600,8.02203857421875,0.0007880828343331814,0.00016456888988614082,0.0049024904146790504
1772614969443106600,8.0321064453125,0.008022207766771317,-0.003435207065194845,0.009260224178433418
1772614969453173800,8.042173828125,0.009492805227637291,-0.008703205734491348,0.014123423025012016
1772614969463241500,8.052241455078125,0.0040751248598098755,-0.015805525705218315,0.01725989207625389
1772614969473308700,8.06230859375,-0.0018541367026045918,-0.012327438220381737,0.02170550636947155
1772614969483376600,8.072376708984375,-0.0006933611584827304,-0.007116880267858505,0.019494881853461266
1772614969493444600,8.082444580078125,0.0035708921495825052,-0.005766924470663071,0.014641801826655865
1772614969503511600,8.092511474609376,0.0054146479815244675,-0.005130178295075893,0.010063407011330128
1772614969513579500,8.10257958984375,0.005777370650321245,-0.0023727405350655317,-0.0019527755212038755
1772614969523646700,8.112646728515625,0.004392995499074459,-0.0012052785605192184,-0.01405042503029108
1772614969533714400,8.12271435546875,0.009036749601364136,-0.00808022916316986,-0.018143437802791595
1772614969543782700,8.13278271484375,0.004589179530739784,-0.00758246798068285,-0.016493596136569977
1772614969553849600,8.142849609375,0.0021292180754244328,-0.004617304541170597,-0.015638455748558044
1772614969563917800,8.152917724609376,-0.0030208369717001915,-0.00292858830653131,-0.009628658182919025
1772614969573984800,8.16298486328125,-0.003971052821725607,-0.005535556934773922,-0.005514340475201607
1772614969584052700,8.173052734375,0.001032286905683577,-0.006294596008956432,0.002578407060354948
1772614969594119700,8.18311962890625,0.010493699461221695,-0.008151617832481861,0.007110574282705784
1772614969604187600,8.193187744140625,0.008124600164592266,-0.011022521182894707,0.010078513994812965
1772614969614255900,8.203255859375,0.004133852198719978,-0.011572730727493763,0.007779406383633614
1772614969624322800,8.21332275390625,0.001831516856327653,-0.011019759811460972,-0.002443920588120818
1772614969634390800,8.223390869140625,-0.004540628753602505,-0.007495332509279251,-0.011773772537708282
1772614969644457700,8.233457763671876,-0.00670000771060586,-0.013780374079942703,-0.021407483145594597
1772614969654525700,8.243525634765625,-0.007674991153180599,-0.014849899336695671,-0.021947305649518967
1772614969664594000,8.253593994140624,-0.006243912503123283,-0.01597941294312477,-0.015611765906214714
1772614969674660900,8.263660888671875,0.000515189953148365,-0.019861504435539246,-0.006383912637829781
1772614969684728800,8.273728759765625,0.009640163742005825,-0.020839516073465347,0.001946115167811513
1772614969694795800,8.283795654296876,0.007463029585778713,-0.017342254519462585,0.006280676461756229
1772614969704863700,8.29386376953125,-0.0009647518745623529,-0.01228669099509716,0.006175484508275986
1772614969714931700,8.303931640625,-0.0070042684674263,-0.013382049277424812,0.005097703542560339
1772614969724999000,8.3139990234375,-0.004478681832551956,-0.016101136803627014,0.00024788500741124153
1772614969735067000,8.32406689453125,-0.0051924092695117,-0.01035989448428154,0.000799425644800067
1772614969745133800,8.3341337890625,-0.004553662147372961,-0.01005081832408905,0.003955249208956957
1772614969755201800,8.344201904296876,-0.0009195125894621015,-0.013863133266568184,0.005234365351498127
1772614969765268700,8.354268798828125,0.0048543657176196575,-0.01716373860836029,0.00985337421298027
1772614969775336700,8.364336669921874,0.0030298340134322643,-0.021577661857008934,0.010201981291174889
1772614969785405000,8.374405029296875,-0.0002437875373288989,-0.016524063423275948,0.003559044562280178
1772614969795472000,8.384471923828125,-0.0010123758111149073,-0.012347428128123283,-0.0019731400534510612
1772614969805539800,8.394539794921876,-0.0007760145235806704,-0.017131030559539795,0.007632716558873653
1772614969815606800,8.404606689453125,0.0091903330758214,-0.03893299773335457,0.05228434130549431
1772614969825674800,8.4146748046875,0.018152449280023575,-0.03875410184264183,0.03659255430102348
1772614969835743000,8.424742919921876,0.029719091951847076,0.0029142487328499556,0.011972162872552872
1772614969845810000,8.434809814453125,0.02266453206539154,-0.009530702605843544,-0.00507213082164526
1772614969855878000,8.4448779296875,0.015193566679954529,-0.025921927765011787,-0.01719830185174942
1772614969865944800,8.45494482421875,0.009396491572260857,-0.03292026370763779,-0.031240947544574738
1772614969876012800,8.4650126953125,0.012433560565114021,-0.021614881232380867,-0.040841907262802124
1772614969886079700,8.475079833984376,0.014161992818117142,-0.018294135108590126,-0.044637542217969894
1772614969896147700,8.485147705078125,0.015133248642086983,-0.014368634670972824,-0.037725839763879776
1772614969906216000,8.4952158203125,0.010977506637573242,-0.01198548823595047,-0.030729470774531364
1772614969916283000,8.505282958984376,0.010327428579330444,-0.0046255760826170444,-0.017275182530283928
1772614969926350800,8.515350830078125,0.0035192184150218964,0.0025286730378866196,-0.008088992908596992
1772614969936417800,8.525417724609374,0.00041024433448910713,-0.005549493245780468,-0.005504927597939968
1772614969946485800,8.53548583984375,-0.0014385785907506943,-0.007385077886283398,0.00549309840425849
1772614969956554000,8.545553955078125,-0.0007019481854513288,-0.008968858979642391,0.01014111377298832
