time,seconds_elapsed,z,y,x
1772699587189964300,0.10796435546875,0.08607610895335674,-0.024338180878874845,0.032334301049180794
1772699587199921400,0.11792138671875,0.05884148054718971,-0.007449064763775095,0.043719803362875245
1772699587209878300,0.127878173828125,0.07635083375275134,-0.0006701132473303005,0.04135028861940372
1772699587219835400,0.13783544921875,0.09236322639882565,0.002539838942233473,0.026885849217826035
1772699587229792300,0.147792236328125,0.08742693904042244,0.0013982585585210472,0.008644248773047002
1772699587239750100,0.157750244140625,0.07530687765777111,0.008996239406848325,0.00861512656819541
1772699587249707300,0.167707275390625,0.07874971158802509,0.006212714202119969,-0.02134134400031762
1772699587259664400,0.177664306640625,0.07500935601592064,0.011134315448044798,-0.051650468497979454
1772699587269621200,0.187621337890625,0.0790495713174343,0.004939292166242375,-0.03532372865612851
1772699587279578000,0.197578125,0.07216624154448509,-0.0028427948110271244,-0.04740213143769651
1772699587289536300,0.207536376953125,0.06962240228056907,-0.0008167551764054223,-0.0451605721891392
1772699587299493400,0.217493408203125,0.09027239159941673,-0.004729243311868049,-0.029799156548373864
1772699587309450200,0.2274501953125,0.08264087380766869,-0.011321353319589979,-0.006706958284246502
1772699587319407000,0.237406982421875,0.08204232339262962,-0.0038092423901194706,0.018357964824954977
1772699587329364200,0.2473642578125,0.07186755085885524,0.0033178558437153695,0.028345802235172593
1772699587339322400,0.257322265625,0.0738128397077322,-0.00017499124072492122,0.03796826551527483
1772699587349279200,0.267279296875,0.06926701297163963,-0.01016560741320718,0.07051901776015293
1772699587359236400,0.277236328125,0.06760638628304004,0.0038310614962829273,0.05779117234323639
1772699587369193200,0.287193115234375,0.07807458880543708,-0.002498821945255622,0.05784884364749305
1772699587379150000,0.297150146484375,0.09125497289597988,0.008805192080466076,0.029410481457773127
1772699587389108200,0.307108154296875,0.09098258569538593,0.0031288680436788127,0.007092200450389646
1772699587399065300,0.3170654296875,0.0851671774148941,0.007591724637476727,-0.017198908150056376
1772699587409022200,0.327022216796875,0.07410334708690643,0.01249558929731138,-0.028017316916189156
1772699587418979000,0.33697900390625,0.06408581094145774,0.010324140709475613,-0.027864427909418007
1772699587428936200,0.346936279296875,0.09042845894396305,0.010588655130867845,-0.01273318260409287
1772699587438894300,0.356894287109375,0.09072714962959288,0.0060840280548436565,-0.003737609917524969
1772699587448851500,0.3668515625,0.08040332401394844,0.012164224751363507,0.021435426908382214
1772699587458808000,0.37680810546875,0.09042670537829399,-0.00030368652115575967,0.036378987029835115
1772699587468765200,0.38676513671875,0.08099895181953906,-0.015382364813960157,0.03608997977129184
1772699587478722300,0.396722412109375,0.07141805352568625,-0.02456060972420964,0.046999249725230036
1772699587488680400,0.406680419921875,0.0690197602123022,-0.012399398913839831,0.03875872405651025
1772699587498637300,0.41663720703125,0.08053776404857635,-0.017756478100735693,0.012499785981816239
1772699587508594200,0.42659423828125,0.07814180882275104,-0.008457593352347612,-0.010368188772111897
1772699587518551300,0.43655126953125,0.0805354259610176,0.0069211410326883195,-0.01685082650639233
1772699587528508200,0.446508056640625,0.08038578835725783,0.010114064455637707,-0.03708387247973587
1772699587538466300,0.45646630859375,0.09669862525463103,0.034041194015322254,-0.025882483144849536
1772699587548423200,0.466423095703125,0.10403495949208735,0.026922283654520287,-0.03712012653662823
1772699587558380300,0.47638037109375,0.08922668193876743,0.002246911277109757,-0.012371070151787716
1772699587568337200,0.486337158203125,0.0817471398383379,-0.0020533249337691814,0.01277480809749104
1772699587578294300,0.496294189453125,0.07606500254869461,-0.007302733361953869,0.014450171130918897
1772699587588252400,0.50625244140625,0.0763660313218832,-0.01949565905141644,0.015765950454201084
1772699587598209000,0.516208984375,0.07950549839138984,-0.018488957093749193,0.02079934151152847
1772699587608166100,0.526166259765625,0.07216916415393353,-0.023692393788625483,0.028173740453762
1772699587618123300,0.536123291015625,0.07590308998525143,-0.012412039199704303,0.020422715335036628
1772699587628080400,0.546080322265625,0.08173369583487511,-0.0011530242263339458,0.03525506788368802
1772699587638038300,0.556038330078125,0.09505085804760456,0.009391453836089931,0.0015835280230210628
1772699587647996000,0.565995849609375,0.0833808785200119,0.004434804109670221,-0.015021197643148479
1772699587657953000,0.575953125,0.08143792775869368,0.018518676378577948,-0.03513230230383342
1772699587667910000,0.585909912109375,0.08069441591501235,0.01813130732907448,-0.04144925091527402
1772699587677867000,0.595866943359375,0.08144552654325962,0.002402330167684704,-0.02122065621311776
1772699587687825000,0.605824951171875,0.07725976529121399,0.008650759570579975,-0.004679890028096269
1772699587697782000,0.615781982421875,0.06574000788927079,-0.005468371241376735,-0.0025090014167974003
1772699587707739000,0.62573876953125,0.0769628281712532,-0.020939807144855146,0.01297278520487016
1772699587717696000,0.635696044921875,0.08294657875597476,-0.015274118666513821,0.031122199012793134
1772699587727653000,0.645653076171875,0.07217267128527163,-0.014481886010011658,0.05127199514098465
1772699587737610800,0.65561083984375,0.08069967661201953,-0.01906051447058562,0.0373629588491749
1772699587747567900,0.66556787109375,0.07007365317940711,0.002372496718424372,0.040183468763157724
1772699587757525000,0.67552490234375,0.08608370773792266,0.011169427860621362,0.032795278757589405
1772699587767482000,0.685482177734375,0.09506079491972923,0.0004225042949663475,0.008766574249017866
1772699587777439000,0.69543896484375,0.06782792007923126,0.008124443274689837,0.000006962888682028278
1772699587787396900,0.70539697265625,0.07815525282621383,-0.0017433456691447644,-0.024958233022957573
1772699587797354000,0.71535400390625,0.07666179939806461,0.007462540733278729,-0.045987798527209085
1772699587807310800,0.725310791015625,0.0712765992283821,0.008415087651181966,-0.0400666146175703
1772699587817268000,0.73526806640625,0.06364741952419281,-0.007334804434073157,-0.03273935416913591
1772699587827225900,0.745225830078125,0.058709963122010225,-0.004263557462301105,-0.014073175061668735
1772699587837183000,0.755182861328125,0.07487082432806491,0.006937206251500174,0.01700638810250675
1772699587847139800,0.765139892578125,0.0823527045160532,0.0012602839930914342,0.030036139075446406
1772699587857097000,0.775096923828125,0.08893675908148288,0.0036023718735203143,0.03243424972573994
1772699587867054000,0.78505419921875,0.08130524128973483,-0.0034160235551418732,0.041561876410315744
1772699587877012000,0.795011962890625,0.06274959390163422,-0.015849219707306475,0.04932646426351275
1772699587886968800,0.80496875,0.07486965528428555,0.005315989124681801,0.027303499241161624
1772699587896926000,0.814926025390625,0.07861176442205906,0.011132214822503737,0.011109945908479857
1772699587906883000,0.824883056640625,0.08280220184922218,0.005345032556075603,-0.03243009642371908
1772699587916840000,0.83483984375,0.08205342930853367,-0.007253569591138511,-0.03501477687138831
1772699587926797800,0.8447978515625,0.0675385817438364,0.004609142329846509,-0.024909035002812743
1772699587936755000,0.8547548828125,0.0819037917047739,0.015642116295266895,-0.038770419060881245
1772699587946712000,0.864712158203125,0.07726619503200054,0.008334674792154691,-0.023837821008148602
1772699587956669000,0.8746689453125,0.08325403726994991,0.010590285398950799,-0.011722231446282238
1772699587966626000,0.8846259765625,0.0759212101638317,0.0032095959965372455,-0.009300376877508823
1772699587976584000,0.894583984375,0.0917810425966978,-0.0037418716757558284,0.016491825034847717
1772699587986541000,0.904541015625,0.07382336110174656,-0.01324254434024915,0.03631912376849213
1772699587996498000,0.914497802734375,0.0753203216612339,-0.010908662599162199,0.04691319714328274
1772699588006455000,0.924455078125,0.0639478637754917,-0.010647650742530821,0.042442435804242264
1772699588016412000,0.934411865234375,0.07082768641710281,-0.015117964556999503,0.04515927528119646
1772699588026369800,0.944369873046875,0.05720949543118477,-0.014109568399167619,0.029638951884827108
1772699588036327000,0.954326904296875,0.08279635663032531,-0.014951065291184932,-0.010808643140655477
1772699588046284000,0.964283935546875,0.08758475995063782,-0.009582930420734919,-0.028859715707215943
1772699588056241200,0.9742412109375,0.07860767276883125,0.00874989082980901,-0.018529138407087885
1772699588066197800,0.98419775390625,0.06873392900824546,0.022586263744207098,-0.023758006370742803
1772699588076156000,0.994156005859375,0.08265139520168303,0.026615290931425988,-0.02577863004473038
1772699588086113000,1.004113037109375,0.07472177124619483,0.014207393617299384,-0.010337653211597353
1772699588096070000,1.01406982421875,0.08070902896225451,0.00707889344424475,0.002626877904869616
1772699588106027000,1.024027099609375,0.06320201384425163,-0.0055269878271268676,0.009621673262235708
1772699588115984000,1.03398388671875,0.060659343624114986,-0.029267650337424126,0.006636976629332639
1772699588125942000,1.04394189453125,0.08041092279851436,-0.013300658602500334,0.03304576693691779
1772699588135899000,1.05389892578125,0.07801555209457874,-0.018288013994437642,0.026923792908305766
1772699588145856000,1.06385595703125,0.08938625641465187,-0.03361357972039841,0.026727649281697814
1772699588155812900,1.073812744140625,0.08145370984971523,-0.011805122815119102,0.012354162399470806
1772699588165769700,1.083769775390625,0.062298927524685854,0.015985495505994186,0.011820420848950743
1772699588175727900,1.093727783203125,0.08190203813910484,0.014648616312467493,-0.011855658842402044
1772699588185685000,1.10368505859375,0.07906126175522804,0.020846612436068244,-0.0351974787778221
1772699588195642000,1.11364208984375,0.07517302214503288,0.01281937332500238,-0.04916140076175798
1772699588205598700,1.1235986328125,0.09163374308049678,0.012928509955015034,-0.058327905001863835
1772699588215555800,1.133555908203125,0.08639818051457404,0.011608088705944828,-0.031027789594454222
1772699588225514000,1.143513916015625,0.08550093941390514,0.0006481571438489482,-0.01911675415287027
1772699588235471000,1.15347119140625,0.06874211231470108,-0.015383515591430476,-0.00619640295895806
1772699588245428000,1.163427978515625,0.07263093644678592,-0.015769925659708677,0.021935722847026773
1772699588255384800,1.173384765625,0.07487491598129271,-0.020995756849483585,0.03280309673786396
1772699588265342000,1.183342041015625,0.06215455061793327,-0.019975346026872284,0.03584067205218598
1772699588275300000,1.193300048828125,0.05811375079452991,0.001000372681580484,0.02991873237401014
1772699588285257000,1.203257080078125,0.06948562415838241,0.005278506658505648,0.002164247666313895
1772699588295213800,1.2132138671875,0.07711597290635108,0.0031934942451072854,-0.004760419334843754
1772699588305171000,1.2231708984375,0.07337503281235694,0.03045591940707527,-0.006349342198079103
1772699588315127800,1.2331279296875,0.09193068020045757,0.01804641465775203,-0.03235312219737097
1772699588325086000,1.2430859375,0.08250409568548202,-0.010515448330761864,-0.03432568949552951
1772699588335043000,1.25304296875,0.06709259154200553,-0.0027456226134439927,-0.049267642181785774
1772699588345000000,1.263,0.07113339136540889,0.0063774306440027425,-0.04364133586576208
1772699588354956800,1.272956787109375,0.07068389403223992,0.008806415923172608,-0.017882739395485257
1772699588364915000,1.2829150390625,0.0712812754034996,-0.0003467493447475135,-0.005908955757372314
1772699588374872000,1.2928720703125,0.08504735042750836,0.000009553279634565115,0.025710341448336838
1772699588384829000,1.302828857421875,0.07247603814601898,0.009251830736268311,0.046003032628959044
1772699588394785800,1.312785888671875,0.08429623979926108,0.003156989026465453,0.03214153212317033
1772699588404743000,1.322742919921875,0.07142799039781093,0.00808806135363411,0.033442940427805296
1772699588414700000,1.332699951171875,0.06933306394517422,-0.008137850745534523,0.023006722212559543
1772699588424658000,1.342657958984375,0.06529226412177086,0.005958027054998092,-0.012796049531630705
1772699588434614800,1.35261474609375,0.06409457876980304,-0.0018875901451567186,-0.012424798216577618
1772699588444572000,1.362572021484375,0.06589081453680992,0.0082448639171198,-0.03147454469797667
1772699588454528800,1.37252880859375,0.0672375529706478,0.006911934812925755,-0.04434184881793335
1772699588464487000,1.38248681640625,0.07636486227810382,0.0063005751486634835,-0.02728037637718953
1772699588474444000,1.392444091796875,0.09087970984280108,0.002994692870532162,-0.02948290965645574
1772699588484401000,1.40240087890625,0.08414660219550132,0.007379524925211444,-0.023636690679169257
1772699588494357800,1.412357666015625,0.09117898505032063,0.023717555629345587,-0.004322521107923239
1772699588504315000,1.42231494140625,0.08025485545396804,0.004579971034289337,0.013955724977748468
1772699588514273000,1.43227294921875,0.08384557342231273,-0.017808527948381378,0.029408421931427436
1772699588524230000,1.44222998046875,0.06259644916653632,-0.003425229774904437,0.030970499599399043
1772699588534186800,1.452186767578125,0.06648761138617992,-0.012065458818315528,0.035759973782079756
1772699588544144000,1.462143798828125,0.06005319442451,-0.0034527068702969697,0.01680195613816613
1772699588554101000,1.47210107421875,0.07621464015245437,-0.007186468304833397,0.01588223377763061
1772699588564059100,1.48205908203125,0.06738660605251788,-0.0002918134202715009,-0.012970017859048675
1772699588574015700,1.492015625,0.06663666446805,0.003785888913995586,-0.03133172727735946
1772699588583972900,1.501972900390625,0.08070143017768859,0.02072675348264165,-0.04913159014538396
1772699588593930000,1.511929931640625,0.07097557045519351,0.012226928423764183,-0.03246733229472302
1772699588603886800,1.521886962890625,0.07037585099637508,0.012888127712276763,-0.03566977703126613
1772699588613845000,1.531844970703125,0.07516425431668758,0.005362686943775043,-0.02088114032675512
1772699588623801900,1.5418017578125,0.07052607312202454,0.016466383491270244,-0.008471785132837249
1772699588633759000,1.551759033203125,0.06723463036119938,-0.001270549658779055,0.0070951818545203415
1772699588643715300,1.56171533203125,0.06229658943712711,-0.01806307809818536,0.0337873973507667
1772699588653672400,1.57167236328125,0.057657823720574375,-0.01181158908852376,0.02921230342099443
1772699588663630600,1.581630615234375,0.07980360455513,-0.014732317107124254,0.022664484646148047
1772699588673587200,1.591587158203125,0.07785773118436336,-0.016271856433013453,0.018866599333682097
1772699588683544300,1.60154443359375,0.07306932786405086,0.010066384822432883,0.012518266920000314
1772699588693501400,1.61150146484375,0.06977730058133602,-0.002019025371945463,-0.005849667313942336
1772699588703458300,1.621458251953125,0.08234569025337696,0.019170527883432806,-0.023728371567593422
1772699588713416400,1.63141650390625,0.08399287293851375,0.029412008977867662,-0.029355787561892065
1772699588723373300,1.641373291015625,0.0980593922138214,0.028004092108434995,-0.03849313192288391
1772699588733330400,1.651330322265625,0.07307108142971992,0.012659328491659834,-0.020919988199532964
1772699588743287300,1.661287353515625,0.08279811019599437,0.0011354840030660851,-0.020664725663675925
1772699588753244400,1.671244384765625,0.08130290320217609,-0.014190757576329633,0.011698095943802035
1772699588763202300,1.681202392578125,0.07920797674953937,0.006010492461174726,0.02160236042352626
1772699588773159400,1.691159423828125,0.06963175463080405,-0.009496448580524884,0.03233170038342941
1772699588783116300,1.7011162109375,0.07995499572455883,-0.011959354395605623,0.05476280553196557
1772699588793073400,1.711073486328125,0.06798164933621884,-0.01692856677607633,0.045602840630500574
1772699588803030500,1.721030517578125,0.06887772139310837,-0.0013602920351549982,0.023852447755122557
1772699588812988400,1.730988525390625,0.0830932937502861,0.012706939626205711,0.0207794586341246
1772699588822945300,1.7409453125,0.08653554315865039,0.01586071378227789,-0.0005470828059944324
1772699588832902400,1.75090234375,0.07276829909086227,0.01369124708897434,0.009556553870462812
1772699588842859500,1.760859619140625,0.07785539309680461,-0.0013645389520097523,-0.023084742185100912
1772699588852816400,1.77081640625,0.06723112322986126,0.011474438689183443,-0.03790181953280698
1772699588862774300,1.780774169921875,0.07710778959989548,0.010444447187473997,-0.037480924956325906
1772699588872731400,1.7907314453125,0.07321721190214156,-0.005458114708843641,-0.02509687659195624
1772699588882688500,1.8006884765625,0.07950140673816204,-0.01135927874376066,-0.012795204714837017
1772699588892645400,1.810645263671875,0.06558569411039351,-0.00803998442820739,0.026812704066513104
1772699588902602500,1.8206025390625,0.07890285632312298,0.002147606487944722,0.025048863598611203
1772699588912560400,1.830560302734375,0.07291618312895297,0.007076884150248952,0.039294488600757904
1772699588922517500,1.840517578125,0.06348959861397743,-0.01317974933630321,0.04195831011568662
1772699588932474400,1.850474365234375,0.0666319882929325,-0.013622926526539958,0.04364281543679535
1772699588942431500,1.860431396484375,0.07965045982003212,0.0100940126148751,0.02316893160352483
1772699588952388600,1.870388671875,0.06887713687121867,0.01795776825991925,0.013509867206658236
1772699588962346200,1.88034619140625,0.07276829909086227,0.014327353035425766,-0.0016766137047758093
1772699588972303400,1.890303466796875,0.07800619974434375,-0.0073707022979389875,-0.024654402654618022
1772699588982260500,1.900260498046875,0.08878010721504688,0.0016199247854528948,-0.04282351667685434
1772699588992217600,1.910217529296875,0.07216974867582321,0.012833904173853806,-0.036919455148663835
1772699589002174500,1.920174560546875,0.0756119980841875,-0.001010209089005366,-0.027273168034979606
1772699589012132400,1.93013232421875,0.07800736878812313,0.0031532033339142797,-0.02332612232607789
1772699589022089500,1.94008935546875,0.06573708527982235,0.01473964646363165,0.014468481964099918
1772699589032046300,1.95004638671875,0.07082417928576469,0.010227781362645327,0.012811135219619608
1772699589042003500,1.96000341796875,0.0703746819525957,-0.00003582479862961918,0.020008627241966313
1772699589051960600,1.969960693359375,0.07232055532336235,-0.01596382253030315,0.039389217679505234
1772699589061918500,1.97991845703125,0.07935352270007133,-0.02056053463683929,0.020975287166901398
1772699589071875300,1.989875244140625,0.07276946813464165,-0.017395362303918225,-0.00883657987846236
1772699589081832400,1.99983251953125,0.07007482222318649,-0.014801984809851274,-0.010318383397191063
1772699589091789600,2.00978955078125,0.0830932937502861,-0.002757376983319409,-0.020079674051026813
1772699589101746400,2.019746337890625,0.07291793669462203,-0.000052164012077264485,-0.03456807428350439
1772699589111704300,2.029704345703125,0.06768062056303024,0.0015704002550337463,-0.027243693062034433
1772699589121661400,2.039661376953125,0.0848883604735136,0.011863584137242287,-0.0323392238194705
1772699589131618600,2.04961865234375,0.07037351290881633,0.009445928536262362,-0.029984726265328936
1772699589141575400,2.059575439453125,0.07202069559395313,0.010435199868516064,-0.008119148328353185
1772699589151532300,2.0695322265625,0.09312018224596977,-0.00019118889027740804,-0.012188900251605081
1772699589161490400,2.079490478515625,0.08533902685046195,-0.011853418936254455,0.012521009149646852
1772699589171447600,2.089447509765625,0.08204583052396774,-0.0031775431907270103,0.037117578386515374
1772699589181404400,2.099404296875,0.08249415881335735,-0.018456653126189482,0.038387054899637583
1772699589191361500,2.109361572265625,0.06603343787789344,-0.017494973053759893,0.02908958579020109
1772699589201318400,2.119318359375,0.07336509594023227,-0.012196789013827218,0.005504560224543093
1772699589211276500,2.129276611328125,0.07740472671985625,-0.011698529768642038,0.010015161525271833
1772699589221233400,2.1392333984375,0.08129471989572047,0.011804008570266887,-0.005313506619117106
1772699589231190500,2.1491904296875,0.09311667511463165,0.013974036952573805,-0.039652951216185464
1772699589241147400,2.1591474609375,0.06378887382149696,0.013788898777170105,-0.03183390464583644
1772699589251104300,2.169104248046875,0.07800386165678501,0.0168503184746718,-0.0317206055806484
1772699589261062400,2.1790625,0.08952771071195602,0.017291125611308963,-0.020942432926781475
1772699589271019500,2.18901953125,0.08025134832262992,-0.002403754939790815,-0.015917627034708857
1772699589280976600,2.1989765625,0.06932838777005672,-0.011856953467056154,0.003557218128364184
1772699589290933200,2.208933349609375,0.07441606629788876,-0.0108806603473844,0.004355475812742952
1772699589300890400,2.218890380859375,0.06932663420438766,-0.016358068845164962,0.015635987948579712
1772699589310848500,2.2288486328125,0.07606032637357711,-0.01178894799845293,0.035803787807631306
1772699589320805400,2.238805419921875,0.06932604968249798,-0.005223990859137848,0.030616882122447713
1772699589330762500,2.248762451171875,0.07531038478910923,-0.0022070222247159107,0.04763454282092862
1772699589340719400,2.25871923828125,0.09341595032215118,0.0017709414955461398,0.008281233280088054
1772699589350676500,2.268676513671875,0.07845218994617462,0.000716582737560384,-0.01451104588912567
1772699589360634400,2.27863427734375,0.07201894202828407,0.019489813832519576,-0.012408949910185764
1772699589370591500,2.288591552734375,0.08384031272530555,0.01607801436134614,-0.03811874108596239
1772699589380548400,2.29854833984375,0.09386661669909954,0.006350588302849791,-0.03430331098365132
1772699589390505200,2.308505126953125,0.08503858259916305,0.000544911398505792,-0.03896215137385298
1772699589400462300,2.31846240234375,0.08369301320910454,0.0019474534064996987,-0.021433276050491258
1772699589410420500,2.32842041015625,0.07546352952420711,-0.010547939527989365,0.010829535231634508
1772699589420377600,2.338377685546875,0.06483984417915344,-0.009414706847514026,0.023966345041932072
1772699589430334200,2.348334228515625,0.06678630207180976,-0.023027408807561732,0.02380414706740994
1772699589440291300,2.358291259765625,0.06992869175076484,-0.012028880534437484,0.030713138721289578
1772699589450248400,2.36824853515625,0.07172375847399234,0.0038630960357841104,0.04134418767218012
1772699589460206600,2.37820654296875,0.07591244233548641,0.005368742225226014,0.033974275392107664
1772699589470163500,2.38816357421875,0.07306815882027148,-0.0006645191901829094,0.023741347496886736
1772699589480120300,2.398120361328125,0.07007482222318649,0.01157611809852533,0.005825370268791448
1772699589490077400,2.408077392578125,0.08863046961128711,0.003703809254267253,-0.027753464648500082
1772699589500034300,2.418034423828125,0.06349135217964649,-0.009598685112292877,-0.02408493220359087
1772699589509992400,2.427992431640625,0.08713409357368945,-0.0012397937609115615,-0.03518783188335364
1772699589519949300,2.43794921875,0.08234510573148728,0.0012085994716268032,-0.046461859479476696
1772699589529906400,2.447906494140625,0.06872749926745891,-0.0061338220133213325,-0.02225352694179164
1772699589539863300,2.45786328125,0.062143444702029225,0.006454359204578213,-0.021117743827914818
1772699589549820400,2.4678203125,0.08414134149849414,0.0010905169167555867,0.009655523016199003
1772699589559777500,2.477777587890625,0.07636018610298632,-0.004169536203029565,0.025517175230104473
1772699589569735400,2.4877353515625,0.07995090407133101,0.0047942165731685235,0.029720054297021122
1772699589579692300,2.4976923828125,0.07007482222318649,-0.009157919074851088,0.021627291652094573
1772699589589649400,2.5076494140625,0.08788111254870891,-0.01714753415584564,0.03739574230734724
1772699589599606500,2.5176064453125,0.07740648028552531,-0.01522267617364414,0.004781204111257102
1772699589609563400,2.5275634765625,0.08324234683215617,-0.016207161732926034,0.0023104015424440147
1772699589619521300,2.537521240234375,0.08279343402087688,-0.005171009429730475,-0.008573533611660241
1772699589629478400,2.547478515625,0.06408873355090618,0.004622919693449512,-0.012327721917117014
1772699589639435500,2.557435546875,0.07022387530505657,0.0005997833909001201,-0.035809884188277644
1772699589649393000,2.567392822265625,0.0913233619570732,0.0036512616496998814,-0.02821881257134955
1772699589659350000,2.57735009765625,0.08279343402087688,0.01041148563278839,-0.010350800387538038
1772699589669308000,2.587307861328125,0.08204466148018837,0.013759028795291669,-0.015134899708779993
1772699589679264800,2.5972646484375,0.062143444702029225,-0.0006698620855808258,-0.012591601584269665
1772699589689222000,2.607221923828125,0.06633329760730267,0.0012698098732624203,0.01374600491693709
1772699589699179000,2.617178955078125,0.05047229613065719,0.0006853747485438362,0.020290008316480087
1772699589709136000,2.627135986328125,0.0792027160525322,-0.0267177238260163,0.032915633184649046
1772699589719093800,2.63709375,0.0862350989073515,-0.022184683506260624,0.014441188673442228
1772699589729051000,2.64705078125,0.07216857963204383,-0.0037386111395899205,0.014489340947393793
1772699589739008000,2.657008056640625,0.08204466148018837,-0.010771117291995324,-0.004618342841387494
1772699589748964900,2.66696484375,0.08099602921009064,0.005774044223641976,-0.02093890067926841
1772699589758922000,2.676921875,0.09042202920317649,0.0049895290827145795,-0.018005802944506284
1772699589768879900,2.6868798828125,0.09251637113392353,0.016981813066964967,-0.02153606970468536
1772699589778837000,2.6968369140625,0.08189268578886985,0.017211315540480426,-0.0324921676251688
1772699589788793900,2.7067939453125,0.07695581390857696,0.0262131170384353,-0.027642916946113108
1772699589798751000,2.7167509765625,0.0818950238764286,0.018943916053324936,-0.02033407807035837
1772699589808707800,2.726707763671875,0.058550973168015476,0.002711263686115853,-0.005163881002622656
1772699589818666000,2.736666015625,0.06947451824247837,-0.00935360147715546,0.003311176653645816
1772699589828622800,2.746622802734375,0.06752922939360141,-0.025585089367162434,0.041668337026052174
1772699589838580000,2.756580078125,0.07261632339954376,-0.02124054822367616,0.050026986348838544
1772699589848537000,2.766537109375,0.07306465168893336,-0.009845476647326722,0.03039762248173356
1772699589858493700,2.77649365234375,0.06618015287220477,-0.0005132102191448212,0.029691465240065006
1772699589868451800,2.786451904296875,0.07979659029245376,-0.004626741918618791,0.016418896795954787
1772699589878409000,2.796408935546875,0.06453355470895766,0.0022176075508119537,-0.013072668807703303
1772699589888366000,2.806365966796875,0.07725333555042743,0.02340346187860705,-0.02284796058742795
1772699589898323000,2.816322998046875,0.08952361905872822,0.007083464588085189,-0.028614113765559158
1772699589908279800,2.82627978515625,0.07920037796497345,0.006969085527374409,-0.025426288926124106
1772699589918238000,2.836238037109375,0.08982581687569617,0.014036055638385005,-0.01575113876084797
1772699589928195000,2.846195068359375,0.07381400875151158,0.0003729203990427777,-0.006335644749578205
1772699589938152000,2.85615185546875,0.06857727714180946,0.004296382019668817,0.0030251559366326545
1772699589948108800,2.86610888671875,0.06498655917346477,-0.0042238145403796805,0.02450913754858775
1772699589958066000,2.87606591796875,0.06753098295927047,-0.0031863566848449407,0.028511347510828636
1772699589968023800,2.88602392578125,0.0922211875796318,-0.012670950430794619,0.031216167756426147
1772699589977981000,2.89598095703125,0.0777075090587139,-0.008813210990140215,0.029023361286730505
1772699589987938000,2.90593798828125,0.07306815882027148,0.0057835153048858045,0.020004302693298084
1772699589997895000,2.91589501953125,0.06379062738716602,0.003390473555354401,0.007517920757393585
1772699590007851800,2.925851806640625,0.0760609108954668,0.003725450263917446,0.0005457236784364795
1772699590017810000,2.935809814453125,0.07411503752470017,0.010546930314414203,-0.028359339853469282
1772699590027767000,2.94576708984375,0.09042553633451461,0.00944007418421097,-0.04440460272268392
1772699590037724000,2.955723876953125,0.07276771456897259,0.0011248986769700421,-0.03248339751353487
1772699590047680800,2.9656806640625,0.0796510443419218,0.007717273546173237,-0.022089785464154556
1772699590057638000,2.975637939453125,0.08324293135404587,-0.0022497197221266105,-0.008173451781878248
1772699590067594800,2.9855947265625,0.07022445982694625,-0.014680952246068045,-0.010736201242241077
1772699590077553000,2.995552978515625,0.09386720122098922,-0.0010757303395774215,0.025308133306016677
1772699590087509800,3.005509765625,0.0762087949335575,-0.0026904081277549265,0.03058328124694526
1772699590097467000,3.015466796875,0.07112053188383578,0.005434272608952596,0.03751903304358711
1772699590107423700,3.025423828125,0.06842705501616,-0.0033983737340196967,0.040266913829487744
1772699590117380900,3.035380859375,0.08009820358753204,0.0017000590832671148,0.034067625364521514
1772699590127339000,3.045339111328125,0.08054711639881133,-0.013175858612474984,0.010702673431974835
1772699590137296000,3.0552958984375,0.0733639268964529,-0.01583574373780284,-0.021303957432263994
1772699590147252700,3.065252685546875,0.07321545833647251,-0.016473836145363747,-0.014224500015727243
1772699590157209900,3.0752099609375,0.0741132839590311,0.007706199596310034,-0.034894118766940665
1772699590167167000,3.0851669921875,0.08817921871244906,0.015611812488548456,-0.03125350865870714
1772699590177124900,3.095124755859375,0.0910229177057743,0.004740289862267673,-0.024447431673319076
1772699590187081700,3.105081787109375,0.07216916415393353,-0.001339011785108596,-0.016342090391321108
1772699590197038800,3.115038818359375,0.08743161521553992,-0.00031996636909898367,0.006464320622055674
1772699590206996000,3.124995849609375,0.07471300341784953,0.006093110977020115,0.01414023524877848
1772699590216952800,3.134952880859375,0.07351648710966109,-0.013078722947509959,0.010299899034074042
1772699590226910700,3.14491064453125,0.0765098237067461,-0.0041673442459432405,0.03167104451761115
1772699590236867800,3.154867919921875,0.08324293135404587,-0.013692288268590345,0.021637287889723664
1772699590246825000,3.164824951171875,0.06543547198474407,-0.009389088349067605,0.02169196580258431
1772699590256781800,3.17478173828125,0.06708148562610149,-0.02203370789536275,0.006632849014308885
1772699590266739000,3.184739013671875,0.08324176231026649,-0.011254425563220866,-0.005130519301604363
1772699590276696800,3.19469677734375,0.0675298139154911,-0.001374206396075897,-0.01891290899370797
1772699590286654000,3.204654052734375,0.07725625815987587,0.0217170111955842,-0.021420717963017522
1772699590296610800,3.21461083984375,0.0992535704344511,0.02351466716811992,-0.04334106514439918
1772699590306568000,3.22456787109375,0.0703746819525957,0.011406341889034955,-0.018309396992472464
1772699590316525000,3.234525146484375,0.08803308824002742,0.018392063457379117,-0.006081695104684331
1772699590326482700,3.244482666015625,0.08159808675646782,0.02216171818920411,0.0012705810539977392
1772699590336439800,3.254439697265625,0.07965162886381148,-0.008079179360857234,0.009875938000960741
1772699590346397000,3.26439697265625,0.07576163568794726,-0.01868293159615714,0.0130527619557688
1772699590356354000,3.27435400390625,0.07082359476387501,-0.0030522043445846063,0.024984844751958734
1772699590366311000,3.284310791015625,0.07306698977649212,-0.008356594363017939,0.03929959403413813
1772699590376268800,3.294268798828125,0.08264321189522743,-0.01356676219278015,0.03877625058004632
1772699590386226000,3.304225830078125,0.0745621967703104,0.00548192027611658,0.017187112680985592
1772699590396182800,3.314182861328125,0.07486147197782993,-0.01357426507922355,0.012189697119337506
1772699590406140000,3.324139892578125,0.07740531124174595,0.0013503688627621159,-0.011811146130529231
1772699590416097000,3.334096923828125,0.06947510276436805,0.0017910527018131688,-0.024545329956687054
1772699590426055000,3.344054931640625,0.06363865169584751,0.008919708138494752,-0.028175927844271063
1772699590436011800,3.35401171875,0.06603285335600376,0.013006004771171137,-0.005215478188297129
1772699590445969000,3.363968994140625,0.0631897388845682,0.003899459690530784,-0.015722823698527646
1772699590455926000,3.373926025390625,0.07575988212227822,0.004692130738450214,-0.015804915916343452
1772699590465883000,3.3838828125,0.06289104819893837,-0.0033604894090443847,-0.004097690813770169
1772699590475839700,3.39383984375,0.0561579405516386,-0.009917350006871856,0.006258007227882626
1772699590485798000,3.4037978515625,0.07052431955635548,-0.01063296919662971,0.03689434582358226
1772699590495755000,3.413755126953125,0.055559974658489227,-0.026775792422494848,0.019209658884000964
1772699590505711900,3.4237119140625,0.061545478808879846,-0.0027906536318361755,0.026865247104503213
1772699590515669000,3.4336689453125,0.08174655531644821,0.01530687929179985,0.019654649005411192
1772699590525625900,3.4436259765625,0.06438800875842571,0.004100599152664653,0.015981926725863013
1772699590535584000,3.453583984375,0.06693126350045203,0.0017216270276810973,-0.016808383595664052
1772699590545540900,3.463540771484375,0.08279343402087688,0.007829077057307586,-0.0210908603875665
1772699590555498000,3.473498046875,0.08713350905179977,0.002244993314659223,-0.01367018603463657
1772699590565454800,3.483454833984375,0.062443304431438446,0.01396720078641083,-0.027085034184891263
1772699590575411700,3.49341162109375,0.07591127329170703,-0.004375004780408926,-0.020179316766909323
1772699590585369900,3.503369873046875,0.07112170092761516,-0.008160144775733352,-0.0032671468573185845
1772699590595327000,3.513326904296875,0.0753115538328886,-0.011567902826028875,0.02245159081413876
1772699590605284000,3.5232841796875,0.08024901023507118,-0.008862411293573676,0.02682184178761672
1772699590615240700,3.53324072265625,0.06797814220488071,-0.0007010426751337945,0.026157749572407917
1772699590625197800,3.54319775390625,0.06618249095976353,-0.00019218440412078052,0.050080629931949075
1772699590635156000,3.553156005859375,0.07351414902210235,-0.0074087099205004045,0.03882078384151682
1772699590645112300,3.5631123046875,0.06618190643787383,-0.005282004656689241,0.02924560061910888
1772699590655069400,3.5730693359375,0.0815945796251297,-0.02040095559437759,0.015529456550895701
1772699590665026300,3.5830263671875,0.09057225132882595,-0.006326695970608852,-0.012842977962875738
1772699590674983400,3.5929833984375,0.06453589279651642,-0.001219723653839901,-0.005710296517514507
1772699590684941300,3.60294140625,0.09027414516508579,-0.014867935318686068,-0.01239759968239814
1772699590694898400,3.6128984375,0.07860299659371375,-0.0015710441424278542,-0.022494012033625038
1772699590704855600,3.62285546875,0.06603343787789344,0.0042940621984191235,-0.0387314478905173
1772699590714812200,3.632812255859375,0.07755611788928508,0.010163123195176012,-0.030604693927732296
1772699590724769300,3.642769287109375,0.08324351587593555,0.01080772754191421,0.005788246849752613
1772699590734727400,3.6527275390625,0.0781564218699932,0.008368677526456304,0.01864512033641804
1772699590744684500,3.6626845703125,0.07710895864367484,-0.011523287366167641,0.024666074826102703
1772699590754641400,3.672641357421875,0.07785714666247368,-0.02426122035225853,0.03315313630152959
1772699590764598300,3.682598388671875,0.08488952951729298,-0.007367254532105289,0.03151839753943495
1772699590774555400,3.692555419921875,0.08324410039782523,-0.0016089741331757976,0.04033900181816425
1772699590784512300,3.70251220703125,0.07740823385119437,-0.016032371421600692,0.006311669077302212
1772699590794470400,3.712470458984375,0.07426467512845993,-0.005853228673385456,-0.002967430975093157
1772699590804427300,3.72242724609375,0.0792027160525322,0.003252366559184156,-0.01622699095304706
1772699590814384400,3.73238427734375,0.06693184802234173,0.006789687539590522,-0.016339284229592885
1772699590824341200,3.74234130859375,0.08503799807727336,0.02527902365925256,-0.02814722918946063
1772699590834298400,3.75229833984375,0.09087386462390422,0.014485584937594831,-0.012480489909590687
1772699590844256500,3.762256591796875,0.08069967661201953,0.01345952525890898,-0.0013023455946182365
1772699590854213400,3.77221337890625,0.07366612471342086,0.004332910071196966,-0.0037064179115288425
1772699590864170200,3.782170166015625,0.07471358793973923,-0.0030468020836822685,0.0016448839843069434
1772699590874127400,3.79212744140625,0.054662149035930634,0.00300795877748169,0.01649858014426427
1772699590884084500,3.80208447265625,0.07576105116605758,-0.010427048528101295,0.016873167344008105
1772699590894042400,3.81204248046875,0.06887772139310837,-0.005598450194718316,0.020167249586491378
1772699590903999200,3.821999267578125,0.06468611492216586,-0.006212531539029441,0.014858071511797607
1772699590913956400,3.831956298828125,0.08862871604561805,-0.005884094169107266,0.038820459614531136
1772699590923913500,3.84191357421875,0.07201894202828407,0.009667599329771473,0.006600379508323385
1772699590933870300,3.851870361328125,0.08309212470650672,0.011041933590010738,-0.0038897311684937446
1772699590943828200,3.861828125,0.07980068194568157,0.004341207542084157,-0.000784829663936398
1772699590953785300,3.871785400390625,0.08937748858630656,0.019707338173873722,-0.03207446280290605
1772699590963742500,3.881742431640625,0.08668459624052047,0.032599027816415764,-0.020939211206522302
1772699590973699300,3.89169921875,0.07381634683907032,0.01027506827020552,-0.02114648586520925
1772699590983656400,3.901656494140625,0.06319266149401664,0.006062629073788412,-0.017740654910518787
1772699590993614300,3.9116142578125,0.0697778851032257,-0.004308241420821287,-0.016338535310921724
1772699591003571200,3.9215712890625,0.07217208676338195,-0.014569705857359803,0.014221552290103863
1772699591013528300,3.9315283203125,0.05331774868965149,-0.01247976154051721,0.025847183502605182
1772699591023485400,3.9414853515625,0.07232113984525203,-0.021402250724565235,0.031220364440931004
1772699591033442600,3.951442626953125,0.07426525965034961,-0.01099059612841811,0.017365478622308
1772699591043399400,3.9613994140625,0.06977613153755664,0.0015773140530101954,0.027281399290496482
1772699591053357300,3.971357421875,0.07890344084501266,0.0006125150083098561,0.008151798784962739
1772699591063314400,3.981314453125,0.08039981688261032,0.005996075776754878,-0.0036432581522240068
1772699591073271300,3.991271240234375,0.09042553633451461,0.0015613766983617096,-0.008711021836611325
1772699591083228400,4.001228515625,0.08189560839831829,-0.0008470452833920717,-0.03022604247422423
1772699591093185500,4.011185546875,0.07231880175769329,0.008266687589860522,-0.019874171224317977
1772699591103143400,4.021143310546875,0.08518763568103313,0.0018807128797983749,-0.015738324945047497
1772699591113100300,4.031100341796875,0.09027414516508579,0.0026062643751036375,-0.012566710313252405
1772699591123057400,4.041057373046875,0.07591010424792766,0.00470581220393069,-0.009689469809929142
1772699591133014500,4.0510146484375,0.07920213153064251,-0.008324258429417386,0.005984724978145096
1772699591142971400,4.060971435546875,0.07785539309680461,0.00366662818219047,0.031648460509756116
1772699591152929300,4.07092919921875,0.06902677447497844,-0.006653000748949125,0.027687518706242552
1772699591162886400,4.080886474609375,0.08294424066841602,0.004672795850317925,0.03449819423493463
1772699591172843500,4.090843505859375,0.09461538923978804,-0.003161509937955998,0.01714545864647953
1772699591182800400,4.10080029296875,0.09386603217720985,-0.012327082596300169,0.001370734084889409
1772699591192757200,4.11075732421875,0.07157002921700477,-0.011027667602640576,-0.01121499202690902
1772699591202715400,4.12071533203125,0.07830372138619422,-0.002129522841982543,-0.016768019619234836
1772699591212672500,4.130672607421875,0.07590951972603797,0.010120909754955209,-0.021545995160366874
1772699591222629400,4.14062939453125,0.07336568046212195,0.002730196715448983,-0.035193688518693665
1772699591232586500,4.15058642578125,0.06827858645617961,0.002833963050600141,-0.01944343110725749
1772699591242543400,4.16054345703125,0.07127075400948524,0.008178360852436162,-0.003465409946598811
1772699591252500200,4.170500244140625,0.08488719142973422,0.01733504238484893,-0.0030049008831818354
1772699591262458400,4.180458251953125,0.06453706184029578,0.015266191088384947,0.031390115534246435
1772699591272415500,4.19041552734375,0.07171966682076454,0.007737814010703004,0.023179256634716875
1772699591282372400,4.200372314453125,0.07785539309680461,-0.01464043300601188,0.029603937653661705
1772699591292329200,4.2103291015625,0.06378887382149696,-0.020961525786318814,0.02016924746404402
1772699591302286300,4.220286376953125,0.06064589962065219,-0.008779358952888287,0.013739682490716222
1772699591312244500,4.230244384765625,0.06827683289051055,-0.021303982548438943,-0.003905588608040125
1772699591322201600,4.24020166015625,0.08518588211536407,-0.0030628673024941234,0.0012735653122392249
1772699591332158200,4.250158203125,0.07246551675200462,-0.000017316460981965065,-0.007856616943137487
1772699591342115300,4.260115234375,0.06722820062041282,-0.0005753385028103367,-0.026164759268506893
1772699591352072400,4.270072509765625,0.08877601556181908,0.008636301786964758,-0.0314885983395041
1772699591362030300,4.2800302734375,0.09925123234689236,0.015129609329020603,-0.028788152874924706
1772699591371987500,4.289987548828125,0.08668225815296172,0.003004885470983572,-0.020159169028024188
1772699591381944300,4.2999443359375,0.07740589576363563,-0.0020961091961478814,0.00981634074274334
1772699591391901400,4.3099013671875,0.07321779642403126,-0.00987291721010115,0.01592386954582762
1772699591401858300,4.3198583984375,0.07366670923531055,-0.008862082500010728,0.0216040546236909
1772699591411816400,4.32981640625,0.07381634683907032,-0.012953416067408397,0.03348917473930633
1772699591421773300,4.339773193359375,0.06064823770821094,-0.019435366531810723,0.015355511056364048
1772699591431730200,4.349730224609375,0.07321838094592094,0.0008111839521443471,0.011665483732277061
1772699591441687300,4.359687255859375,0.07441548177599906,-0.0041979129141429435,0.003435712353012059
1772699591451644400,4.36964453125,0.0751636697947979,0.0019442750687245279,0.002040051035309443
1772699591461602600,4.3796025390625,0.07306991238594054,0.004947046214435249,0.005768976464524166
1772699591471559200,4.38955908203125,0.08294657875597476,0.017193167962436563,-0.02001141285409685
1772699591481516300,4.399516357421875,0.08130114963650703,0.020934898074297232,-0.014698514160577906
1772699591491473400,4.409473388671875,0.0801040488064289,0.0010471070332918316,-0.019491955557256004
1772699591501430300,4.41943017578125,0.07950666743516921,-0.007236166365188546,-0.012501550963928456
1772699591511387400,4.429387451171875,0.06918167277574538,-0.010530801163520663,0.003453931854647817
1772699591521345300,4.43934521484375,0.06843465380072593,-0.004067779161874205,0.005034228453433025
1772699591531302400,4.449302490234375,0.08669044145941734,-0.01398458117947448,0.020350748360657596
1772699591541259300,4.45925927734375,0.06559153932929039,-0.02344046942074783,0.01947830149123911
1772699591551216400,4.46921630859375,0.06274725581407546,-0.016025462190201505,0.02435580330053344
1772699591561173500,4.479173583984375,0.07830839756131172,-0.0102430382972816,0.027709703138587064
1772699591571131400,4.48913134765625,0.07456745746731758,0.015743731772527098,0.02295394399584038
1772699591581088300,4.499088134765625,0.08130173415839671,0.021097331227548418,0.03219215263213264
1772699591591045400,4.50904541015625,0.07501753932237624,0.0015926851520780474,0.00704035153214354
1772699591601002500,4.51900244140625,0.07157587443590163,0.01149244926990941,-0.0307030351690948
1772699591610959400,4.52895947265625,0.07711305029690266,0.01712523555906955,-0.024386632263637145
1772699591620917200,4.538917236328125,0.06963058558702469,-0.006965304401400499,-0.030955464143760034
1772699591630874400,4.548874267578125,0.07127601470649242,-0.0010692686327500268,-0.030173677532747387
1772699591640831500,4.55883154296875,0.07292202834784985,-0.011154869612306356,-0.010470935618889052
1772699591650788400,4.568788330078125,0.0678343498200178,-0.00951276039450895,-0.0038616809676546835
1772699591660745500,4.578745361328125,0.05721007995307445,-0.009398303701984696,0.03019614965945948
1772699591670703400,4.588703369140625,0.06858253783881664,-0.015855142558016812,0.023364527240861205
1772699591680660500,4.598660400390625,0.08743512234687804,-0.0023486820179969073,0.02624161019726889
1772699591690617300,4.608617431640625,0.08100070538520812,-0.004832900049164891,0.0428253935401095
1772699591700574500,4.618574462890625,0.07845511255562305,-0.011585338018019684,0.01648072939374251
1772699591710531600,4.628531494140625,0.08758242186307906,-0.010682187766372225,0.001376012477383483
1772699591720488200,4.63848828125,0.06738076083362102,-0.0059086577882058915,-0.004856810076892725
1772699591730446300,4.6484462890625,0.056606853362917896,-0.004592319059208967,-0.03330707562107127
1772699591740403500,4.658403564453125,0.06857786166369914,-0.000251129783433862,-0.018602689983777235
1772699591750360600,4.668360595703125,0.060796706268191336,0.0014334760023746638,-0.03661884650058345
1772699591760317400,4.6783173828125,0.0757604666441679,0.01068167630971875,-0.02454887818722054
1772699591770274300,4.6882744140625,0.0892278509825468,0.007458248150651343,0.010536646382417528
1772699591780232400,4.698232421875,0.08593699274361133,0.0035613503099652007,0.009780010195681825
1772699591790189600,4.708189453125,0.0712725075751543,0.009833028157707303,0.023185846205707638
1772699591800146400,4.718146484375,0.08055003900825977,0.0014932250992860643,0.030473044071812182
1772699591810103300,4.728103271484375,0.08324410039782523,-0.0005479618721175939,0.03532165999662829
1772699591820060400,4.738060302734375,0.07232113984525203,-0.0039743606908014045,0.01757960657182266
1772699591830018600,4.7480185546875,0.06199672970771789,-0.010092304714978672,0.033997880029981026
1772699591839975400,4.757975341796875,0.07950374482572078,-0.011637205202574842,-0.0002867422362207435
1772699591849932500,4.7679326171875,0.08459142335355281,-0.0059910114425700154,-0.013846234437997918
1772699591859889400,4.777889404296875,0.0850409206867218,0.02973727257659193,-0.014447672071511623
1772699591869846300,4.78784619140625,0.07726034981310367,0.025000224984181113,-0.007532078859375906
1772699591879803400,4.797803466796875,0.07486673267483711,-0.004340170929045416,-0.011517645359958986
1772699591889761500,4.807761474609375,0.07606383350491523,0.005731689219526015,-0.01756323881726712
1772699591899718400,4.817718505859375,0.06768354317247867,-0.00019110669188667086,-0.009060260536789428
1772699591909675300,4.82767529296875,0.06244622704088688,-0.00924067458801437,0.0017954851358692393
1772699591919632400,4.83763232421875,0.07696107460558414,0.003437906593387015,0.013645915818127104
1772699591929589500,4.847589599609375,0.08159925580024718,-0.015499945045332423,0.019752485639986116
1772699591939547600,4.857547607421875,0.08174830888211726,-0.013201390345953403,0.030640027819306123
1772699591949504300,4.867504150390625,0.0742658441722393,-0.012068048067623748,0.0035838070244790287
1772699591959461400,4.87746142578125,0.06917875016629696,-0.010238110960414633,0.013690046079154125
1772699591969418500,4.88741845703125,0.07336801854968071,-0.012401590870926156,0.01078482844022801
1772699591979375400,4.897375244140625,0.07845569707751274,0.0005953949101502075,-0.0041061589604825715
1772699591989333500,4.90733349609375,0.0854892489761114,0.014810195515770464,-0.004731239476954215
1772699591999290400,4.917290283203125,0.08070143017768859,0.018729547216859644,-0.026738277990277854
1772699592009247500,4.92724755859375,0.07681143700182437,0.018809375553997233,-0.020632296115241477
1772699592019204400,4.937204345703125,0.06873159092068672,0.003308498926903121,-0.03436253264088882
1772699592029161500,4.947161376953125,0.06948036346137523,0.00703803627747111,-0.024699620902677997
1772699592039119400,4.957119384765625,0.07576514281928538,-0.015385351355490275,0.0012688052262645215
1772699592049076200,4.967076171875,0.07935644530951977,-0.011369037519372068,0.020669954394642264
1772699592059033300,4.977033447265625,0.07351999424099921,0.0021415557730710133,0.031128523722302633
1772699592068990500,4.986990478515625,0.07800912235379219,-0.008674195245094597,0.029043817269580902
1772699592078947600,4.996947509765625,0.08040273949205876,-0.0023092450567521153,0.027894998860906343
1772699592088904400,5.006904541015625,0.0718739805996418,-0.006379225308867171,0.03412115021662321
1772699592098862300,5.0168623046875,0.07337035663723945,-0.00017072149098385124,0.033597788496222344
1772699592108819500,5.0268193359375,0.07262216861844062,0.0027585734265623612,0.0022551590864692116
1772699592118776300,5.0367763671875,0.07920563866198062,0.010252646375843322,-0.0009740817546320613
1772699592128733400,5.0467333984375,0.0684317311912775,0.014914811234292573,-0.0260681898591225
1772699592138690600,5.056690673828125,0.0796551359951496,0.004158407454239205,-0.03246099845205899
1772699592148648400,5.0666484375,0.0679834029018879,0.013872868999885395,-0.021171136249275878
1772699592158605300,5.076605224609375,0.07381868492662906,0.006540873010829091,-0.004511211509615532
1772699592168562400,5.0865625,0.06424246280789375,-0.0056563954936107615,-0.0026363415654253913
1772699592178519600,5.09651953125,0.07651216179430484,0.005781346180685796,0.00257986898770032
1772699592188476400,5.106476318359375,0.07980418907701968,-0.0073651721728732805,0.0077601143199455686
1772699592198434300,5.116434326171875,0.07142448326647281,-0.004178774388832972,0.025445895525603553
1772699592208391400,5.126391357421875,0.07082593285143375,-0.0027189127030316737,0.03320395317331422
1772699592218348500,5.1363486328125,0.0736690473228693,0.0036298307026037943,0.03890162139222957
1772699592228305400,5.146305419921875,0.07082651737332343,0.006427274834830314,0.014321539782569743
1772699592238262500,5.156262451171875,0.08474281452298164,0.005539719444536604,0.006105838598674745
1772699592248219400,5.166219482421875,0.07037702004015445,0.011496125364606268,-0.004829712578235194
1772699592258177500,5.176177490234375,0.0802525173664093,0.006521241295174695,-0.025990231535374185
1772699592268134400,5.186134521484375,0.06693593967556953,-0.0018178539437707514,-0.032829619418608486
1772699592278091500,5.196091552734375,0.06843231571316719,0.011839381277747451,-0.0254411645515589
1772699592288048400,5.20604833984375,0.08234861286282538,-0.0002935304533224553,-0.019280842690379357
1772699592298005200,5.216005126953125,0.07456745746731758,0.0022562179615721106,-0.006998650690220529
1772699592307963400,5.22596337890625,0.07022796695828437,0.0083238474374637,0.005963186145661166
1772699592317920500,5.23592041015625,0.06992869175076484,0.005405060214200057,0.005834546805801801
1772699592327877600,5.245877685546875,0.05646130741238594,0.0005873668673215433,0.002952352707792306
1772699592337834200,5.255834228515625,0.08189970005154609,-0.00511292256694287,0.021582605410285758
1772699592347791400,5.265791259765625,0.07531564548611641,-0.009720192600111477,0.019469469730812122
1772699592357749500,5.27574951171875,0.08429390171170234,-0.00948104551541619,0.02031615882117767
1772699592367706600,5.28570654296875,0.08175006244778632,-0.015390214760275557,0.012647027274157153
1772699592377663500,5.29566357421875,0.08908230503201484,0.004739860604004934,-0.01837651768673095
1772699592387620400,5.305620361328125,0.08324643848538399,0.010723277828586288,-0.011509802263509481
1772699592397577500,5.315577392578125,0.0753162300080061,0.010579727472318336,-0.03173693794423016
1772699592407534300,5.325534423828125,0.08010463332831859,0.008821946852444671,-0.0203368339997367
1772699592417492500,5.335492431640625,0.08399638006985187,0.0024064583535306156,-0.01029406865655328
1772699592427449300,5.345449462890625,0.07846095777451992,0.014483689808030612,-0.019560472482512702
1772699592437406500,5.355406494140625,0.08594342248439789,0.009283769377646967,-0.0011596417676104464
1772699592447363300,5.36536328125,0.08833820866644382,0.0042438070156378665,0.004252767211050377
1772699592457320400,5.375320556640625,0.08324936109483241,-0.003960948653379455,0.010745733972277958
1772699592467278600,5.385278564453125,0.08354805178046226,-0.01796991992201656,0.017979575949639545
1772699592477235200,5.395235107421875,0.07038052717149257,-0.01796811155742034,0.01905080250239116
1772699592487192300,5.4051923828125,0.0872889918744564,-0.01101355687889736,0.006049313505311147
1772699592497149400,5.4151494140625,0.06604045214056968,-0.0007795878040604293,0.010642344379751012
1772699592507106600,5.4251064453125,0.07127835279405116,0.0038068906028289346,-0.01744605016989517
1772699592517064400,5.435064453125,0.08070610635280609,0.011820950571913272,-0.021429392176528925
1772699592527021300,5.445021240234375,0.07876023298203945,0.010957725905277766,-0.029658126942755186
1772699592536978400,5.454978515625,0.09132979169785976,0.01648190528738778,-0.013644848380691837
1772699592546935300,5.464935302734375,0.08459668405055999,0.013095276790088973,-0.018802684376662365
1772699592556892400,5.474892333984375,0.05556874248683452,0.0031868133425712584,0.00077265231484198
1772699592566849500,5.484849609375,0.05960954231023788,-0.005896318896440789,0.004258988601749297
1772699592576807400,5.494807373046875,0.07921265292465686,-0.00465073471555952,0.0002820786191907245
1772699592586764300,5.504764404296875,0.08190554527044296,-0.019580917048919944,0.00026424841826665213
1772699592596721400,5.514721435546875,0.0796598121702671,-0.012402088627847842,0.007978450941230402
1772699592606678500,5.524678466796875,0.08040800018906592,0.006893307744269259,0.0272906671590521
1772699592616635400,5.534635498046875,0.06649170303940773,0.007166836589179001,0.010587015729630365
1772699592626593300,5.54459326171875,0.06858604497015476,0.004223216318758204,0.007624814627147861
1772699592636550400,5.55455029296875,0.06948270154893398,0.011643434013961814,0.003913948298542527
1772699592646508300,5.56450830078125,0.06215045896470547,0.013205235404008999,-0.016233838535653192
1772699592656465200,5.574465087890625,0.07786240735948086,0.008786624377314001,-0.003958516950986813
1772699592666422000,5.584422119140625,0.06619067426621913,0.004292121403082274,-0.04610422341453377
1772699592676379100,5.594379150390625,0.07546879022121429,0.0010575507954927162,-0.030877403072023298
1772699592686337300,5.604337158203125,0.07951075908839703,0.007414463807852007,-0.01830902938300278
1772699592696294100,5.614294189453125,0.07517068405747414,-0.002967896195151843,0.00044672427912591955
1772699592706251300,5.624251220703125,0.08444880001246928,-0.009377580574364401,0.004252578268916113
1772699592716208000,5.6342080078125,0.07891279319524765,-0.0017352445610798895,0.020606707299547267
1772699592726165000,5.6441650390625,0.07352467041611671,-0.007163215293409303,0.02202193525917828
1772699592736123100,5.654123046875,0.08370061199367046,0.005429797363234684,0.02809955412283307
1772699592746080300,5.664080322265625,0.08115677272975444,-0.01819932649740949,0.011490938874479615
1772699592756037000,5.674037109375,0.08055880683660507,0.008858945261430926,0.007308378222273313
1772699592765994000,5.683993896484375,0.08340192130804061,0.0006622404681285843,-0.004194631257557193
1772699592775951000,5.693951171875,0.07442424960434436,-0.010590911020035855,-0.005875035792283597
1772699592785909200,5.7039091796875,0.07203004794418812,0.021307937204348853,-0.01781455583036877
1772699592795866400,5.713866455078125,0.07487433145940303,0.023448648160626178,-0.02901851158167701
1772699592805823000,5.723822998046875,0.06724281366765499,0.003734670183411799,-0.025808057068614287
1772699592815780000,5.733780029296875,0.05691723448634147,0.014704132192255928,-0.02499475879119709
1772699592825737200,5.7437373046875,0.07786708353459834,0.008965794036234728,-0.0017725352310109883
1772699592835694000,5.753694091796875,0.07577274160385132,-0.0008185726741561666,0.024321620186429936
1772699592845652200,5.76365234375,0.06454992132186889,-0.004977263256185688,0.023510269554215483
1772699592855609000,5.773609130859375,0.07397650583684444,-0.008354653567681088,0.0282139948323369
1772699592865566000,5.78356591796875,0.06170622232854366,0.0072875083933584385,0.01648736463050591
1772699592875523000,5.793523193359375,0.07741758620142936,-0.008962478701141662,0.024242622966354245
1772699592885480200,5.803480224609375,0.08534837920069693,0.0021495655495906247,-0.003187064504320733
1772699592895438000,5.81343798828125,0.08085925108790397,-0.0016161116934381423,-0.007074482701430679
1772699592905395000,5.82339501953125,0.0694862086802721,0.013242690470721573,-0.006410838581615826
1772699592915352000,5.83335205078125,0.07996025642156601,0.015777282415679654,-0.027676179894898085
1772699592925309200,5.84330908203125,0.08325286822617053,0.005659902624948881,-0.022598326358047777
1772699592935266000,5.85326611328125,0.07502280001938343,0.015228991749999112,-0.02632210297139827
1772699592945224000,5.863223876953125,0.07651917605698108,0.014726522120577283,-0.010959248858795035
1772699592955181000,5.87318115234375,0.08205635191798209,0.010065645036916248,-0.003350195773071027
1772699592965138200,5.88313818359375,0.08160802362859249,0.008140111201279797,0.007843744903476908
1772699592975095000,5.893094970703125,0.08295417754054069,-0.003396528836805373,0.019222963606857227
1772699592985052200,5.90305224609375,0.07158055061101913,-0.01648764547500759,0.0015043880974058993
1772699592995009300,5.91300927734375,0.0691851799070835,-0.0015267392098205163,0.01273086506613181
1772699593004967200,5.92296728515625,0.08399813363552093,-0.004805738047603518,0.01834732926650904
1772699593014924000,5.932924072265625,0.07606675611436367,0.0006653183412039652,0.009024693749775178
1772699593024881200,5.942881103515625,0.06828676976263523,0.0077688028040109195,-0.0021576050088624467
1772699593034838300,5.95283837890625,0.07217734746038913,0.0016902866079239174,-0.013055371754674706
1772699593044795100,5.962795166015625,0.07651625344753266,-0.00025881533296778797,-0.004773293086970807
1772699593054753000,5.9727529296875,0.07606792515814303,0.002780972488038242,-0.01715412030190346
1772699593064710100,5.982710205078125,0.08504618138372898,0.006566678738943301,-0.022736444770661182
1772699593074667300,5.992667236328125,0.08175415410101414,0.0171567906079581,-0.03390007764473557
1772699593084624100,6.0026240234375,0.07891103962957859,0.00563461292006541,-0.008256147929537109
1772699593094581200,6.012581298828125,0.07861234894394874,0.005777734018070623,-0.005158720199493109
1772699593104538000,6.0225380859375,0.06589373714625835,-0.0007137149270391092,0.005942017776757711
1772699593114496300,6.032496337890625,0.07113046875596046,-0.012781246971432118,0.012034726894978667
1772699593124453000,6.042453125,0.08160510101914405,-0.013084641231643036,0.03439017413306283
1772699593134410200,6.05241015625,0.07068214046657086,-0.00835143413071055,0.02134604300832143
1772699593144367000,6.0623671875,0.07846329586207866,0.003359585226746276,0.017695353322423762
1772699593154324000,6.072323974609375,0.083550389868021,-0.0047907003086758776,0.012486103374691446
1772699593164282000,6.0822822265625,0.0822042359560728,0.008773431535600684,0.0201624227143242
1772699593174239200,6.0922392578125,0.08564590084254742,0.030201497121434658,-0.02438731268364936
1772699593184196400,6.1021962890625,0.08444880001246928,0.010647856238507666,-0.02616584611389553
1772699593194153000,6.112153076171875,0.07158055061101913,0.0052873064528917895,-0.024211615906737278
1772699593204110000,6.122110107421875,0.07621990084946155,-0.00005539258220233023,-0.044828819484123955
1772699593214068200,6.132068115234375,0.0883393777102232,0.005412467202520929,-0.01621694790800102
1772699593224025300,6.142025390625,0.07352467041611671,0.0014082502295728772,-0.022286723675206302
1772699593233982200,6.151982177734375,0.0730763421267271,0.007878528522490524,-0.002648884811523021
1772699593243939000,6.16193896484375,0.08220365143418312,-0.012008837826829403,0.03326907713166438
1772699593253896200,6.171896240234375,0.055418520361185074,-0.015051630455674602,0.03718723010622198
1772699593263853000,6.18185302734375,0.06783844147324562,-0.0024295515347504985,0.04171844151178375
1772699593273811200,6.191811279296875,0.06678980920314788,0.010973297933745197,0.0238664808470523
1772699593283768000,6.20176806640625,0.07801262948513031,0.0024889672715216874,-0.007084573695537983
1772699593293725200,6.21172509765625,0.08010755593776703,0.007691481517790816,0.007167535275500268
1772699593303682000,6.22168212890625,0.08399696459174155,0.010179736403259448,-0.00795132946804224
1772699593313639200,6.23163916015625,0.08235095095038414,0.014044065414904616,-0.00930241128767957
1772699593323597300,6.241597412109375,0.08923486524522305,-0.00008918068737257272,-0.018709018168773035
1772699593333554000,6.251553955078125,0.07681494413316249,0.015230653984122908,-0.0365056981324451
1772699593343511000,6.261510986328125,0.0802566090196371,-0.0002053087471751496,-0.0138029067529249
1772699593353468200,6.27146826171875,0.08220131334662437,-0.0023781729739625005,0.003679608678061049
1772699593363425000,6.281425048828125,0.08489537473618984,0.0014112093716394155,0.0032540647551039
1772699593373382100,6.291382080078125,0.07367255445420742,0.006798985090898349,0.02901099499550182
1772699593383340000,6.301340087890625,0.06873392900824546,0.006552499516541138,0.029741446428210472
1772699593393297200,6.311297119140625,0.0672375529706478,-0.0036427541162585837,0.027680120851076205
1772699593403254000,6.32125390625,0.06050327627956867,-0.007661460838862695,0.034194000823702664
1772699593413211100,6.331211181640625,0.06409516329169274,-0.014286491302074864,0.029576394342898854
1772699593423168300,6.341168212890625,0.07711305029690266,-0.009315032165590674,0.00036873741426970806
1772699593433126100,6.351126220703125,0.08489420569241046,0.0016342684046365319,-0.015281162611942272
1772699593443083000,6.3610830078125,0.07202537176907062,0.007067568332632072,-0.027326462274929506
1772699593453040000,6.3710400390625,0.07486790171861649,-0.007871368129341862,-0.02042417207318358
1772699593462997200,6.380997314453125,0.07262333766222,0.021159190083155408,-0.02122656536409631
1772699593472954000,6.3909541015625,0.09057926559150219,0.02167277932821307,-0.02113317200919846
1772699593482912000,6.400912109375,0.08130173415839671,0.008700211035762913,-0.024439150185452306
1772699593492869000,6.410869140625,0.0717255120396614,0.008638397845928557,0.00067932060873718
1772699593502826200,6.420826171875,0.07756137858629227,0.0019092996534658595,0.016868048210896085
1772699593512783000,6.430783203125,0.06918225729763508,-0.012514389895903878,0.017878543852624714
1772699593522740200,6.440740234375,0.06603986761868,-0.004088840216211974,0.021436952145188114
1772699593532697000,6.450697021484375,0.06918167277574538,-0.025919120794232003,0.01097179324653698
1772699593542655200,6.4606552734375,0.07860825729072093,-0.020962955125002188,0.005471765349927591
1772699593552612000,6.470612060546875,0.08145078724026679,-0.007775433474197052,0.006574359151077806
1772699593562569200,6.4805693359375,0.07890636345446109,-0.013154856923641637,0.0009603449194022686
1772699593572526300,6.4905263671875,0.08249766594469547,0.013356553508201613,-0.020374962636595592
1772699593582483000,6.50048291015625,0.08938158023953437,0.023449187016743235,-0.029297419854602776
1772699593592441000,6.510441162109375,0.07756020954251289,0.002956278822594322,-0.02472180761831114
1772699593602398200,6.520398193359375,0.0862391905605793,0.008791428416594863,-0.020619986906228585
1772699593612355300,6.530355224609375,0.08743570686876773,-0.01255914691966027,-0.010465501391945872
1772699593622312200,6.540312255859375,0.07097557045519351,0.000690909440186806,0.001844842415396124
1772699593632269000,6.55026904296875,0.08085106778144836,-0.005691028415574692,0.0029939199773303697
1772699593642226200,6.56022607421875,0.06843114666938781,-0.01068031090311706,0.01867671876779059
1772699593652183800,6.570183837890625,0.07082476380765437,-0.02050990956129972,0.013958442091220057
1772699593662141000,6.580140869140625,0.07561258260607719,0.0002837031790520996,0.021963012712751515
1772699593672097800,6.590097900390625,0.06379062738716602,0.0072200372142950065,0.010400786142260766
1772699593682054700,6.6000546875,0.058254036048054694,-0.01723642258227337,0.00114989612090867
1772699593692011800,6.61001171875,0.08369242868721484,0.015981239455984904,-0.008752380756061757
1772699593701970000,6.619969970703125,0.08144786463081836,0.008873654206795617,-0.022089842546370343
1772699593711926800,6.6299267578125,0.06588555383980274,0.0034660960748326033,-0.03414637598942499
1772699593721883600,6.639883544921875,0.08010112619698047,0.0031910419931169597,-0.017431828706653323
1772699593731840800,6.6498408203125,0.06693243254423141,-0.004695971229928545,-0.01763167354413308
1772699593741797600,6.659797607421875,0.04882628248929977,-0.005482112072361633,-0.03570428665564395
1772699593751754800,6.669754638671875,0.07531272287666797,-0.011489334864215925,-0.003931047847104492
1772699593761713000,6.679712890625,0.0777075090587139,-0.013006708024069667,0.004932028454283136
1772699593771669800,6.689669677734375,0.0777075090587139,0.005465343600651249,0.024847039149887857
1772699593781626600,6.699626708984375,0.07980243551135063,-0.009785417023161425,0.017456412875349634
1772699593791583700,6.709583740234375,0.07636077062487602,0.006359579893480986,0.010665798320574685
1772699593801540900,6.719540771484375,0.07920330057442188,0.0031271327443188053,0.020122319032798985
1772699593811499000,6.7294990234375,0.07815583734810352,-0.004777087341854349,0.0035867028052860403
1772699593821455600,6.73945556640625,0.08309446279406547,0.0034175807579886167,-0.012641613596811657
1772699593831412700,6.749412841796875,0.08414192602038383,0.005903479289589449,-0.006475348335324088
1772699593841369900,6.759369873046875,0.089380411195755,-0.009210558010963722,-0.019782246024010235
1772699593851326700,6.76932666015625,0.08264730354845523,0.0008567355603445321,-0.04198784673742484
1772699593861283800,6.779283935546875,0.07411854465603827,-0.0032585360050667077,-0.02281823216944467
1772699593871241700,6.78924169921875,0.06663666446805,0.020188970511243676,-0.002159811807324877
1772699593881198800,6.79919873046875,0.07920680770576,0.0020351956220343707,-0.009583827753167132
1772699593891155700,6.80915576171875,0.0687321754425764,0.002927605283958837,0.009281288013726588
1772699593901112800,6.81911279296875,0.05945464400947094,0.00008444971332792192,0.0029704049585358005
1772699593911070000,6.829070068359375,0.07037877360582351,0.009759364699875005,0.03535198891952168
1772699593921027800,6.83902783203125,0.07830956660509109,0.010817869910015723,0.03370603464366868
1772699593930984700,6.848984619140625,0.07127601470649242,0.005629690149775706,0.011882743212149943
1772699593940941800,6.85894189453125,0.06588789192736148,0.009014049058174715,0.005431875155889429
1772699593950899000,6.86889892578125,0.06828150906562805,0.004920770128862932,-0.001417788097009179
1772699593960855800,6.878855712890625,0.07651157727241516,0.006422005004668608,-0.0108144997759955
1772699593970812700,6.888812744140625,0.06094985100328922,-0.0032459368183976036,-0.021608646317129023
1772699593980770800,6.898770751953125,0.08324643848538399,0.00043147305271122604,-0.03049101355334278
1772699593990728000,6.90872802734375,0.0796551359951496,-0.0010802695173770189,-0.015745734216657002
1772699594000684800,6.918684814453125,0.08160100936591624,0.0017389526218175887,-0.01731588102665264
1772699594010642000,6.928641845703125,0.06603869857490062,0.008547495558927766,0.011391720850282581
1772699594020598800,6.938598876953125,0.07247311553657054,0.009476830564602278,0.017319329934130656
1772699594030557000,6.948556884765625,0.07830956660509109,-0.014197648541419767,0.028006165334512476
1772699594040513800,6.958513671875,0.07262333766222,-0.016547362605878153,0.025849985097756142
1772699594050471000,6.968470947265625,0.053469724380969995,-0.024466606731247155,0.015638620580371933
1772699594060428000,6.978427978515625,0.07501812384426593,-0.01756059476903174,0.012457670723006594
1772699594070384600,6.988384521484375,0.05915653784573078,-0.007837050301209092,0.00918208483090566
1772699594080341800,6.998341796875,0.07456862651109696,-0.011002062803925945,0.00550367316690972
1772699594090300000,7.0082998046875,0.06753565913438797,0.010846634780196472,-0.0037211217194941127
1772699594100257000,7.018257080078125,0.08175064696967602,0.0065100166482618075,-0.0019266275308909824
1772699594110213600,7.028213623046875,0.06559037028551101,0.0030411851936485617,-0.019082728585682343
1772699594120170800,7.038170654296875,0.07531739905178546,0.01356737868071068,-0.023524910000921224
1772699594130128000,7.0481279296875,0.057361471122503276,0.007787183277495205,-0.027006457089923785
1772699594140085800,7.058085693359375,0.0649941579580307,-0.005023440485470928,-0.004364215670802514
1772699594150043000,7.06804296875,0.07517009953558444,-0.012052151812170632,-0.010423266260483068
1772699594159999700,7.077999755859375,0.06200199040472507,0.007536542117828502,0.006753994600879378
1772699594169956600,7.08795654296875,0.06963292367458343,-0.000695078725228086,0.023442887423408682
1772699594179913700,7.097913818359375,0.07023088956773281,-0.012032643394102342,0.02840985533115454
1772699594189870800,7.107870849609375,0.08564297823309898,-0.012137213446851819,0.024299506536033005
1772699594199828700,7.117828857421875,0.07831073564887046,-0.005089395560882985,0.004384713894492597
1772699594209785600,7.12778564453125,0.07187690320909022,-0.004706748352269642,0.005036154407393769
1772699594219742700,7.13774267578125,0.08444704644680023,0.007105078198271803,-0.008954503744773683
1772699594229699800,7.147699951171875,0.073973583227396,0.003496112187183462,-0.018453263584215892
1772699594239656700,7.15765673828125,0.07771510784327984,0.00529077248503454,-0.015975387387222144
1772699594249613800,7.16761376953125,0.07936170600652694,0.012297194348112678,-0.018023145663307514
1772699594259571700,7.17757177734375,0.08100830416977405,0.009548694790992886,-0.01753231395604089
1772699594269528800,7.18752880859375,0.07831482730209827,-0.004988191075576469,-0.007847778903666766
1772699594279485700,7.197485595703125,0.06275251651108264,0.014148155977041459,0.0004413722505734767
1772699594289442800,7.20744287109375,0.08070844444036483,0.0003972419895464554,0.02873498193256091
1772699594299400000,7.21739990234375,0.07666764461696148,-0.011475173908122815,0.02520152199323056
1772699594309357800,7.22735791015625,0.07202829437851906,-0.009024314723862335,0.024493328058102632
1772699594319314700,7.237314697265625,0.0723269850641489,-0.004091826757742092,0.03251928852753481
1772699594329271800,7.247271728515625,0.08175473862290382,0.0035563270749757064,0.020475746996793893
1772699594339229000,7.25722900390625,0.08399813363552093,-0.012048233688878826,0.006988339929582434
1772699594349185800,7.267185791015625,0.06828618524074553,0.003149951930902898,-0.009049808783078333
1772699594359142700,7.277142578125,0.08639233529567718,-0.003967593023297376,-0.02450103415723424
1772699594369100800,7.287100830078125,0.09641747022569179,0.0055081826619571075,-0.02450660994807258
1772699594379058000,7.297057861328125,0.08250175759792328,0.00754244670222979,-0.004440580259085982
1772699594389014800,7.307014892578125,0.0723269850641489,0.00527321856203489,-0.02132810549283167
1772699594398972000,7.316971923828125,0.0732248106867075,-0.004384795522061177,-0.01684047635902534
1772699594408928800,7.3269287109375,0.07307517308294773,0.0034254672369221223,-0.0014146268838987452
1772699594418887000,7.336886962890625,0.07786357640326022,0.013022549480595625,0.016413781087775713
1772699594428843800,7.34684375,0.08160393197536468,0.008770792053942569,0.024989361096872015
1772699594438801000,7.35680078125,0.07397241418361664,0.0015533669218420981,0.013887927288410718
1772699594448757800,7.3667578125,0.07681669769883155,-0.003909067769092507,0.021013769713498186
1772699594458714600,7.376714599609375,0.08399930267930031,-0.002160854128585197,0.004320334859058493
1772699594468672800,7.3866728515625,0.07292670452296733,0.0004258652958320454,0.009699174928257706
1772699594478630000,7.3966298828125,0.06933540203273296,-0.001841116088349372,0.006403060558892321
1772699594488587000,7.4065869140625,0.06813830120265484,-0.0018523316021077333,-0.012887597989314235
1772699594498543600,7.416543701171875,0.06709083797633647,0.00845746092160698,-0.023520827480847946
1772699594508500700,7.426500732421875,0.0822042359560728,0.0108895149406977,-0.021926767789013684
1772699594518457900,7.436457763671875,0.08265373328924179,0.007331690028379671,-0.00398628630732419
1772699594528416000,7.446416015625,0.06350012000799178,0.0007629608962452038,-0.025101564183516892
1772699594538372900,7.456372802734375,0.06559504646062851,0.016788441352755763,0.009210983844293514
1772699594548329700,7.466329833984375,0.08744272113144397,0.012560165266389959,0.01967927199001424
1772699594558286800,7.476286865234375,0.07951192813217639,-0.009946859229146503,0.0127803998713498
1772699594568243700,7.48624365234375,0.08370236555933952,0.001073826076858677,0.025369610852422193
1772699594578200800,7.496200927734375,0.0751724376231432,-0.001873283058591187,0.021693646303017157
1772699594588158700,7.50615869140625,0.07472410933375358,-0.006405716023570858,0.025154945188434794
1772699594598115600,7.516115478515625,0.08055939135849476,-0.006780650283186696,0.014834613004396669
1772699594608072700,7.52607275390625,0.07711655742824078,-0.0028207565091550348,-0.011763839815015671
1772699594618029800,7.53602978515625,0.08938800998032093,0.008688237470178864,-0.02076600321421865
1772699594627987000,7.545987060546875,0.08295300849676132,0.019027772111608644,-0.01804447842899244
1772699594637944600,7.555944580078125,0.0808580820441246,0.015347138236952013,-0.015780098852206718
1772699594647902200,7.565902099609375,0.08190554527044296,0.0034460533672245218,-0.02739791550936643
1772699594657859000,7.575859130859375,0.07307751117050647,0.018191462851362302,-0.01277654568013968
1772699594667816200,7.585816162109375,0.0842997469305992,0.00968939103647135,0.0022591194506007013
1772699594677773300,7.595773193359375,0.07068214046657086,0.000861055542435497,0.007547980252228444
1772699594687730200,7.605730224609375,0.07457388720810412,-0.004976509770937263,0.02598149567306973
1772699594697688000,7.61568798828125,0.06619359687566757,-0.007355299232830293,0.009099581050314009
1772699594707645200,7.625645263671875,0.07173077273666859,-0.0037831626673694697,0.016129171443136872
1772699594717602300,7.635602294921875,0.08998772943913937,-0.004526208720169961,0.020301890550518873
1772699594727559200,7.64555908203125,0.057068041133880615,-0.003066739760013297,0.025515378281951415
1772699594737516300,7.655516357421875,0.06574702215194701,-0.00822036423010286,0.0062677585828059814
1772699594747474200,7.66547412109375,0.06514730269312859,0.020766190443886442,0.004667746928331325
1772699594757431000,7.67543115234375,0.06993629053533076,0.016285661196080034,-0.01849935747346608
1772699594767388200,7.68538818359375,0.08280512445867061,0.015075997711950912,-0.01727104522943846
1772699594777345300,7.69534521484375,0.0745750562518835,0.008741689257044345,-0.01765949313282035
1772699594787302100,7.70530224609375,0.08490005091130733,-0.005860873123724014,-0.010788886985770659
1772699594797259000,7.715259033203125,0.06484978105127812,-0.0026946459114551543,-0.008191820838919374
1772699594807217200,7.725217041015625,0.07741992428898811,0.004466847782325931,0.015321427265316014
1772699594817174300,7.73517431640625,0.08669804024398327,-0.003843966643628664,0.02889408376769861
1772699594827131100,7.745131103515625,0.07068681664168834,-0.008103651648410596,0.008239167111983988
1772699594837088000,7.755087890625,0.0783177499115467,0.003937558644637466,0.028789774009853133
1772699594847045000,7.765045166015625,0.08160977719426155,-0.0053877117871772495,0.019435336849058512
1772699594857002000,7.775001953125,0.07517419118881224,-0.003814822747535072,0.030212007099005858
1772699594866960100,7.784960205078125,0.0811585262954235,0.021591192858829163,0.009219047278095967
1772699594876917200,7.794917236328125,0.08460019118189811,0.021242096293368377,0.00038434940028819254
1772699594886874000,7.8048740234375,0.08325345274806022,0.00909332940604072,-0.019929346894100308
1772699594896831000,7.8148310546875,0.0654471624225378,0.001586753168213181,-0.020111306731728836
1772699594906788000,7.8247880859375,0.06963643080592155,0.017124596238252705,-0.012633291009749519
1772699594916746200,7.834746337890625,0.07038578786849975,0.013519959342409855,-0.026565821199933996
1772699594926703000,7.844703125,0.07562310400009155,0.007367820787685923,-0.003272140980378026
1772699594936660000,7.854659912109375,0.06739420483708382,0.005070078939059749,0.015108327937329885
1772699594946617000,7.8646171875,0.060661681711673736,0.004383041956392116,0.01226382636805065
1772699594956574200,7.87457421875,0.06769406456649303,0.01813957740049809,0.023602514414931646
1772699594966531000,7.884531005859375,0.08101122677922248,-0.00018421116021927444,0.03202934501954587
1772699594976489000,7.894489013671875,0.0766711517482996,0.0030502909487113354,0.02458885628787102
1772699594986446000,7.904446044921875,0.06484919652938842,0.005002562094223686,0.019291765943192877
1772699594996403200,7.9144033203125,0.054822892555594444,0.004149630492739379,-0.010675942971964832
1772699595006360000,7.924360107421875,0.07517360666692256,0.0027737709956942125,-0.004634636389062507
1772699595016317200,7.934317138671875,0.09731997202336788,0.0010381017429288476,-0.011874699186300857
1772699595026275000,7.944275146484375,0.08041092279851436,0.0026424681996461002,-0.004917271559857181
1772699595036232200,7.954232177734375,0.07816635874211787,-0.003681373660173267,-0.024127951644698623
1772699595046189000,7.96418896484375,0.0750239690631628,-0.0028386255259858443,-0.02024981558669824
1772699595056146200,7.974146240234375,0.07532265974879264,-0.0018732739254366606,-0.0059670825777109705
1772699595066103300,7.984103271484375,0.06439969919621943,0.01039389061059337,-0.0020195836360158864
1772699595076060200,7.99406005859375,0.06903788039088249,0.006037001442187466,0.004720682691966066
1772699595086018000,8.00401806640625,0.07756780832707881,-0.00496497459677048,0.02241040028722491
1772699595095975200,8.01397509765625,0.08130991746485233,-0.005744740497344174,0.029945392052072563
1772699595105932300,8.023932373046875,0.08086100465357303,-0.005025984069006517,0.012365649624576326
1772699595115889200,8.03388916015625,0.07801789018213748,-0.0074181216362398114,0.02632109604111174
1772699595125846300,8.04384619140625,0.07876607820093631,-0.010431825167918577,0.013907410590304061
1772699595135804200,8.05380419921875,0.07996376355290412,0.00833796272778418,0.00504332279205264
1772699595145761300,8.06376123046875,0.07831658086776733,0.014013789007649756,-0.01993334721578285
1772699595155718100,8.07371826171875,0.09313011911809443,0.009338687035813927,-0.006482832955458434
1772699595165675300,8.08367529296875,0.07487491598129271,0.020290010599768718,-0.02563373483145842
1772699595175632100,8.093632080078125,0.0831061532318592,0.02304188029090874,-0.021417701738735195
1772699595185589000,8.103589111328125,0.06679623894393444,0.023309997741761616,0.0057036766929493745
1772699595195547100,8.113547119140625,0.07367956871688365,0.015787963639898223,0.021969093110377435
1772699595205504300,8.123504150390625,0.0961252092808485,-0.009339545552339405,0.02018198593131965
1772699595215461000,8.133461181640625,0.08220891213119029,-0.0058729608537396415,0.0054335048531502245
1772699595225418000,8.14341796875,0.06515080982446671,0.015158113904297351,0.02102031818529358
1772699595235375000,8.153375,0.07727145572900772,0.0041347571505932134,0.03421428327661706
1772699595245332200,8.163332275390625,0.07487666954696177,-0.013072206441755406,0.022035730889090336
1772699595255290000,8.1732900390625,0.07038695691227913,-0.0033670104813762008,0.00998332791517023
1772699595265247200,8.183247314453125,0.09567571194767951,-0.002451818165485747,-0.012092635661253006
1772699595275204000,8.1932041015625,0.08490238899886608,0.0009504097597440704,-0.0118798559936753
1772699595285161000,8.203160888671874,0.07861760964095592,0.012297911300742998,-0.017209058509668102
1772699595295118000,8.2131181640625,0.0739782594025135,0.010690608534845523,-0.04256211209457833
1772699595305076200,8.223076171875,0.08819441628158092,0.010554382968507706,-0.018296782964427254
1772699595315033000,8.233033203125,0.08744739730656147,-0.005364116282458416,-0.015228317038208478
1772699595324990000,8.242989990234374,0.06904255656599997,-0.00004403550454881042,0.00976237635758007
1772699595334947000,8.252947021484376,0.07143675822615624,0.006696269068517721,0.018605659400642616
1772699595344904200,8.262904296875,0.07667465887963772,-0.007032611183682456,0.0249520909765386
1772699595354861000,8.272861083984376,0.07263444357812404,-0.0009869012786541133,0.02332418153074104
1772699595364819000,8.28281884765625,0.07113865206241607,-0.0011091987843392416,0.021439219450799282
1772699595374776000,8.292776123046876,0.06560147620141506,-0.0012008682563202455,0.0083393087264325
1772699595384733200,8.302733154296876,0.07083820781111717,0.0029931219679536296,0.007458425105520291
1772699595394690000,8.31268994140625,0.0654518385976553,0.013563355526141822,-0.006475183938542613
1772699595404647200,8.322647216796875,0.06530220099389553,0.004950019056233577,0.0005399909115047194
1772699595414604300,8.332604248046875,0.06829553759098053,-0.0009166855866555123,-0.000038225676625734195
1772699595424562200,8.342562255859375,0.07817220396101475,-0.0038941076619783415,-0.007545779161987593
1772699595434519000,8.35251904296875,0.06949380746483802,0.002891798751638271,-0.013674236588669009
1772699595444476200,8.36247607421875,0.08011807733178138,0.0072584695285418995,-0.01309732147505856
1772699595454433300,8.372433349609375,0.0883481455385685,0.0004247190849389881,-0.01000227692752378
1772699595464390100,8.38239013671875,0.06994272027611732,-0.00007401508428156376,0.00632135193356662
1772699595474348000,8.39234814453125,0.07128887418806552,-0.005180366346542723,0.020863205094553996
1772699595484305200,8.40230517578125,0.06949322294294834,0.002625722560822032,0.017314581835421266
1772699595494262300,8.41226220703125,0.07892097650170325,-0.004473231857339851,0.022877682155545333
1772699595504219100,8.42221923828125,0.07547931161522865,0.012609242272237316,0.03443980826133629
1772699595514176300,8.43217626953125,0.07099018350243567,-0.001322471642261371,0.016259997031860984
1772699595524133000,8.442133056640625,0.07712474073469638,0.007643578122300095,0.0013858545930299441
1772699595534091300,8.45209130859375,0.08700023806095122,-0.002395708630653098,0.0068944630883168425
1772699595544048000,8.462048095703125,0.07308335638940334,0.008796899176156147,-0.0026471809073816983
1772699595554005200,8.472005126953125,0.06949205389916896,0.0022858002490829675,-0.020175800502416675
1772699595563962000,8.481962158203125,0.07009118883609772,0.0034097353782504797,-0.023532353521860203
1772699595573919000,8.4919189453125,0.06066401979923248,0.020932875080569645,-0.016638833431748205
1772699595583877000,8.501877197265625,0.0739823510557413,0.015537664973526261,-0.004752056790230563
1772699595593834200,8.511834228515625,0.0760784465521574,0.017973280922882258,0.011353056782239582
1772699595603791400,8.521791259765624,0.07667758148908614,0.0066555945648346096,0.02628120242214063
1772699595613748000,8.531748046875,0.059469841578602786,-0.007198455570149235,0.016977134608558844
1772699595623705000,8.541705078125,0.06201309632062912,0.0032426260498818007,0.009651424513105302
1772699595633662200,8.551662109375,0.089096918079257,0.006883708798862062,0.014568194320285692
1772699595643620400,8.561620361328124,0.08356032674014569,-0.0022742057094117625,0.009985949130519292
1772699595653576700,8.57157666015625,0.08670271641910075,-0.0037579414611449463,0.01294736763582332
1772699595663533600,8.581533447265626,0.07607727750837802,0.004804587270133197,0.004575225218868582
1772699595673490400,8.591490478515626,0.07517945188581943,0.005831966689648106,-0.008977911449002568
1772699595683447600,8.601447509765626,0.08071545870304107,0.011673427293426356,-0.01010616770190536
1772699595693404400,8.611404296875,0.06680033059716224,0.008499692628136836,-0.02094888550045434
1772699595703362600,8.621362548828126,0.07682605004906654,0.010083135027834214,-0.0036915833852894137
1772699595713319400,8.6313193359375,0.0687456194460392,0.008354744899226352,-0.011219169303460511
1772699595723276500,8.641276611328125,0.07682605004906654,0.0016299118899274617,0.0015881431201676605
1772699595733233400,8.6512333984375,0.08610358148217201,-0.0009458431824808939,0.005792195226618787
1772699595743190500,8.6611904296875,0.07667641244530678,-0.010252609843225218,0.020162217218347357
1772699595753147600,8.671147705078125,0.07742401594221592,0.008043021202087402,0.02868256219215691
1772699595763105300,8.681105224609375,0.09014204321801662,0.01077170181388501,0.0185025757687923
1772699595773062400,8.6910625,0.08655015620589256,-0.009250008671940304,0.01409559695603093
1772699595783019500,8.70101953125,0.07472878550887108,-0.0017371122911805285,0.012532448425691109
1772699595792976600,8.7109765625,0.07577624873518943,0.018854379172925838,0.0058960860010003665
1772699595802933500,8.72093359375,0.07233458384871483,0.014860062539484352,-0.005313801734172739
1772699595812891400,8.730891357421875,0.07472878550887108,0.008000474401726387,-0.01285790382066043
1772699595822848500,8.7408486328125,0.08864566718041897,0.01963148732553236,0.0021953135206131263
1772699595832805400,8.750805419921875,0.08819616984724998,0.004439530517137609,-0.0233291659498238
1772699595842762500,8.760762451171875,0.09059037150740623,-0.0002523536261403933,-0.01813051731120795
1772699595852719600,8.7707197265625,0.07876900081038475,0.00036458639553748067,-0.0042562503678578644
1772699595862676700,8.7806767578125,0.07742226237654685,0.004722375179664231,0.002856686909883865
1772699595872634400,8.79063427734375,0.0786187786847353,-0.009597287739650346,0.028542359137022865
1772699595882591500,8.800591552734375,0.07562602660953999,-0.007197017098311335,0.02005865637917304
1772699595892548600,8.810548583984374,0.07233399932682513,0.0052323887947248295,0.02362566696165595
1772699595902505500,8.82050537109375,0.08026420780420303,0.015333251275494694,0.022128370758739763
1772699595912462600,8.830462646484374,0.07981529499292374,0.02042774770318065,0.03032234702212736
1772699595922419500,8.84041943359375,0.07383037536442279,0.005339908856386319,-0.006199394637887598
1772699595932377600,8.850377685546874,0.08041442992985248,0.0069987774127395815,-0.014677269301505293
1772699595942334500,8.86033447265625,0.0898421834886074,0.020028546651988288,-0.018913290302909443
1772699595952291600,8.87029150390625,0.08086509630680083,-0.00012555347527377306,-0.016552057047304697
1772699595962248400,8.88024853515625,0.08505494921207428,0.015057813601288944,-0.013508782644558232
1772699595972205300,8.890205322265626,0.0623100334405899,-0.007201099618384614,-0.006231493680292624
1772699595982163500,8.90016357421875,0.07113806754052639,0.004384137934935279,0.004313591736907256
1772699595992120600,8.91012060546875,0.07128770514428615,-0.002692421988327987,0.010431252062472049
1772699596002077700,8.92007763671875,0.07592647086083888,0.007168987447069957,0.008932277071589487
1772699596012034300,8.930034423828126,0.08550327750146389,0.0070251082972390575,0.028797649072343483
1772699596021991400,8.939991455078125,0.07009060431420802,0.006798765895189717,0.017579186446714447
1772699596031948500,8.949948486328125,0.07218553076684475,0.008119748833263293,0.01787284818913322
1772699596041906700,8.95990673828125,0.08699906901717186,0.0023188531353138388,-0.00026988585789804344
1772699596051863600,8.969863525390625,0.07517711379826068,0.007075938868755474,0.0020173260343814034
1772699596061820400,8.9798203125,0.07427870365381241,0.003915995266800746,-0.0001423932997538941
1772699596071777500,8.989777587890625,0.07158522678613663,0.005145171735575422,-0.0244660244926461
1772699596081734400,8.999734375,0.0869973154515028,0.008352954800939187,-0.023343991342908703
1772699596091691500,9.00969140625,0.07846855655908584,0.0005874490657122805,-0.008080574450211134
1772699596101649400,9.0196494140625,0.06709551415145397,0.01205989672720898,-0.008873230656754457
1772699596111606500,9.0296064453125,0.06784370217025279,0.016473932043486274,-0.001597705532956752
1772699596121563400,9.0395634765625,0.07337970898747444,0.010893675092584452,0.014257329139672219
1772699596131520500,9.0495205078125,0.06470014344751834,-0.006883777297521009,0.013592726609454257
1772699596141477600,9.0594775390625,0.07517419118881224,0.00031799817429855465,0.0249906032058876
1772699596151435500,9.069435546875,0.06275485459864139,0.0020023482317803425,0.027219312106026336
1772699596161392400,9.079392333984375,0.0745750562518835,0.012880990152014419,0.025186491104168814
1772699596171349500,9.089349609375,0.072779989528656,-0.0014965815335744991,0.01919744785639923
1772699596181306600,9.099306640625,0.06095803430974483,-0.004454691553651355,0.008248899058953974
1772699596191263500,9.109263427734374,0.07083411615788936,0.012748395014600828,-0.014433052174403565
1772699596201220600,9.119220703125,0.07532324427068234,0.019926981407077982,-0.014580932787561323
1772699596211178500,9.129178466796875,0.08864099100530147,0.01292715368156787,-0.012442671799985691
1772699596221135600,9.139135498046874,0.08998831396102905,0.016488444626028647,-0.0191514304573182
1772699596231092500,9.149092529296874,0.08041092279851436,0.014272595207463018,-0.0033027125026885186
1772699596241049600,9.159049560546874,0.07756722380518913,0.006927808235492557,0.002041370776138501
1772699596251006700,9.1690068359375,0.07068389403223992,-0.005693165573733858,0.011777826099528465
1772699596260963300,9.17896337890625,0.05826397292017936,0.003504989613383077,0.013570132326800375
1772699596270921500,9.18892138671875,0.08774316538274288,-0.005907739906175993,0.013134205719613237
1772699596280878600,9.198878662109376,0.07472410933375358,-0.010431158447638153,0.019909580464416647
1772699596290835700,9.208835693359376,0.06574526858627795,-0.009504230028181336,0.023146269963856318
1772699596300792600,9.21879248046875,0.06664309420883655,-0.001020538686774671,0.011302365491329692
1772699596310749400,9.22874951171875,0.08070785991847515,-0.0036213186025852336,0.007931771388446213
1772699596320706600,9.23870654296875,0.0783130737364292,0.00801729767236393,-0.006211622790154069
1772699596330664400,9.24866455078125,0.07232815410792827,0.01233384113064967,0.009157131911095347
1772699596340621600,9.25862158203125,0.07337561733424663,-0.0007369907713495195,-0.01441925882778014
1772699596350578400,9.268578369140625,0.07562135043442249,0.004999644051352515,0.01096840027963044
1772699596360535600,9.27853564453125,0.08280629350244999,0.013691854443750344,-0.02175620384494541
1772699596370492400,9.288492431640625,0.08819792341291904,0.013122671687090769,-0.004857149145254516
1772699596380450600,9.298450439453125,0.06904431013166903,-0.0011049336011754347,-0.009885265235020778
1772699596390407700,9.30840771484375,0.08774784155786038,0.008685036299517378,0.0048734466886846345
1772699596400364300,9.3183642578125,0.08101298034489154,-0.010975873483321628,0.00745596600366407
1772699596410321400,9.3283212890625,0.08774491894841194,-0.014813857910735532,0.004245994976969087
1772699596420278500,9.338278564453125,0.09627426236271858,-0.004774014035356231,0.020016301375057083
