time,seconds_elapsed,z,y,x
1772699587189964300,0.10796435546875,0.00143668451346457,-0.0009073317050933838,-0.00016100425273180008
1772699587199921400,0.11792138671875,-0.0006296620704233646,-0.0008066641166806221,-0.0004720613360404968
1772699587209878300,0.127878173828125,-0.00042619649320840836,-0.0010599307715892792,-0.002586877439171076
1772699587219835400,0.13783544921875,-0.0020032846368849277,-0.001811964437365532,0.001614291686564684
1772699587229792300,0.147792236328125,0.0032253966201096773,0.0002641100436449051,-0.0011479726526886225
1772699587239750100,0.157750244140625,0.00015237531624734402,-0.0012690718285739422,0.0016275737434625626
1772699587249707300,0.167707275390625,-0.001018875278532505,-0.0021330113522708416,0.0017200447618961334
1772699587259664400,0.177664306640625,0.0001976566854864359,0.0013067275285720825,-0.002274430589750409
1772699587269621200,0.187621337890625,0.0009305248968303204,-0.001715117134153843,0.0011200355365872383
1772699587279578000,0.197578125,-0.0020649987272918224,0.0026548639871180058,-0.0004770623054355383
1772699587289536300,0.207536376953125,-0.0016172913601621985,0.0025616143830120564,0.00023690052330493927
1772699587299493400,0.217493408203125,0.0005260207690298557,-0.00009329104796051979,0.001567415427416563
1772699587309450200,0.2274501953125,-0.00011100363917648792,-0.0013013062998652458,-0.0005036948714405298
1772699587319407000,0.237406982421875,-0.00044709467329084873,0.0014982088468968868,-0.00015189126133918762
1772699587329364200,0.2473642578125,-0.0017722835764288902,0.002056674100458622,-0.00022459542378783226
1772699587339322400,0.257322265625,0.0010807609651237726,-0.0023314168211072683,0.0014577233232557774
1772699587349279200,0.267279296875,0.0009875425603240728,-7.543712854385376e-8,-0.0009551597759127617
1772699587359236400,0.277236328125,0.00009272038005292416,0.0011109951883554459,0.002624927554279566
1772699587369193200,0.287193115234375,-0.0006700160447508097,-0.0013569463044404984,-0.0007102082017809153
1772699587379150000,0.297150146484375,0.0020778332836925983,0.0006654583849012852,0.0030166194774210453
1772699587389108200,0.307108154296875,-0.0024798777885735035,-0.0030262453947216272,-0.0005800684448331594
1772699587399065300,0.3170654296875,0.0005111184436827898,0.002083828207105398,-0.003208608366549015
1772699587409022200,0.327022216796875,0.0006075282581150532,-0.0012147682718932629,0.0028581018559634686
1772699587418979000,0.33697900390625,-0.0006803763099014759,0.0016249604523181915,-0.000424243975430727
1772699587428936200,0.346936279296875,-0.0008484143763780594,-0.0020699184387922287,-0.00017730984836816788
1772699587438894300,0.356894287109375,-0.0019461694173514843,0.001414028462022543,0.0018216590397059917
1772699587448851500,0.3668515625,0.0001230994239449501,-0.0012488565407693386,0.0007635257206857204
1772699587458808000,0.37680810546875,0.0008291034027934074,-0.00015642819926142693,-0.00011744769290089607
1772699587468765200,0.38676513671875,0.002709269057959318,0.00019807368516921997,-0.00237894500605762
1772699587478722300,0.396722412109375,-0.000745649915188551,0.00021431874483823776,-0.002111297333613038
1772699587488680400,0.406680419921875,0.0019430923275649548,-0.0010126195847988129,-0.00025788508355617523
1772699587498637300,0.41663720703125,-0.001622880226932466,0.000028942711651325226,0.00157889723777771
1772699587508594200,0.42659423828125,-0.001617302536033094,-0.0018759961239993572,0.0026139491237699986
1772699587518551300,0.43655126953125,0.0019270987249910831,0.000447878148406744,0.000366241205483675
1772699587528508200,0.446508056640625,0.0007672284264117479,-0.0007821531035006046,0.0007819924503564835
1772699587538466300,0.45646630859375,0.002072177128866315,0.000665541272610426,0.0012951837852597237
1772699587548423200,0.466423095703125,-0.0007120679365471005,0.0003346586599946022,-0.00008655525743961334
1772699587558380300,0.47638037109375,-0.003043132834136486,-0.00042034732177853584,-0.0007233170326799154
1772699587568337200,0.486337158203125,0.0009340057149529457,-0.0002626534551382065,0.000956664327532053
1772699587578294300,0.496294189453125,0.002154532354325056,0.0006979489699006081,0.0009891549125313759
1772699587588252400,0.50625244140625,-0.0004260444547981024,-0.0034310510382056236,0.0008356976322829723
1772699587598209000,0.516208984375,-0.0035286271013319492,0.0019163098186254501,-0.0018738026265054941
1772699587608166100,0.526166259765625,-0.001139479223638773,-0.002252637641504407,-0.0006775700021535158
1772699587618123300,0.536123291015625,-0.0018273737514391541,-0.0013418365269899368,-0.0024762689135968685
1772699587628080400,0.546080322265625,0.0009505359921604395,0.0018571973778307438,0.0017815930768847466
1772699587638038300,0.556038330078125,-0.0010287252953276038,0.00006062909960746765,-0.00012736069038510323
1772699587647996000,0.565995849609375,-0.0005014308262616396,0.0016995538026094437,0.0010792287066578865
1772699587657953000,0.575953125,-0.0009602934587746859,-0.001528463326394558,0.0007018591277301311
1772699587667910000,0.585909912109375,0.0006077946163713932,0.001236937940120697,0.0015576803125441074
1772699587677867000,0.595866943359375,0.0011761132627725601,0.0007849992252886295,-0.000442619901150465
1772699587687825000,0.605824951171875,0.0004173489287495613,-0.0007079285569489002,0.0010045715607702732
1772699587697782000,0.615781982421875,-0.0016995978076010942,0.00010726507753133774,-0.0034500977490097284
1772699587707739000,0.62573876953125,0.0020586587488651276,-0.0028978511691093445,-0.000058799050748348236
1772699587717696000,0.635696044921875,-0.0016255583614110947,0.002637262921780348,0.002033913042396307
1772699587727653000,0.645653076171875,-0.0023337414022535086,0.0008010771125555038,0.000627114437520504
1772699587737610800,0.65561083984375,0.0011707122903317213,0.0012250524014234543,-0.001352945575490594
1772699587747567900,0.66556787109375,0.0020858566276729107,-0.0018826983869075775,0.00029939599335193634
1772699587757525000,0.67552490234375,-0.0018284576945006847,0.0014435895718634129,-0.0005000848323106766
1772699587767482000,0.685482177734375,-0.0021637720055878162,0.0014806371182203293,-0.0020574128720909357
1772699587777439000,0.69543896484375,0.00028100982308387756,-0.0015697474591434002,0.0018486455082893372
1772699587787396900,0.70539697265625,0.0008237359579652548,-0.0011199051514267921,0.0030577806755900383
1772699587797354000,0.71535400390625,-0.001900677802041173,0.0016537769697606564,0.0025866674259305
1772699587807310800,0.725310791015625,0.0007124296389520168,-0.0005576773546636105,0.0011045048013329506
1772699587817268000,0.73526806640625,0.00009937002323567867,-0.0013020308688282967,0.002576699946075678
1772699587827225900,0.745225830078125,0.0013004671782255173,-0.0009094956330955029,-0.00031567085534334183
1772699587837183000,0.755182861328125,-0.0022758920677006245,0.0006540459580719471,0.0014968765899538994
1772699587847139800,0.765139892578125,0.00037126406095921993,0.0017406805418431759,0.0023279478773474693
1772699587857097000,0.775096923828125,-0.0009312879992648959,0.0008932626806199551,0.000218990258872509
1772699587867054000,0.78505419921875,-0.0010977465426549315,-0.00032112421467900276,-0.00013130391016602516
1772699587877012000,0.795011962890625,-0.00040985201485455036,0.000007510185241699219,0.004564381670206785
1772699587886968800,0.80496875,0.0010143802501261234,0.0018203589133918285,0.00098009267821908
1772699587896926000,0.814926025390625,-0.001060754875652492,-0.0010864818468689919,0.0014232425019145012
1772699587906883000,0.824883056640625,0.00001331651583313942,-0.0013576163910329342,0.0030998503789305687
1772699587916840000,0.83483984375,-0.0003853586968034506,-0.00032484252005815506,-0.0006296406500041485
1772699587926797800,0.8447978515625,0.0015259997453540564,0.0009161806665360928,-0.001376864267513156
1772699587936755000,0.8547548828125,0.0009725948330014944,0.0019691940397024155,-0.0013126821722835302
1772699587946712000,0.864712158203125,0.0017460240051150322,-0.0016652247868478298,-0.00015256693586707115
1772699587956669000,0.8746689453125,0.00023734336718916893,-0.000300354789942503,-0.00011874455958604813
1772699587966626000,0.8846259765625,-0.0007911028806120157,0.00013604946434497833,-0.0008722331840544939
1772699587976584000,0.894583984375,0.000030482187867164612,0.0011701551266014576,0.0015014423988759518
1772699587986541000,0.904541015625,0.0007405208889394999,0.00027670664712786674,0.000981189776211977
1772699587996498000,0.914497802734375,0.0019197685178369284,-0.0015163994394242764,0.0018429886549711227
1772699588006455000,0.924455078125,0.0009581048507243395,-0.0018612840212881565,-0.0007807284127920866
1772699588016412000,0.934411865234375,0.0016092478763312101,0.00032144272699952126,-0.0005708714015781879
1772699588026369800,0.944369873046875,-0.00018385122530162334,-0.0006658006459474564,-0.00019370857626199722
1772699588036327000,0.954326904296875,0.0004763465840369463,-0.0014980384148657322,0.000514425802975893
1772699588046284000,0.964283935546875,0.001401806017383933,0.0012343493290245533,-0.0009534198325127363
1772699588056241200,0.9742412109375,0.00018926896154880524,-0.002150794956833124,0.0019640731625258923
1772699588066197800,0.98419775390625,0.0005322541110217571,-0.0011685802601277828,0.0005361163057386875
1772699588076156000,0.994156005859375,-0.00003446661867201328,-0.0003291522152721882,-0.0021483502350747585
1772699588086113000,1.004113037109375,-0.0007342343451455235,-0.0017631524242460728,0.00272023631259799
1772699588096070000,1.01406982421875,0.0019004310015588999,0.002524270676076412,-0.0027046226896345615
1772699588106027000,1.024027099609375,-0.0009350231848657131,0.000729079358279705,0.00021710898727178574
1772699588115984000,1.03398388671875,-0.0008743030484765768,0.0014856834895908833,-0.0009437631815671921
1772699588125942000,1.04394189453125,0.0002639505546540022,-0.0013924199156463146,0.0007576118223369122
1772699588135899000,1.05389892578125,-0.0004351292736828327,0.0008235964924097061,-0.0029231428634375334
1772699588145856000,1.06385595703125,0.0002442768309265375,0.0003199479542672634,-0.0014474852941930294
1772699588155812900,1.073812744140625,-0.0007650613551959395,0.00045790011063218117,-0.003517826786264777
1772699588165769700,1.083769775390625,0.0010490205604583025,0.0004995292983949184,0.00034911325201392174
1772699588175727900,1.093727783203125,-0.0005880245007574558,0.0017666611820459366,0.0018775016069412231
1772699588185685000,1.10368505859375,-0.0018016158137470484,-0.000805433839559555,0.0016637379303574562
1772699588195642000,1.11364208984375,0.000876991543918848,-0.0002837204374372959,0.000654666218906641
1772699588205598700,1.1235986328125,-0.0008574202656745911,0.0016488810069859028,0.0016580545343458652
1772699588215555800,1.133555908203125,0.0010872199200093746,-0.00044303201138973236,0.0019866889342665672
1772699588225514000,1.143513916015625,-0.0005537972319871187,-0.0019418885931372643,-0.00011356966570019722
1772699588235471000,1.15347119140625,0.0009383717551827431,0.000056813936680555344,-0.001130364602431655
1772699588245428000,1.163427978515625,0.0011272011324763298,-0.002207953017205,-0.0014447951689362526
1772699588255384800,1.173384765625,-0.0030510323122143745,0.0005867681466042995,0.00019011925905942917
1772699588265342000,1.183342041015625,0.00013437098823487759,-0.0019517522305250168,0.0005501490086317062
1772699588275300000,1.193300048828125,0.0001396972220391035,0.0012709391303360462,0.00019115488976240158
1772699588285257000,1.203257080078125,0.0004928284324705601,0.0013955803588032722,-0.0025601861998438835
1772699588295213800,1.2132138671875,-0.0003359471447765827,-0.0007378780283033848,-0.0004493650048971176
1772699588305171000,1.2231708984375,-0.00019104895181953907,0.0014682547189295292,-0.00021695950999855995
1772699588315127800,1.2331279296875,0.0002960432320833206,0.0013987463898956776,0.0020698970183730125
1772699588325086000,1.2430859375,-0.00003312481567263603,0.00046179024502635,0.001373746432363987
1772699588335043000,1.25304296875,-0.0031639370135962963,0.001487906090915203,0.001344185322523117
1772699588345000000,1.263,-0.0019932182040065527,0.0000026710331439971924,-0.002490559360012412
1772699588354956800,1.272956787109375,0.0008031008765101433,0.00041466206312179565,-0.0004234137013554573
1772699588364915000,1.2829150390625,-0.0003050481900572777,0.0013667517341673374,-0.0008415891788899899
1772699588374872000,1.2928720703125,0.0006558203604072332,-0.00034273136407136917,-0.002183822449296713
1772699588384829000,1.302828857421875,-0.0005107058677822351,0.0022180560044944286,-0.0013932185247540474
1772699588394785800,1.312785888671875,-0.0010124455438926816,0.0001895260065793991,0.0018947203643620014
1772699588404743000,1.322742919921875,-0.0002487695310264826,-0.0005808849819004536,0.0006672395393252373
1772699588414700000,1.332699951171875,0.0017715042922645807,-0.0031926468946039677,0.0019604703411459923
1772699588424658000,1.342657958984375,-0.002041843254119158,0.0015007751062512398,-0.002893732627853751
1772699588434614800,1.35261474609375,-0.0004021350760012865,0.00040701497346162796,0.0021316525526344776
1772699588444572000,1.362572021484375,-0.0011505278525874019,0.0024958262220025063,-0.00010330136865377426
1772699588454528800,1.37252880859375,0.0002098148688673973,0.0027078138664364815,-0.0018111865501850843
1772699588464487000,1.38248681640625,-0.0003293347544968128,0.0012972336262464523,-0.0015754369087517262
1772699588474444000,1.392444091796875,0.0017303542699664831,-0.0026495710480958223,0.0011918535456061363
1772699588484401000,1.40240087890625,0.001910950057208538,0.0008961176499724388,-0.003757365746423602
1772699588494357800,1.412357666015625,-0.00039161904715001583,0.0015999912284314632,-0.0002571730874478817
1772699588504315000,1.42231494140625,-0.0005133268423378468,0.0005799112841486931,-0.0026800879277288914
1772699588514273000,1.43227294921875,-0.0019082906655967236,0.001957298256456852,-0.0037725165020674467
1772699588524230000,1.44222998046875,-0.00042600673623383045,-0.001961961854249239,0.0037129484117031097
1772699588534186800,1.452186767578125,0.0005343290977180004,-0.0019094976596534252,-0.0009387945756316185
1772699588544144000,1.462143798828125,-0.0004291236400604248,-0.0009681088849902153,0.0035465313121676445
1772699588554101000,1.47210107421875,-0.00013511045835912228,0.00003670156002044678,0.0010910970158874989
1772699588564059100,1.48205908203125,-0.0006158167961984873,-0.0004935977049171925,0.0005881139077246189
1772699588574015700,1.492015625,-0.0024941442534327507,-0.0008105142042040825,-0.0035270024091005325
1772699588583972900,1.501972900390625,0.00009905430488288403,-0.0004109283909201622,-0.0015816225204616785
1772699588593930000,1.511929931640625,-0.0021507840137928724,0.0013113380409777164,-0.002415458206087351
1772699588603886800,1.521886962890625,0.0031422055326402187,0.0010023671202361584,-0.002691390458494425
1772699588613845000,1.531844970703125,-0.0016426958609372377,0.002102518919855356,-0.0007744473405182362
1772699588623801900,1.5418017578125,0.0007180436514317989,0.000060576945543289185,0.0010090423747897148
1772699588633759000,1.551759033203125,0.0002495935186743736,0.0002461993135511875,0.0015142438933253288
1772699588643715300,1.56171533203125,0.0005123093724250793,-0.00006524519994854927,-0.0009737412910908461
1772699588653672400,1.57167236328125,0.0014287030790001154,0.00028229691088199615,0.0003075054846704006
1772699588663630600,1.581630615234375,-0.002012323122471571,-0.002164260484278202,-0.000793741550296545
1772699588673587200,1.591587158203125,0.0001291248481720686,-0.0008902042172849178,-0.0009436774998903275
1772699588683544300,1.60154443359375,-0.0016535543836653233,0.0005407067947089672,0.00001207226887345314
1772699588693501400,1.61150146484375,-0.0025228101294487715,-0.0015679839998483658,0.002248861361294985
1772699588703458300,1.621458251953125,-0.0007480847416445613,-0.00010872958227992058,-0.0000071320682764053345
1772699588713416400,1.63141650390625,0.0015888391062617302,0.0001956694759428501,0.0015886337496340275
1772699588723373300,1.641373291015625,0.0008330326527357101,0.0002876496873795986,-0.0014000826049596071
1772699588733330400,1.651330322265625,-0.002318285871297121,0.000711092259734869,-0.0008426830172538757
1772699588743287300,1.661287353515625,0.000711680157110095,-0.0005001160316169262,0.003931536804884672
1772699588753244400,1.671244384765625,-0.0004119074437767267,-0.00047934334725141525,0.0005493219941854477
1772699588763202300,1.681202392578125,0.0010833290871232748,-0.0010921047069132328,0.000040419865399599075
1772699588773159400,1.691159423828125,0.0017360697966068983,0.0014546765014529228,0.0017552291974425316
1772699588783116300,1.7011162109375,-0.000017109094187617302,0.0014331405982375145,-0.00427637854591012
1772699588793073400,1.711073486328125,-0.0017431036103516817,-0.0011109770275652409,-0.0025024469941854477
1772699588803030500,1.721030517578125,-0.0016301518771797419,-0.0010452410206198692,-0.0010736617259681225
1772699588812988400,1.730988525390625,0.0004479126073420048,-0.0005554859526455402,0.0035000513307750225
1772699588822945300,1.7409453125,-0.0002682376652956009,0.001344182062894106,0.0004190993495285511
1772699588832902400,1.75090234375,-0.0012259103823453188,-0.0012982063926756382,-0.0027274256572127342
1772699588842859500,1.760859619140625,-0.0017705268692225218,-0.0020707896910607815,-0.00038064783439040184
1772699588852816400,1.77081640625,0.0016385854687541723,0.002048854250460863,-0.0005508239846676588
1772699588862774300,1.780774169921875,-0.000041720690205693245,-0.0022032479755580425,-0.0014673944097012281
1772699588872731400,1.7907314453125,0.0010352616664022207,0.00019040144979953766,-0.0030756774358451366
1772699588882688500,1.8006884765625,0.00009843474254012108,0.000026431400328874588,0.00013856170699000359
1772699588892645400,1.810645263671875,0.0005341276992112398,0.0008317711763083935,-0.0010835628490895033
1772699588902602500,1.8206025390625,0.0007977632340043783,0.00014442624524235725,0.0003258693031966686
1772699588912560400,1.830560302734375,0.0002725878730416298,-0.0008659772574901581,-0.00026561878621578217
1772699588922517500,1.840517578125,0.0016808414366096258,0.0006385915912687778,0.0007778173312544823
1772699588932474400,1.850474365234375,-0.0020640953443944454,-0.0010831421241164207,-0.00011940160766243935
1772699588942431500,1.860431396484375,-0.0013604407431557775,0.00004842272028326988,0.0005860715173184872
1772699588952388600,1.870388671875,-0.0009929245570674539,0.0013075652532279491,0.0019501429051160812
1772699588962346200,1.88034619140625,0.004424808081239462,-0.0035005351528525352,0.0006637335754930973
1772699588972303400,1.890303466796875,0.00021115480922162533,0.0005647800862789154,0.0018933149985969067
1772699588982260500,1.900260498046875,0.0003586295060813427,-0.002010757103562355,-0.0023999849800020456
1772699588992217600,1.910217529296875,0.0009043111931532621,0.001386104617267847,-0.0003352360799908638
1772699589002174500,1.920174560546875,0.0015790772158652544,0.0017295153811573982,-0.0003065704368054867
1772699589012132400,1.93013232421875,0.0012746781576424837,0.0007103234529495239,0.001893466804176569
1772699589022089500,1.94008935546875,-0.0007093992317095399,0.0011686836369335651,-0.0036183884367346764
1772699589032046300,1.95004638671875,0.0004349611699581146,0.000966549851000309,0.000017891637980937958
1772699589042003500,1.96000341796875,-0.0004251990467309952,-0.002516387728974223,0.0006512501277029514
1772699589051960600,1.969960693359375,-0.00016554072499275208,-0.00024444516748189926,-0.0007642200216650963
1772699589061918500,1.97991845703125,-0.0018189068650826812,-0.0005029644817113876,0.002549723256379366
1772699589071875300,1.989875244140625,-0.000035387929528951645,0.0005268799141049385,-0.0013022730126976967
1772699589081832400,1.99983251953125,0.0020764728542417288,-0.0009215367026627064,0.0013892953284084797
1772699589091789600,2.00978955078125,0.0012040212750434875,-0.0014381902292370796,0.0025067576207220554
1772699589101746400,2.019746337890625,-0.0009741863468661904,-0.0020175562240183353,0.0010417099110782146
1772699589111704300,2.029704345703125,0.0007984137628227472,0.001290888525545597,-0.0023090795148164034
1772699589121661400,2.039661376953125,0.0009861551225185394,0.0027907961048185825,-0.003663917537778616
1772699589131618600,2.04961865234375,0.0005019924137741327,-0.0006569325923919678,-0.000031898729503154755
1772699589141575400,2.059575439453125,0.0005962646100670099,-0.0010617277584969997,-0.00006788084283471107
1772699589151532300,2.0695322265625,0.0008838858921080828,0.0007050130516290665,-0.0012402045540511608
1772699589161490400,2.079490478515625,0.0009347486775368452,0.000861345324665308,-0.003245327854529023
1772699589171447600,2.089447509765625,-0.00031640450470149517,0.00002671079710125923,-0.0003230413421988487
1772699589181404400,2.099404296875,-0.0014844705583527684,-0.00043081585317850113,-0.0009619635529816151
1772699589191361500,2.109361572265625,0.000003970228135585785,-0.000977562740445137,-0.00006794044747948647
1772699589201318400,2.119318359375,-0.001171712065115571,0.0007068980485200882,-0.0008943846914917231
1772699589211276500,2.129276611328125,0.0013500349596142769,-0.0015179067850112915,-0.0002709385007619858
1772699589221233400,2.1392333984375,0.00041773589327931404,-0.001122926827520132,-0.0018669727724045515
1772699589231190500,2.1491904296875,0.001212156843394041,0.0004307613708078861,0.0024518752470612526
1772699589241147400,2.1591474609375,0.00017248140648007393,0.002731969114392996,-0.0002944660373032093
1772699589251104300,2.169104248046875,0.0004118995275348425,-0.0019858204759657383,0.0014387192204594612
1772699589261062400,2.1790625,0.00023291632533073425,-0.0010888432152569294,0.0013450952246785164
1772699589271019500,2.18901953125,0.002142935758456588,0.0010560667142271996,-0.0007635958027094603
1772699589280976600,2.1989765625,0.001991150202229619,-0.0001335865817964077,0.0013353587128221989
1772699589290933200,2.208933349609375,0.0010973934549838305,-0.0001855185255408287,-0.00008304044604301453
1772699589300890400,2.218890380859375,-0.000003861263394355774,0.0008949749171733856,-0.0016250393819063902
1772699589310848500,2.2288486328125,-0.0007460841443389654,0.0003602122887969017,-0.0024825772270560265
1772699589320805400,2.238805419921875,0.000009076204150915146,0.0001916801556944847,0.0006026602350175381
1772699589330762500,2.248762451171875,0.0006058905273675919,0.0003229738213121891,-0.0013121524825692177
1772699589340719400,2.25871923828125,0.0019435009453445673,-0.0013997363857924938,0.0019516777247190475
1772699589350676500,2.268676513671875,0.0009330979082733393,-0.00047348905354738235,0.001012647058814764
1772699589360634400,2.27863427734375,0.0006304706912487745,0.0002207648940384388,-0.0015996645670384169
1772699589370591500,2.288591552734375,0.0018994670826941729,0.0005832212045788765,0.0008810698054730892
1772699589380548400,2.29854833984375,0.00020192726515233517,0.0005103051662445068,0.0013159061782062054
1772699589390505200,2.308505126953125,-0.002027671318501234,0.002613936085253954,0.0019135191105306149
1772699589400462300,2.31846240234375,0.00043389969505369663,0.000028524547815322876,0.0026435800828039646
1772699589410420500,2.32842041015625,-0.000981570454314351,0.0014850073494017124,0.00041398126631975174
1772699589420377600,2.338377685546875,0.0005656795110553503,-0.0006177988834679127,0.0019107148982584476
1772699589430334200,2.348334228515625,0.0012455843389034271,-0.0005064783617854118,0.001586342230439186
1772699589440291300,2.358291259765625,0.0015152727719396353,0.0015287087298929691,-0.00042851315811276436
1772699589450248400,2.36824853515625,-0.0018299240618944168,0.0026722699403762817,-0.0020844663958996534
1772699589460206600,2.37820654296875,0.0015595036093145609,-0.0013712155632674694,-0.003049698891118169
1772699589470163500,2.38816357421875,0.00031687249429523945,0.0004384024068713188,-0.0009327521547675133
1772699589480120300,2.398120361328125,0.000020888634026050568,0.0006182817742228508,-0.0014907564036548138
1772699589490077400,2.408077392578125,-0.00019589252769947052,-0.00025150692090392113,0.004699228797107935
1772699589500034300,2.418034423828125,0.00039109052158892155,-0.0010184464044868946,0.000366471242159605
1772699589509992400,2.427992431640625,-0.001714404672384262,0.0019041066989302635,-0.003764890367165208
1772699589519949300,2.43794921875,-0.0005474805366247892,-0.0014433912001550198,-0.001309927785769105
1772699589529906400,2.447906494140625,-0.0010116695193573833,-0.0014098351821303368,-0.0028465716168284416
1772699589539863300,2.45786328125,0.00040475442074239254,0.0016649668104946613,0.0013085519894957542
1772699589549820400,2.4678203125,0.0018069087527692318,0.0024255658499896526,-0.001428911229595542
1772699589559777500,2.477777587890625,-0.00017384905368089676,-0.0010625282302498817,0.0019725062884390354
1772699589569735400,2.4877353515625,0.0013140588998794556,0.00039954716339707375,0.00029684556648135185
1772699589579692300,2.4976923828125,0.000042113009840250015,0.001379016786813736,-0.0007573517505079508
1772699589589649400,2.5076494140625,0.0013196314685046673,0.00006261654198169708,-0.00047851866111159325
1772699589599606500,2.5176064453125,-0.002136264694854617,0.001195263583213091,-0.0005095587112009525
1772699589609563400,2.5275634765625,0.0017333084251731634,-0.0003128848038613796,0.0015599834732711315
1772699589619521300,2.537521240234375,-0.00014988891780376434,0.0012262244708836079,-0.0008993863593786955
1772699589629478400,2.547478515625,-0.0004305862821638584,0.0013282238505780697,0.0010758801363408566
1772699589639435500,2.557435546875,0.0035896997433155775,-0.000888441689312458,0.0034446148201823235
1772699589649393000,2.567392822265625,0.00018804403953254223,-0.0015390519984066486,-0.0024843807332217693
1772699589659350000,2.57735009765625,-0.0014739480102434754,-0.00027295714244246483,-0.0008705952204763889
1772699589669308000,2.587307861328125,0.0004254183731973171,0.0016924552619457245,-0.0012860484421253204
1772699589679264800,2.5972646484375,0.0028892308473587036,0.00012624403461813927,-0.0005712111014872789
1772699589689222000,2.607221923828125,-0.0005574324168264866,0.0007821805775165558,-0.0010103662498295307
1772699589699179000,2.617178955078125,-0.00015884963795542717,0.001516745425760746,0.003012058325111866
1772699589709136000,2.627135986328125,0.001251294044777751,-0.0008923499844968319,-0.0006537828594446182
1772699589719093800,2.63709375,0.00045820511877536774,-0.0013233562931418419,0.00015116576105356216
1772699589729051000,2.64705078125,-0.0007692457875236869,0.0007131630554795265,0.0006837979890406132
1772699589739008000,2.657008056640625,0.001387331634759903,-0.00024184305220842361,0.003429592587053776
1772699589748964900,2.66696484375,0.0020928028970956802,-0.0009015081450343132,-0.0021470668725669384
1772699589758922000,2.676921875,-0.0008636749116703868,0.0013719755224883556,-0.0024738539941608906
1772699589768879900,2.6868798828125,0.00034380238503217697,0.001543483231216669,-0.0012426746543496847
1772699589778837000,2.6968369140625,0.0029139660764485598,-0.0009824042208492756,0.002010471187531948
1772699589788793900,2.7067939453125,-0.0004325623158365488,0.00029884232208132744,0.00015264982357621193
1772699589798751000,2.7167509765625,0.000013607321307063103,-0.0003590686246752739,0.0003765234723687172
1772699589808707800,2.726707763671875,0.0024842219427227974,-0.0035135827492922544,-0.0004280176945030689
1772699589818666000,2.736666015625,0.0013479047920554876,0.0017484179697930813,-0.0015079521108418703
1772699589828622800,2.746622802734375,-0.001430571312084794,-0.0021576397120952606,0.0002899477258324623
1772699589838580000,2.756580078125,-0.0009183798683807254,-0.0023168963380157948,0.0006813271902501583
1772699589848537000,2.766537109375,0.003568780142813921,0.0005987323820590973,-0.0008137712720781565
1772699589858493700,2.77649365234375,0.0007842069026082754,0.0024342145770788193,-0.002240312285721302
1772699589868451800,2.786451904296875,-0.001653650775551796,0.0012283353134989738,-0.0008480118121951818
1772699589878409000,2.796408935546875,0.0005501389969140291,-0.0003381436690688133,0.000920803751796484
1772699589888366000,2.806365966796875,0.00013974588364362717,0.0008895732462406158,-0.0002440628595650196
1772699589898323000,2.816322998046875,0.0003014120738953352,-0.0007726112380623817,-0.00012834370136260986
1772699589908279800,2.82627978515625,0.0012122131884098053,0.00020503532141447067,0.0016826055943965912
1772699589918238000,2.836238037109375,0.00248591136187315,0.00034213438630104065,0.00018513528630137444
1772699589928195000,2.846195068359375,0.0018337033689022064,-0.0006213975138962269,0.0013092556037008762
1772699589938152000,2.85615185546875,0.0023679181467741728,0.0009135343134403229,0.002669607289135456
1772699589948108800,2.86610888671875,-0.0018795575015246868,0.0004528071731328964,0.0025393785908818245
1772699589958066000,2.87606591796875,-0.0023792388383299112,-0.0011223270557820797,0.0008959253318607807
1772699589968023800,2.88602392578125,0.0022887499071657658,-0.0011068806052207947,0.003241105005145073
1772699589977981000,2.89598095703125,0.001276533817872405,0.0012557716108858585,0.0017177490517497063
1772699589987938000,2.90593798828125,-0.0008172434754669666,-0.0004574400372803211,-0.0001850794069468975
1772699589997895000,2.91589501953125,0.001984036061912775,-0.002067532856017351,0.002116454765200615
1772699590007851800,2.925851806640625,0.001478568185120821,-0.001856610644608736,0.002138026524335146
1772699590017810000,2.935809814453125,0.0001660780981183052,-0.0004888325929641724,-0.0009590678382664919
1772699590027767000,2.94576708984375,-0.0012315488420426846,-0.0002286415547132492,-0.002430996857583523
1772699590037724000,2.955723876953125,0.00007778452709317207,0.00007010810077190399,0.001666040625423193
1772699590047680800,2.9656806640625,0.00015874463133513927,0.00008582090958952904,-0.0000010980293154716492
1772699590057638000,2.975637939453125,-0.0006809830665588379,0.001127178780734539,-0.0022246059961616993
1772699590067594800,2.9855947265625,0.0006439397111535072,0.0004230388440191746,-0.0006562704220414162
1772699590077553000,2.995552978515625,0.001826960826292634,-0.0015751835890114307,-0.0015435018576681614
1772699590087509800,3.005509765625,-0.0028306415770202875,0.00012817420065402985,-0.0018383136484771967
1772699590097467000,3.015466796875,0.00008811731822788715,0.0016881856136023998,-0.00044266320765018463
1772699590107423700,3.025423828125,-0.00020749354735016823,0.0003827037289738655,0.0008678780868649483
1772699590117380900,3.035380859375,0.0009195026941597462,-0.0021633696742355824,-0.0004405970685184002
1772699590127339000,3.045339111328125,-0.0006589528638869524,0.0005274880677461624,-0.001171634765341878
1772699590137296000,3.0552958984375,-0.0017732640262693167,-0.0033905040472745895,0.00198863772675395
1772699590147252700,3.065252685546875,0.0016638115048408508,-0.001379817258566618,0.001993164885789156
1772699590157209900,3.0752099609375,0.0008376783225685358,0.001154742669314146,-0.00198248028755188
1772699590167167000,3.0851669921875,0.001722913235425949,-0.0018365196883678436,-0.0015925935003906488
1772699590177124900,3.095124755859375,0.0005745864473283291,0.0010352269746363163,0.0021089683286845684
1772699590187081700,3.105081787109375,0.0005484872963279486,-0.0004574744962155819,-0.00061198347248137
1772699590197038800,3.115038818359375,0.00014771101996302605,-0.0017717634327709675,0.0020833811722695827
1772699590206996000,3.124995849609375,-0.002229426521807909,-0.0007975790649652481,0.00019360240548849106
1772699590216952800,3.134952880859375,0.0013983226381242275,-0.00227597588673234,-0.000988802406936884
1772699590226910700,3.14491064453125,0.001545062754303217,-0.0007028467953205109,0.00021121790632605553
1772699590236867800,3.154867919921875,0.00034464290365576744,0.00031673815101385117,0.0019059083424508572
1772699590246825000,3.164824951171875,0.0010493153240531683,-0.0005860733799636364,-0.0008105160668492317
1772699590256781800,3.17478173828125,0.0008356284815818071,-0.0015102187171578407,-0.0001158067025244236
1772699590266739000,3.184739013671875,0.001135766739025712,-0.0007461574859917164,-0.0006926476489752531
1772699590276696800,3.19469677734375,0.0005386034026741982,0.000233351718634367,0.0018060104921460152
1772699590286654000,3.204654052734375,0.0004568444564938545,-0.0012295227497816086,-0.0008140073623508215
1772699590296610800,3.21461083984375,-0.0018039382994174957,0.0015645548701286316,0.002208330202847719
1772699590306568000,3.22456787109375,0.00011566816829144955,0.0012710746377706528,0.000962503720074892
1772699590316525000,3.234525146484375,-0.00040781288407742977,-0.0007930435240268707,-0.0020918920636177063
1772699590326482700,3.244482666015625,-0.00001792609691619873,0.0004892684519290924,-0.000009566545486450195
1772699590336439800,3.254439697265625,-0.0006150016561150551,0.0012157405726611614,-0.0032786165829747915
1772699590346397000,3.26439697265625,-0.0032707059290260077,0.001007481012493372,0.0014628753997385502
1772699590356354000,3.27435400390625,0.0024105897173285484,-0.0006525875069200993,0.0005011125467717648
1772699590366311000,3.284310791015625,-0.0020459438674151897,0.0016790097579360008,-0.00119745172560215
1772699590376268800,3.294268798828125,-0.002861505141481757,0.00042869336903095245,-0.00021091243252158165
1772699590386226000,3.304225830078125,0.001863475190475583,-0.0011545559391379356,-0.0017251856625080109
1772699590396182800,3.314182861328125,-0.002207692014053464,0.001244409941136837,0.0004647909663617611
1772699590406140000,3.324139892578125,-0.001329914084635675,0.0014982088468968868,-0.0010564066469669342
1772699590416097000,3.334096923828125,-0.0005237564910203218,-0.0007876064628362656,0.0009064897894859314
1772699590426055000,3.344054931640625,0.0006493660621345043,0.0004265289753675461,0.0005504251457750797
1772699590436011800,3.35401171875,0.0010949601419270039,-0.0014331373386085033,-0.0011874129995703697
1772699590445969000,3.363968994140625,0.0020792647264897823,-0.0015833396464586258,-0.0000925874337553978
1772699590455926000,3.373926025390625,0.002705662976950407,-0.0003442848101258278,-0.0009104190394282341
1772699590465883000,3.3838828125,-0.0012280922383069992,-0.00015972787514328957,-0.0014377250336110592
1772699590475839700,3.39383984375,-0.00006034062243998051,-0.0023513727355748415,0.00467058178037405
1772699590485798000,3.4037978515625,0.0025426330976188183,-0.002057892270386219,-0.0010160664096474648
1772699590495755000,3.413755126953125,0.001126615097746253,-0.0029079532250761986,0.0015162155032157898
1772699590505711900,3.4237119140625,-0.00006914418190717697,-0.00021336693316698074,-0.001216986682265997
1772699590515669000,3.4336689453125,-0.0012207322288304567,-0.0010961568914353848,0.0017076684162020683
1772699590525625900,3.4436259765625,-0.0004753132816404104,-0.0013981591910123825,-0.0013539015781134367
1772699590535584000,3.453583984375,-0.0014009757433086634,0.0008588018827140331,0.00017623091116547585
1772699590545540900,3.463540771484375,-0.00014875736087560654,-0.0008663940243422985,0.001227647066116333
1772699590555498000,3.473498046875,0.0017668730579316616,0.0008859410881996155,-0.00041883811354637146
1772699590565454800,3.483454833984375,-0.0008009469602257013,-0.0005015656352043152,-0.0005495995283126831
1772699590575411700,3.49341162109375,-0.0012341185938566923,-0.0023455386981368065,-0.000665940809994936
1772699590585369900,3.503369873046875,-0.0014977715909481049,-0.0006797313690185547,-0.0024944674223661423
1772699590595327000,3.513326904296875,0.0006532259285449982,0.00024915672838687897,-0.00052610132843256
1772699590605284000,3.5232841796875,0.0017099683173000813,0.0007258625701069832,-0.0027319975197315216
1772699590615240700,3.53324072265625,-0.003305892925709486,0.001987750642001629,-0.003956221044063568
1772699590625197800,3.54319775390625,-0.00144913699477911,0.00003964873030781746,0.0001503736712038517
1772699590635156000,3.553156005859375,0.0015197547618299723,-0.0017630448564887047,-0.0010797407012432814
1772699590645112300,3.5631123046875,-0.001068571349605918,0.0016085170209407806,0.0022995444014668465
1772699590655069400,3.5730693359375,0.002000733045861125,-0.0007292204536497593,-0.002156367991119623
1772699590665026300,3.5830263671875,0.005006376653909683,-0.001855204813182354,-0.0012141417246311903
1772699590674983400,3.5929833984375,-0.00004561757668852806,-0.0009100777097046375,0.002009791322052479
1772699590684941300,3.60294140625,-0.0021809402387589216,0.0015224535018205643,-0.000803039176389575
1772699590694898400,3.6128984375,0.0018521507736295462,0.0004822229966521263,-0.0006834631785750389
1772699590704855600,3.62285546875,-0.0007433658465743065,0.001057199202477932,0.0021045999601483345
1772699590714812200,3.632812255859375,0.0003918695729225874,-0.00011381041258573532,0.003581488970667124
1772699590724769300,3.642769287109375,-0.000018789898604154587,0.0012635765597224236,-0.000793019775301218
1772699590734727400,3.6527275390625,-0.0011297191958874464,-0.0014558890834450722,-0.001965118572115898
1772699590744684500,3.6626845703125,0.0007584618870168924,0.0026626894250512123,0.0004817936569452286
1772699590754641400,3.672641357421875,0.0010935028549283743,-0.0009453799575567245,0.003016442060470581
1772699590764598300,3.682598388671875,-0.0001078492496162653,0.0013316227123141289,-0.002565277274698019
1772699590774555400,3.692555419921875,0.002760382601991296,-0.000494783278554678,0.00038236891850829124
1772699590784512300,3.70251220703125,0.00010121637023985386,-0.000021539628505706787,0.001975737977772951
1772699590794470400,3.712470458984375,0.00022745784372091293,-0.00041756127029657364,-0.0013448987156152725
1772699590804427300,3.72242724609375,-0.0022247806191444397,0.000022392719984054565,-0.0016801906749606133
1772699590814384400,3.73238427734375,-0.0010267188772559166,-0.0006880182772874832,0.0004607886075973511
1772699590824341200,3.74234130859375,-0.0018086229683831334,-0.001526114996522665,-0.003336346708238125
1772699590834298400,3.75229833984375,-0.0008406008128076792,0.0025322549045085907,-0.00006248150020837784
1772699590844256500,3.762256591796875,-0.000049908412620425224,0.0015870993956923485,-0.0007320002187043428
1772699590854213400,3.77221337890625,0.0010228462051600218,-0.00017233006656169891,0.003468608483672142
1772699590864170200,3.782170166015625,-0.0006661305669695139,-0.00035582203418016434,-0.000572472345083952
1772699590874127400,3.79212744140625,-0.0027624920476228,0.000231883954256773,0.00024158833548426628
1772699590884084500,3.80208447265625,-0.002445043297484517,0.000755461398512125,-0.0008998424746096134
1772699590894042400,3.81204248046875,0.0006283861584961414,0.0004615015350282192,0.002555792685598135
1772699590903999200,3.821999267578125,0.0007245263550430536,0.0003983844071626663,-0.0021156580187380314
1772699590913956400,3.831956298828125,-0.000023850705474615097,0.002787596546113491,0.003455130849033594
1772699590923913500,3.84191357421875,-0.000464071286842227,-0.001716074999421835,-0.0017020802479237318
1772699590933870300,3.851870361328125,0.0008694524876773357,0.0028318283148109913,0.0015615890733897686
1772699590943828200,3.861828125,0.0018617461901158094,0.0026123845018446445,-0.001650449587032199
1772699590953785300,3.871785400390625,-0.000049448106437921524,0.00008652498945593834,-0.002723842626437545
1772699590963742500,3.881742431640625,0.00415701512247324,-0.00047939643263816833,0.001189938746392727
1772699590973699300,3.89169921875,-0.001053072395734489,0.0017901565879583359,0.0024856654927134514
1772699590983656400,3.901656494140625,0.00006838468834757805,0.0021270466968417168,0.000972989946603775
1772699590993614300,3.9116142578125,0.0005948299076408148,0.00277129327878356,0.0006358237005770206
1772699591003571200,3.9215712890625,-0.0003633752930909395,0.0009853779338300228,0.001302945427596569
1772699591013528300,3.9315283203125,0.0019970140419900417,-0.0015738215297460556,0.0006660302169620991
1772699591023485400,3.9414853515625,-0.0010645557194948196,-0.0005764677189290524,0.0013166405260562897
1772699591033442600,3.951442626953125,0.0023419794160872698,-0.002255111001431942,-0.0018434545490890741
1772699591043399400,3.9613994140625,-0.0010327781783416867,-0.0017685513012111187,-0.0005044171120971441
1772699591053357300,3.971357421875,0.00004482455551624298,-0.0010328302159905434,0.0013048192486166954
1772699591063314400,3.981314453125,0.0016645591240376234,0.0027637723833322525,0.00010053813457489014
1772699591073271300,3.991271240234375,0.0018502329476177692,-0.0010574813932180405,-0.0024983135517686605
1772699591083228400,4.001228515625,0.0025000441819429398,-0.0013115471228957176,-0.0012381058186292648
1772699591093185500,4.011185546875,-0.0008163941092789173,0.00020556943491101265,-0.001026091631501913
1772699591103143400,4.021143310546875,0.00032184086740016937,0.001666046679019928,-0.0019579315558075905
1772699591113100300,4.031100341796875,0.0003562481142580509,-0.0006822524592280388,0.001356225460767746
1772699591123057400,4.041057373046875,0.0006329505704343319,0.0008538588881492615,0.001086447387933731
1772699591133014500,4.0510146484375,-0.0018030803184956312,-0.0010140454396605492,0.0008163126185536385
1772699591142971400,4.060971435546875,-0.0013554029865190387,0.0008475040085613728,0.0010501383803784847
1772699591152929300,4.07092919921875,0.002418382093310356,-0.0010445239022374153,0.0016244039870798588
1772699591162886400,4.080886474609375,-0.0005856633652001619,-0.00013345666229724884,0.001484055072069168
1772699591172843500,4.090843505859375,0.0010977378115057945,-0.0012185103259980679,0.0013251532800495625
1772699591182800400,4.10080029296875,-0.0009108182275667787,0.00125130545347929,-0.0013443995267152786
1772699591192757200,4.11075732421875,-0.0016644586576148868,0.00048458436504006386,0.00004458753392100334
1772699591202715400,4.12071533203125,-0.0006489953957498074,-0.0013239686377346516,0.001717585138976574
1772699591212672500,4.130672607421875,-0.0019850339740514755,0.00006757164373993874,-0.0014107695315033197
1772699591222629400,4.14062939453125,0.0004925047978758812,-0.001860024407505989,0.0024508140049874783
1772699591232586500,4.15058642578125,0.0003658283967524767,0.0010656742379069328,0.0005570403300225735
1772699591242543400,4.16054345703125,-0.002760722767561674,-0.0010443483479321003,-0.0007138203363865614
1772699591252500200,4.170500244140625,0.0008338303305208683,0.000021665357053279877,-0.000328906811773777
1772699591262458400,4.180458251953125,-0.0013515596510842443,-0.0009205611422657967,0.00020558945834636688
1772699591272415500,4.19041552734375,-0.001071258564479649,0.001125883311033249,0.0013017184101045132
1772699591282372400,4.200372314453125,0.00046405382454395294,-0.00026055844500660896,-0.0012320131063461304
1772699591292329200,4.2103291015625,0.00004871306009590626,-0.0026925888378173113,0.0012779021635651588
1772699591302286300,4.220286376953125,0.000931817339733243,-0.0007961518131196499,-0.0012494376860558987
1772699591312244500,4.230244384765625,0.000019292812794446945,0.0003272746689617634,0.0009719240479171276
1772699591322201600,4.24020166015625,0.0012739079538732767,0.0013057198375463486,-0.0021354523487389088
1772699591332158200,4.250158203125,-0.0011224921327084303,0.002555025275796652,-0.001167329028248787
1772699591342115300,4.260115234375,0.0014016521163284779,-0.00021759187802672386,0.0024622934870421886
1772699591352072400,4.270072509765625,0.002052176045253873,0.0008555743843317032,-0.0009109869133681059
1772699591362030300,4.2800302734375,0.00019222451373934746,-0.00020356476306915283,0.0008725319057703018
1772699591371987500,4.289987548828125,-0.000697463983669877,0.00023976247757673264,0.002849758602678776
1772699591381944300,4.2999443359375,-0.0009928084909915924,0.0001406925730407238,0.002514998894184828
1772699591391901400,4.3099013671875,0.002047973684966564,0.00012899376451969147,0.002483723219484091
1772699591401858300,4.3198583984375,-0.0016801856691017747,-0.00021162442862987518,0.000805132556706667
1772699591411816400,4.32981640625,0.0018329457379877567,-0.002007818315178156,-0.0006035389378666878
1772699591421773300,4.339773193359375,0.003084365278482437,-0.0003052596002817154,-0.0008157927077263594
1772699591431730200,4.349730224609375,-0.0006414917297661304,0.00041979923844337463,0.004800813738256693
1772699591441687300,4.359687255859375,0.0018925061449408531,0.0016003786586225033,-0.0010581410024315119
1772699591451644400,4.36964453125,0.0007034719455987215,0.0006759571842849255,0.0012136776931583881
1772699591461602600,4.3796025390625,0.0014297158923000097,0.0005353419110178947,0.0008909027092158794
1772699591471559200,4.38955908203125,0.00032837665639817715,0.000030502676963806152,0.002720177173614502
1772699591481516300,4.399516357421875,0.0013678085524588823,-0.0005681761540472507,0.000009878072887659073
1772699591491473400,4.409473388671875,-0.0014450669987127185,-0.0008606803603470325,0.001239307690411806
1772699591501430300,4.41943017578125,-0.00006847898475825787,0.0023529562167823315,-0.00010665366426110268
1772699591511387400,4.429387451171875,0.0003099392633885145,0.0005935579538345337,0.000859423540532589
1772699591521345300,4.43934521484375,0.00028570438735187054,0.0009091426618397236,0.0025582541711628437
1772699591531302400,4.449302490234375,-0.001534129143692553,-0.00030966149643063545,-0.0002055657096207142
1772699591541259300,4.45925927734375,-0.0021607710514217615,0.0008008764125406742,-0.000748584046959877
1772699591551216400,4.46921630859375,0.0011078095994889736,0.002336384728550911,-0.0013251588679850101
1772699591561173500,4.479173583984375,-0.0006746440194547176,-0.0012173368595540524,0.002080757636576891
1772699591571131400,4.48913134765625,-0.0009716087952256203,-0.0006051459349691868,0.001296688336879015
1772699591581088300,4.499088134765625,0.0016635891515761614,-0.00024268962442874908,0.0007933513261377811
1772699591591045400,4.50904541015625,-0.00004892493598163128,0.0012987474910914898,-0.0012573818676173687
1772699591601002500,4.51900244140625,-0.0003067187499254942,-0.0007926332764327526,0.0003258674405515194
1772699591610959400,4.52895947265625,0.0016333709936589003,0.00018010474741458893,-0.0004652568604797125
1772699591620917200,4.538917236328125,-0.0006689315196126699,0.0009095445275306702,-0.0022418517619371414
1772699591630874400,4.548874267578125,-0.000060588354244828224,0.00008461438119411469,-0.0008568223565816879
1772699591640831500,4.55883154296875,3.9814040064811707e-7,-0.0031085156369954348,0.00006329966709017754
1772699591650788400,4.568788330078125,-0.0016635939246043563,0.0018394337967038155,-0.0003911512903869152
1772699591660745500,4.578745361328125,0.00006319978274405003,-0.0011510299518704414,-0.0024407203309237957
1772699591670703400,4.588703369140625,-0.0006956274155527353,-0.0016062622889876366,0.0026915492489933968
1772699591680660500,4.598660400390625,0.0006316921208053827,-0.0010182363912463188,-0.0012544568162411451
1772699591690617300,4.608617431640625,-0.00037666037678718567,0.000984793994575739,-0.0007377422880381346
1772699591700574500,4.618574462890625,0.002471590181812644,0.002176291774958372,-0.0038230144418776035
1772699591710531600,4.628531494140625,-0.0008782806107774377,0.0002918904647231102,-0.001828014850616455
1772699591720488200,4.63848828125,-0.0006756139919161797,0.00014168815687298775,-0.0019609066657721996
1772699591730446300,4.6484462890625,-0.001815972151234746,0.003136209212243557,-0.0022808844223618507
1772699591740403500,4.658403564453125,-0.0009536405559629202,0.0003417539410293102,0.002505348529666662
1772699591750360600,4.668360595703125,0.0005713154096156359,0.0008925986476242542,-0.0014254015404731035
1772699591760317400,4.6783173828125,0.0011897014919668436,-0.001996664796024561,0.0011408203281462193
1772699591770274300,4.6882744140625,-0.0003249482251703739,-0.0010322723537683487,0.0004858560860157013
1772699591780232400,4.698232421875,0.0005951740313321352,-0.0001198737882077694,-0.00010350160300731659
1772699591790189600,4.708189453125,0.0010418999008834362,0.0016605760902166367,-0.00009791366755962372
1772699591800146400,4.718146484375,0.0043852319940924644,-0.002281701425090432,0.0021945354528725147
1772699591810103300,4.728103271484375,-0.0004774704575538635,-0.0011492203921079636,0.0026731640100479126
1772699591820060400,4.738060302734375,0.00012174085713922977,0.0015592146664857864,0.0032196445390582085
1772699591830018600,4.7480185546875,-0.0001912976149469614,0.00016834726557135582,0.00012129498645663261
1772699591839975400,4.757975341796875,-0.0015995772555470467,0.001197925303131342,0.0023218649439513683
1772699591849932500,4.7679326171875,0.0018479295540601015,-0.00045573944225907326,0.0003083343617618084
1772699591859889400,4.777889404296875,-0.0004378615412861109,0.0001874137669801712,0.0014689397066831589
1772699591869846300,4.78784619140625,-0.0014174983371049166,0.0002760710194706917,-0.0004837161395698786
1772699591879803400,4.797803466796875,-0.0008129607886075974,0.0014614439569413662,-0.0012986434157937765
1772699591889761500,4.807761474609375,-0.0009341121185570955,0.0013797013089060783,0.0013499977067112923
1772699591899718400,4.817718505859375,0.0005276969168335199,0.00014905491843819618,-0.0008798670023679733
1772699591909675300,4.82767529296875,-0.0017952686175704002,0.001035124994814396,0.0003711399622261524
1772699591919632400,4.83763232421875,-0.0000338538084179163,0.0002889074385166168,-0.002666993997991085
1772699591929589500,4.847589599609375,0.0006049075163900852,0.0005730278789997101,-0.0019111030269414186
1772699591939547600,4.857547607421875,-0.001596993999555707,-0.0009092874825000763,0.0002545793540775776
1772699591949504300,4.867504150390625,-0.0007115507032722235,-0.0002540070563554764,0.00037685269489884377
1772699591959461400,4.87746142578125,0.002372123533859849,-0.0020034373737871647,0.0010439744219183922
1772699591969418500,4.88741845703125,-0.0017697885632514954,0.0016136239282786846,-0.0029201507568359375
1772699591979375400,4.897375244140625,-0.0007772285025566816,-0.00040425313636660576,-0.00003514811396598816
1772699591989333500,4.90733349609375,0.0008631320670247078,0.00013245781883597374,0.002222637180238962
1772699591999290400,4.917290283203125,0.0019917800091207027,-0.001301654614508152,0.00144259724766016
1772699592009247500,4.92724755859375,-0.0002701040357351303,-0.001794891431927681,0.0017483606934547424
1772699592019204400,4.937204345703125,-0.0003760978579521179,-0.00004253163933753967,0.001080173533409834
1772699592029161500,4.947161376953125,-0.002066375920549035,0.0018383199349045753,0.00025825388729572296
1772699592039119400,4.957119384765625,-0.002467714250087738,0.0028612399473786354,-0.0010906371753662825
1772699592049076200,4.967076171875,-0.0008810441941022873,-0.00006246240809559822,0.0001111677847802639
1772699592059033300,4.977033447265625,-0.0010775855043902993,-0.000927989836782217,-0.0016971188597381115
1772699592068990500,4.986990478515625,-0.0019798530265688896,0.000025293324142694473,0.0008795354515314102
1772699592078947600,4.996947509765625,-0.0012003456940874457,0.000023695174604654312,-0.0003862651064991951
1772699592088904400,5.006904541015625,-0.0027317649219185114,0.00021846313029527664,0.003561179619282484
1772699592098862300,5.0168623046875,0.0007263496518135071,0.0009393808431923389,-0.0013787178322672844
1772699592108819500,5.0268193359375,0.0003760529216378927,-0.0010902239009737968,-0.0018109604716300964
1772699592118776300,5.0367763671875,-0.000354984775185585,0.0012621465139091015,-0.0014956423547118902
1772699592128733400,5.0467333984375,0.0010063794907182455,-0.003207635600119829,0.0005266834050416946
1772699592138690600,5.056690673828125,-0.0006977771408855915,0.0030111121013760567,0.00015224330127239227
1772699592148648400,5.0666484375,0.0011590314097702503,-0.00016220007091760635,0.0011803088709712029
1772699592158605300,5.076605224609375,-0.00032647978514432907,0.0010689790360629559,-0.002133995061740279
1772699592168562400,5.0865625,0.0006906159687787294,0.0003714640624821186,-0.0014598704874515533
1772699592178519600,5.09651953125,-0.00093790702521801,-0.0019244472496211529,-0.00017063412815332413
1772699592188476400,5.106476318359375,0.0004975246265530586,0.0008260714821517467,-0.001497975317761302
1772699592198434300,5.116434326171875,0.0004463917575776577,0.0027917511761188507,-0.003462589345872402
1772699592208391400,5.126391357421875,0.00012510991655290127,0.0017667724750936031,0.001960666384547949
1772699592218348500,5.1363486328125,-0.001041887211613357,-0.0013667033053934574,0.00005064764991402626
1772699592228305400,5.146305419921875,0.0015056140255182981,0.000722731463611126,0.0018777009099721909
1772699592238262500,5.156262451171875,-0.0003689848817884922,-0.0008352175354957581,-0.00016973726451396942
1772699592248219400,5.166219482421875,-0.0018633423605933785,0.0022583045065402985,-0.0010718994308263063
1772699592258177500,5.176177490234375,0.001645105890929699,-0.001540161669254303,0.0026266989298164845
1772699592268134400,5.186134521484375,-0.001446358859539032,0.0008890321478247643,0.002619772683829069
1772699592278091500,5.196091552734375,-0.0005459440872073174,0.0012719947844743729,-0.003703637048602104
1772699592288048400,5.20604833984375,0.0005426588468253613,-0.0015927855856716633,0.00259221438318491
1772699592298005200,5.216005126953125,0.00012800469994544983,0.0003244243562221527,-0.0012283565010875463
1772699592307963400,5.22596337890625,-0.0003324097488075495,-0.0010777777060866356,0.0018844050355255604
1772699592317920500,5.23592041015625,0.0013216796796768904,0.0009891013614833355,0.0027059903368353844
1772699592327877600,5.245877685546875,-0.00012857140973210335,0.000017865560948848724,-0.0012636398896574974
1772699592337834200,5.255834228515625,0.0007846264634281397,0.001295384019613266,0.00006048381328582764
1772699592347791400,5.265791259765625,0.0002534112427383661,0.0009344536811113358,-0.0018237980548292398
1772699592357749500,5.27574951171875,0.0028270899783819914,-0.0009800931438803673,0.00153711112216115
1772699592367706600,5.28570654296875,0.0006701466627418995,-0.0002698507159948349,0.001550800632685423
1772699592377663500,5.29566357421875,0.0031066727824509144,-0.0002442845143377781,0.00016569020226597786
1772699592387620400,5.305620361328125,-0.001085188239812851,0.00033997930586338043,0.0015926272608339787
1772699592397577500,5.315577392578125,-0.0018644292140379548,-0.0006118346937000751,0.0030592302791774273
1772699592407534300,5.325534423828125,-0.0007307075429707766,-0.002238554647192359,0.0013611507602036
1772699592417492500,5.335492431640625,0.002288252115249634,-0.0022659851238131523,0.0024988530203700066
1772699592427449300,5.345449462890625,0.0007260511629283428,0.00009279279038310051,0.0022654999047517776
1772699592437406500,5.355406494140625,0.00025174207985401154,0.0019122641533613205,0.00031473441049456596
1772699592447363300,5.36536328125,-0.001348595367744565,0.0021310956217348576,-0.002470653969794512
1772699592457320400,5.375320556640625,-0.0009147664532065392,-0.002672980073839426,-0.0009822130668908358
1772699592467278600,5.385278564453125,0.0008592610247433186,0.001842448953539133,-0.00028586620464921
1772699592477235200,5.395235107421875,0.0004912121221423149,-0.003112362464889884,0.0018007205799221992
1772699592487192300,5.4051923828125,0.00012828409671783447,-0.0001945681869983673,0.001163459848612547
1772699592497149400,5.4151494140625,0.00013174605555832386,0.00133834732696414,0.0014614672400057316
1772699592507106600,5.4251064453125,0.0015640759374946356,-0.0022048831451684237,0.0028848820365965366
1772699592517064400,5.435064453125,-0.001129445037804544,0.0026532551273703575,-0.0002251574769616127
1772699592527021300,5.445021240234375,0.0010160922538489103,-0.0006744023412466049,-0.0024012390058487654
1772699592536978400,5.454978515625,0.0007604286074638367,-0.00025309016928076744,0.000070174690335989
1772699592546935300,5.464935302734375,-0.0014624105533584952,0.0025802794843912125,0.0007441770285367966
1772699592556892400,5.474892333984375,-0.0018917120760306716,0.0006082081235945225,0.0009220759384334087
1772699592566849500,5.484849609375,0.0009059258736670017,0.00007535750046372414,-0.0005435685161501169
1772699592576807400,5.494807373046875,-0.001773480442352593,0.0015198560431599617,-0.0002546156756579876
1772699592586764300,5.504764404296875,-0.00005330052226781845,0.0002763178199529648,-0.0012653369922190905
1772699592596721400,5.514721435546875,-0.0004431873094290495,0.0008595502004027367,0.0000982014462351799
1772699592606678500,5.524678466796875,-0.0016479803016409278,0.0015360992401838303,0.0001251394860446453
1772699592616635400,5.534635498046875,0.000009304843842983246,-0.0008114771917462349,0.0003451164811849594
1772699592626593300,5.54459326171875,-0.00086357188411057,0.004025083966553211,-0.00032852450385689735
1772699592636550400,5.55455029296875,-0.00002574129030108452,0.0018716519698500633,-0.0021597142331302166
1772699592646508300,5.56450830078125,0.000280383275821805,-0.0008419533260166645,-0.004870765842497349
1772699592656465200,5.574465087890625,-0.0002738204784691334,-0.0015231897123157978,0.003208465874195099
1772699592666422000,5.584422119140625,0.0007104768883436918,0.001002275850623846,-0.0018714664038270712
1772699592676379100,5.594379150390625,0.0020183550659567118,0.0010763118043541908,0.001440440770238638
1772699592686337300,5.604337158203125,-0.0009692298481240869,-0.0011373772285878658,0.0028235306963324547
1772699592696294100,5.614294189453125,-0.000594789395108819,-0.00007104780524969101,-0.0013954492751508951
1772699592706251300,5.624251220703125,0.00028025289066135883,0.0033086566254496574,0.0016395417042076588
1772699592716208000,5.6342080078125,-0.0007439989130944014,-0.00015638256445527077,-0.001600193791091442
1772699592726165000,5.6441650390625,0.0028217413928359747,-0.002338946331292391,-0.0009576489683240652
1772699592736123100,5.654123046875,0.0005466029979288578,-0.001210564747452736,-0.0016343581955879927
1772699592746080300,5.664080322265625,0.0010394908022135496,-0.0002479804679751396,0.001597082708030939
1772699592756037000,5.674037109375,-0.0006912974640727043,0.00175018934533,0.0016727163456380367
1772699592765994000,5.683993896484375,0.0007373688276857138,0.0006393762305378914,0.002998722717165947
1772699592775951000,5.693951171875,-0.00039047980681061745,-0.0006458652205765247,-0.001578186172991991
1772699592785909200,5.7039091796875,0.0005284072831273079,0.002619328908622265,0.0036112768575549126
1772699592795866400,5.713866455078125,-0.0010780113516375422,-0.0009173494763672352,0.0006943168118596077
1772699592805823000,5.723822998046875,-0.0025944465305656195,0.0015082280151546001,-0.0012195475865155458
1772699592815780000,5.733780029296875,-0.0006982758641242981,-0.001619121991097927,-0.0003582811914384365
1772699592825737200,5.7437373046875,-0.0025189996231347322,0.0005870223976671696,0.0018757800571620464
1772699592835694000,5.753694091796875,-0.0010196400107815862,0.0016839783638715744,0.0006467313505709171
1772699592845652200,5.76365234375,-0.000119820237159729,0.0016642692498862743,0.0001519564539194107
1772699592855609000,5.773609130859375,-0.0015848251059651375,-0.0005746507085859776,0.00009762775152921677
1772699592865566000,5.78356591796875,0.0008368666749447584,-0.0015650349669158459,0.0012033344246447086
1772699592875523000,5.793523193359375,-0.002156526315957308,-0.0005714097060263157,0.00028720684349536896
1772699592885480200,5.803480224609375,0.0002478999085724354,0.0008450173772871494,0.0009172032587230206
1772699592895438000,5.81343798828125,0.000007949303835630417,0.0007749763317406178,-0.0015954889822751284
1772699592905395000,5.82339501953125,-0.0013222206616774201,-0.00042641395702958107,-0.0012744641862809658
1772699592915352000,5.83335205078125,-0.0012721532257273793,0.002250329125672579,0.00012609222903847694
1772699592925309200,5.84330908203125,-0.0008152645314112306,-0.000730147585272789,-0.0007368144579231739
1772699592935266000,5.85326611328125,0.0002939421683549881,-0.00220207660458982,0.00018623704090714455
1772699592945224000,5.863223876953125,-0.0011321248020976782,0.000546034425497055,0.0028887437656521797
1772699592955181000,5.87318115234375,0.003989933058619499,0.0007713381201028824,0.001223735511302948
1772699592965138200,5.88313818359375,-0.001962148118764162,0.00007616449147462845,-0.0001341104507446289
1772699592975095000,5.893094970703125,0.000038951169699430466,0.0008207843638956547,-0.002363442676141858
1772699592985052200,5.90305224609375,0.0015103872865438461,-0.001412480603903532,0.0005259355530142784
1772699592995009300,5.91300927734375,-0.0023980678524821997,-0.002335532335564494,-0.002644025254994631
1772699593004967200,5.92296728515625,0.0004226530436426401,-0.00035494985058903694,-0.0024422956630587578
1772699593014924000,5.932924072265625,-0.00002102949656546116,-0.0009810589253902435,0.003570323344320059
1772699593024881200,5.942881103515625,-0.0012941112508997321,0.0011830809526145458,0.00225074402987957
1772699593034838300,5.95283837890625,0.00012748409062623978,-0.0015554474666714668,-0.0003764643333852291
1772699593044795100,5.962795166015625,-0.0021691645961254835,0.0012066829949617386,-0.00015975721180438995
1772699593054753000,5.9727529296875,0.004107107408344746,-0.0009747124277055264,0.000399773009121418
1772699593064710100,5.982710205078125,-0.00043557235039770603,0.0018421057611703873,-0.0005348981358110905
1772699593074667300,5.992667236328125,0.003732008393853903,-0.000543021596968174,-0.0004986790008842945
1772699593084624100,6.0026240234375,0.0011559627018868923,0.001182618085294962,-0.00045345211401581764
1772699593094581200,6.012581298828125,-0.0003423315938562155,0.0012878128327429295,0.0024917377158999443
1772699593104538000,6.0225380859375,0.0024602138437330723,-0.0036267500836402178,0.0005112267099320889
1772699593114496300,6.032496337890625,0.00005777599290013313,0.000838039442896843,-0.0013300830032676458
1772699593124453000,6.042453125,0.0012890631332993507,0.0007415274158120155,0.0033889571204781532
1772699593134410200,6.05241015625,0.000038709258660674095,0.0003921207971870899,0.0010661478154361248
1772699593144367000,6.0623671875,0.0005775142926722765,-0.0003914576955139637,0.0003259456716477871
1772699593154324000,6.072323974609375,0.0003314381465315819,-0.0024665927048772573,0.0005709566175937653
1772699593164282000,6.0822822265625,0.00033618463203310966,0.0006248829886317253,0.0015013860538601875
1772699593174239200,6.0922392578125,0.0018603119533509016,-0.00019750138744711876,-0.001260045450180769
1772699593184196400,6.1021962890625,-0.0022035990841686726,-0.0008949730545282364,0.00032029952853918076
1772699593194153000,6.112153076171875,0.0008822055533528328,-0.0016835350543260574,-0.0008352459408342838
1772699593204110000,6.122110107421875,-0.001649580430239439,-0.0008053714409470558,-0.0007104782853275537
1772699593214068200,6.132068115234375,-0.0008226688951253891,-0.0017159064300358295,-0.0010907778050750494
1772699593224025300,6.142025390625,0.00021700584329664707,0.00003566546365618706,-0.00037424592301249504
1772699593233982200,6.151982177734375,0.000040171900764107704,-0.003461065236479044,-0.000903415959328413
1772699593243939000,6.16193896484375,-0.001863769837655127,0.0015834937803447247,-0.0002479804679751396
1772699593253896200,6.171896240234375,-0.0017425960395485163,-0.00023704301565885544,0.00098399817943573
1772699593263853000,6.18185302734375,0.0009407403413206339,0.00032605836167931557,-0.002631787210702896
1772699593273811200,6.191811279296875,-0.0007719385903328657,-0.0002803434617817402,-0.0021108731161803007
1772699593283768000,6.20176806640625,-0.0028479464817792177,-0.0013135513290762901,0.0025266986340284348
1772699593293725200,6.21172509765625,-0.00010995077900588512,0.002658553421497345,-0.0030142744071781635
1772699593303682000,6.22168212890625,-0.00030316482298076153,-0.0019265888258814812,0.000437410082668066
1772699593313639200,6.23163916015625,-0.00036095548421144485,-0.0011066016741096973,-0.0006917701102793217
1772699593323597300,6.241597412109375,-0.0029930025339126587,-0.002414161805063486,0.0004633758217096329
1772699593333554000,6.251553955078125,0.0008696464356034994,-0.001135578379034996,0.000015698373317718506
1772699593343511000,6.261510986328125,-0.0007361210882663727,-0.0003056563436985016,-0.0011761733330786228
1772699593353468200,6.27146826171875,-0.000647970475256443,0.0004384312778711319,0.001512820366770029
1772699593363425000,6.281425048828125,0.00025102123618125916,-0.00014259666204452515,0.000028147827833890915
1772699593373382100,6.291382080078125,-0.00018200883641839027,-0.0010802955366671085,-0.00026480015367269516
1772699593383340000,6.301340087890625,0.000040229177102446556,0.0011159870773553848,0.002099900506436825
1772699593393297200,6.311297119140625,-0.0010748363565653563,-0.0010534240864217281,-0.0014231952372938395
1772699593403254000,6.32125390625,-0.0018901797011494637,0.001807458233088255,0.002085144631564617
1772699593413211100,6.331211181640625,0.002722415141761303,-0.0008479799143970013,-0.000779351219534874
1772699593423168300,6.341168212890625,-0.00017594126984477043,-0.0005437470972537994,0.00035016750916838646
1772699593433126100,6.351126220703125,0.0005407154094427824,-0.0004659830592572689,-0.0000740736722946167
1772699593443083000,6.3610830078125,-0.0004783053882420063,-0.00169086130335927,0.000522917602211237
1772699593453040000,6.3710400390625,0.00006764265708625317,-0.0001808488741517067,0.00010826345533132553
1772699593462997200,6.380997314453125,0.0012466630432754755,0.000467933714389801,-0.0006311379838734865
1772699593472954000,6.3909541015625,-0.003046086523681879,0.000014930032193660736,-0.0017866836860775948
1772699593482912000,6.400912109375,-0.00036584469489753246,-0.0018692570738494396,-0.0014180184807628393
1772699593492869000,6.410869140625,-0.0018124738708138466,-0.00018560653552412987,-0.0020023160614073277
1772699593502826200,6.420826171875,-0.00089862453751266,0.0018604225479066372,0.0008709393441677094
1772699593512783000,6.430783203125,0.0016124697867780924,0.0015253964811563492,-0.0016358941793441772
1772699593522740200,6.440740234375,0.0016080995555967093,0.002632295712828636,-0.0026821393985301256
1772699593532697000,6.450697021484375,-0.00020924163982272148,0.00005408981814980507,0.0006257728673517704
1772699593542655200,6.4606552734375,-0.0016816196730360389,0.0012278859503567219,-0.0020020706579089165
1772699593552612000,6.470612060546875,0.002735765650868416,-0.0005202130414545536,-0.00027208123356103897
1772699593562569200,6.4805693359375,-0.0022486152593046427,0.0001209033653140068,-0.0003721066750586033
1772699593572526300,6.4905263671875,0.00003318116068840027,-0.0008128010667860508,0.002003433182835579
1772699593582483000,6.50048291015625,0.00006970553658902645,-0.00026906561106443405,0.0016936506144702435
1772699593592441000,6.510441162109375,-0.0016802576137706637,0.000802856869995594,0.0003370363265275955
1772699593602398200,6.520398193359375,-0.001034630462527275,0.0013553169555962086,-0.0013320392463356256
1772699593612355300,6.530355224609375,0.00010520243085920811,0.0007246802560985088,-0.0011757116299122572
1772699593622312200,6.540312255859375,-0.0004117030184715986,0.0027553141117095947,-0.000558898551389575
1772699593632269000,6.55026904296875,-0.0011909438762813807,0.002384335733950138,-0.004442852921783924
1772699593642226200,6.56022607421875,-0.0005201073363423347,0.002092386595904827,0.00039761513471603394
1772699593652183800,6.570183837890625,-0.0016476897289976478,0.00340425968170166,-0.0007925513200461864
1772699593662141000,6.580140869140625,0.0018834909424185753,0.0007186182774603367,0.0015879631973803043
1772699593672097800,6.590097900390625,0.0005220829043537378,-0.00033546052873134613,-0.0011289939284324646
1772699593682054700,6.6000546875,0.002289051190018654,0.0013098521158099174,0.0006659571081399918
1772699593692011800,6.61001171875,0.0010102014057338238,-0.0008326610550284386,-0.0002530999481678009
1772699593701970000,6.619969970703125,0.0003797854296863079,-0.00013326341286301613,0.0006110477261245251
1772699593711926800,6.6299267578125,0.000863947905600071,-0.002050472889095545,-0.0008832521270960569
1772699593721883600,6.639883544921875,-0.0010916510364040732,-0.0030599848832935095,-0.0016165031120181084
1772699593731840800,6.6498408203125,0.00031156837940216064,-0.0010998984798789024,-0.002131026005372405
1772699593741797600,6.659797607421875,0.0006472037639468908,-0.000389754306524992,0.0007211132906377316
1772699593751754800,6.669754638671875,0.0015545426867902279,0.000980442389845848,0.0003863540478050709
1772699593761713000,6.679712890625,-0.0018563284538686275,-0.0008712192066013813,0.0019436338916420937
1772699593771669800,6.689669677734375,-0.0022757763508707285,-0.0019194395281374454,0.0028009051457047462
1772699593781626600,6.699626708984375,-0.004326377995312214,-0.00014498550444841385,-0.0015625213272869587
1772699593791583700,6.709583740234375,-0.00014734570868313313,-0.001117305364459753,-0.0016581288073211908
1772699593801540900,6.719540771484375,-0.0008666537469252944,-0.0023999051190912724,0.0005922135896980762
1772699593811499000,6.7294990234375,0.0003267086576670408,-0.0008097314275801182,0.001418592408299446
1772699593821455600,6.73945556640625,-0.0018337898654863238,-0.0004921467043459415,0.0004273364320397377
1772699593831412700,6.749412841796875,0.002665620530024171,-0.002377930795773864,0.0009184232912957668
1772699593841369900,6.759369873046875,-0.0007157463114708662,-0.001554042100906372,0.0026082503609359264
1772699593851326700,6.76932666015625,-0.0025016621220856905,-0.001832608599215746,0.0010031629353761673
1772699593861283800,6.779283935546875,-0.0007546762935817242,-0.0007678321562707424,0.0009767324663698673
1772699593871241700,6.78924169921875,0.00025679217651486397,0.0009552333503961563,0.0012246728874742985
1772699593881198800,6.79919873046875,-0.0007961911614984274,-0.0014517689123749733,0.00223744148388505
1772699593891155700,6.80915576171875,-0.0012521243188530207,-0.0003172624856233597,0.0006544585339725018
1772699593901112800,6.81911279296875,0.0005294925067573786,0.0002295314334332943,0.002379360608756542
1772699593911070000,6.829070068359375,0.0007334905676543713,0.0008553746156394482,0.0006712093017995358
1772699593921027800,6.83902783203125,0.0009310636669397354,0.0003722649998962879,0.000577942468225956
1772699593930984700,6.848984619140625,-0.0009070500964298844,0.00024842796847224236,-0.002091343980282545
1772699593940941800,6.85894189453125,-0.0010652825003489852,-0.00016358867287635803,-0.001202613115310669
1772699593950899000,6.86889892578125,0.0007829512469470501,-0.0022328649647533894,0.001719140913337469
1772699593960855800,6.878855712890625,0.0007789474911987782,-0.0019077453762292862,0.0012370338663458824
1772699593970812700,6.888812744140625,0.00020477012731134892,0.002464898396283388,0.0025028344243764877
1772699593980770800,6.898770751953125,-0.002807516371831298,0.001557274255901575,-0.0010845926590263844
1772699593990728000,6.90872802734375,0.00009133457206189632,-0.0023919271770864725,-0.0013668877072632313
1772699594000684800,6.918684814453125,0.001225289423018694,-0.0003995927982032299,0.004316417500376701
1772699594010642000,6.928641845703125,-0.0012450586073100567,0.000734914094209671,-0.000518817687407136
1772699594020598800,6.938598876953125,0.0008886926807463169,0.0007058526389300823,0.0016009979881346226
1772699594030557000,6.948556884765625,-0.000760070513933897,-0.004021524451673031,0.0008201589807868004
1772699594040513800,6.958513671875,0.0008126134052872658,0.00096109788864851,-0.001377783715724945
1772699594050471000,6.968470947265625,-0.0015938188880681992,0.0006220773793756962,-0.000576704740524292
1772699594060428000,6.978427978515625,-0.0017226566560566425,-0.0004723076708614826,-0.0006711056921631098
1772699594070384600,6.988384521484375,-0.0012249117717146873,-0.00005286000669002533,0.0008024214766919613
1772699594080341800,6.998341796875,-0.0009119999594986439,0.0014471178874373436,0.0010882075875997543
1772699594090300000,7.0082998046875,0.0008273106068372726,0.0004332521930336952,-0.002211715327575803
1772699594100257000,7.018257080078125,-0.002095427829772234,0.0005768714472651482,0.0007529584690928459
1772699594110213600,7.028213623046875,0.0001829066313803196,0.00036195432767271996,-0.0008590526413172483
1772699594120170800,7.038170654296875,0.0003416803665459156,0.00019584735855460167,-0.0005488726310431957
1772699594130128000,7.0481279296875,-0.0002695152070373297,-0.0005274671129882336,-0.0014895012136548758
1772699594140085800,7.058085693359375,-0.0007361350581049919,0.0013410486280918121,-0.0003922763280570507
1772699594150043000,7.06804296875,0.0005975759122520685,-0.0010869554243981838,0.0015233354642987251
1772699594159999700,7.077999755859375,-0.0007561163511127234,0.00042120274156332016,-0.0015649250708520412
1772699594169956600,7.08795654296875,0.0022937357425689697,0.0005562249571084976,-0.00038088345900177956
1772699594179913700,7.097913818359375,0.0023017963394522667,-0.0004579192027449608,0.00002607237547636032
1772699594189870800,7.107870849609375,-0.00014325184747576714,-0.0033253447618335485,-0.0001797899603843689
1772699594199828700,7.117828857421875,0.0006891961675137281,0.0009928429499268532,0.00044510699808597565
1772699594209785600,7.12778564453125,0.0004913234151899815,0.0006136088632047176,0.0016390024684369564
1772699594219742700,7.13774267578125,0.0003934574779123068,0.002112259157001972,0.001809632871299982
1772699594229699800,7.147699951171875,0.0005063754506409168,-0.001096051186323166,0.0031547951512038708
1772699594239656700,7.15765673828125,0.0014091182965785265,-0.00008206348866224289,0.0037660114467144012
1772699594249613800,7.16761376953125,0.00026342645287513733,-0.00006954651325941086,0.0006549069657921791
1772699594259571700,7.17757177734375,0.0003755951765924692,-0.00021288404241204262,0.0011186772026121616
1772699594269528800,7.18752880859375,-0.00030404352582991123,0.000407366082072258,-0.0011961422860622406
1772699594279485700,7.197485595703125,0.0017154694069176912,0.00014260085299611092,-0.0008211422245949507
1772699594289442800,7.20744287109375,-0.00011225789785385132,0.0001710965298116207,-0.0045010983012616634
1772699594299400000,7.21739990234375,0.00026911147870123386,-0.0008948231115937233,0.0005869860760867596
1772699594309357800,7.22735791015625,0.0014574136584997177,-0.0013193311169743538,-0.002365127904340625
1772699594319314700,7.237314697265625,-0.0014418518403545022,-0.0005651530809700489,-0.0002965186722576618
1772699594329271800,7.247271728515625,-0.0017430552979931235,-0.00033345818519592285,0.0014824727550148964
1772699594339229000,7.25722900390625,-0.0009213082958012819,0.0016693752259016037,-0.002354738302528858
1772699594349185800,7.267185791015625,0.0003263826947659254,-0.0013783457688987255,0.0002825898118317127
1772699594359142700,7.277142578125,-0.0011272289557382464,-0.0032794068101793528,-0.001642522867769003
1772699594369100800,7.287100830078125,-0.0004995218478143215,0.00023277010768651962,-0.00020441599190235138
1772699594379058000,7.297057861328125,0.0050835758447647095,-0.00024833111092448235,0.001182878389954567
1772699594389014800,7.307014892578125,-0.001616937923245132,0.00042864400893449783,0.00035703228786587715
1772699594398972000,7.316971923828125,0.00005104183219373226,0.00047200266271829605,0.0011360622011125088
1772699594408928800,7.3269287109375,-0.0017404666868969798,0.0014379308559000492,-0.0011880784295499325
1772699594418887000,7.336886962890625,0.000018904218450188637,0.000028845854103565216,-0.0008292915299534798
1772699594428843800,7.34684375,-0.0002114593517035246,-0.00203403877094388,-0.00047748791985213757
1772699594438801000,7.35680078125,-0.0006597747560590506,0.001309855841100216,-0.00045163463801145554
1772699594448757800,7.3667578125,-0.00080678123049438,-0.001665427815169096,0.003315140027552843
1772699594458714600,7.376714599609375,0.0018615506123751402,0.0015409542247653008,-0.0005906934384256601
1772699594468672800,7.3866728515625,0.002937467535957694,0.0004498572088778019,0.002438652329146862
1772699594478630000,7.3966298828125,0.0016969775315374136,0.0006260736845433712,0.0021198680624365807
1772699594488587000,7.4065869140625,-0.00002928357571363449,-0.0011928649619221687,0.0010383585467934608
1772699594498543600,7.416543701171875,0.00218278169631958,-0.00012583797797560692,0.0020933663472533226
1772699594508500700,7.426500732421875,-0.0003490853123366833,0.0002531297504901886,0.0010965452529489994
1772699594518457900,7.436457763671875,0.000409489031881094,-0.00003964407369494438,0.0014791963621973991
1772699594528416000,7.446416015625,0.00042280484922230244,0.0002847290597856045,-0.0016169946175068617
1772699594538372900,7.456372802734375,0.0007114990148693323,0.00024108635261654854,0.0016100802458822727
1772699594548329700,7.466329833984375,0.0010630362667143345,-0.0017349794507026672,0.00006358278915286064
1772699594558286800,7.476286865234375,0.002255355939269066,-0.0013248356990516186,0.0009005814790725708
1772699594568243700,7.48624365234375,-0.0023995833471417427,-0.0035339277237653732,-0.00041954731568694115
1772699594578200800,7.496200927734375,-0.0008410881273448467,-0.00018698861822485924,-0.0016373186372220516
1772699594588158700,7.50615869140625,0.00040447223000228405,-0.000519084744155407,0.0001387433148920536
1772699594598115600,7.516115478515625,0.00014304928481578827,0.0014637191779911518,-0.00511872349306941
1772699594608072700,7.52607275390625,-0.0015153010608628392,0.0006511886604130268,0.0013508936390280724
1772699594618029800,7.53602978515625,0.0008733104914426804,-0.0018532471731305122,0.0009739645756781101
1772699594627987000,7.545987060546875,0.001505811233073473,0.0008405405096709728,-0.0007373825646936893
1772699594637944600,7.555944580078125,0.00010452792048454285,-0.0019055833108723164,0.000011532101780176163
1772699594647902200,7.565902099609375,-0.0005809697322547436,-0.0012467172928154469,0.0011870511807501316
1772699594657859000,7.575859130859375,0.0000213750172406435,0.00010006269440054893,-0.000028043054044246674
1772699594667816200,7.585816162109375,-0.0008207164937630296,0.002448437735438347,-0.0024025174789130688
1772699594677773300,7.595773193359375,0.0004180718678981066,-0.0002640276215970516,0.0015251743607223034
1772699594687730200,7.605730224609375,0.0011347285471856594,0.0008358578197658062,-0.0002604750916361809
1772699594697688000,7.61568798828125,0.0004673078656196594,-0.0037993881851434708,0.0034915292635560036
1772699594707645200,7.625645263671875,-0.0001918245106935501,-0.0018161321058869362,0.002639317885041237
1772699594717602300,7.635602294921875,0.000780030619353056,0.0017679259181022644,0.001991738099604845
1772699594727559200,7.64555908203125,-0.002066622255370021,0.001367652788758278,0.0005413806065917015
1772699594737516300,7.655516357421875,0.0006612534634768963,-0.0011309785768389702,-0.0014770803973078728
1772699594747474200,7.66547412109375,-0.0010381096508353949,-0.00035253632813692093,0.0025277812965214252
1772699594757431000,7.67543115234375,-0.0002027377486228943,-0.0008818507194519043,-0.00033149775117635727
1772699594767388200,7.68538818359375,-0.0008594732498750091,-0.001438184641301632,-0.001508881337940693
1772699594777345300,7.69534521484375,0.0005532456561923027,-0.00030455412343144417,-0.00018609222024679184
1772699594787302100,7.70530224609375,-0.0005429114680737257,0.0002459213137626648,-0.00041325949132442474
1772699594797259000,7.715259033203125,-0.0014908250886946917,-0.0010675452649593353,0.0019856588914990425
1772699594807217200,7.725217041015625,0.0017486442811787128,-0.0018976526334881783,-0.0000844164751470089
1772699594817174300,7.73517431640625,-0.00024123420007526875,-0.0004931986331939697,0.0008332100696861744
1772699594827131100,7.745131103515625,-0.0003384395968168974,-0.0013563288375735283,0.0015517310239374638
1772699594837088000,7.755087890625,0.0016219033859670162,0.0013006203807890415,0.0005027195438742638
1772699594847045000,7.765045166015625,0.000999522628262639,-0.0003034016117453575,-0.001335927052423358
1772699594857002000,7.775001953125,-0.0015309075824916363,-0.0002749967388808727,-0.0026249566581100225
1772699594866960100,7.784960205078125,0.0009250594303011894,-0.00042173685505986214,-0.0016489082481712103
1772699594876917200,7.794917236328125,0.0013642145786434412,-0.0008760723285377026,-0.0014643510803580284
1772699594886874000,7.8048740234375,-0.00011250795796513557,0.0003383294679224491,0.0008645830675959587
1772699594896831000,7.8148310546875,0.0017105282749980688,-0.0016840710304677486,-0.0008242309559136629
1772699594906788000,7.8247880859375,0.0022769824136048555,-0.0014100316911935806,0.002471697051078081
1772699594916746200,7.834746337890625,-0.0016091776778921485,-0.00006594695150852203,0.002626991830766201
1772699594926703000,7.844703125,0.0013147066347301006,-0.0029120673425495625,0.002567070536315441
1772699594936660000,7.854659912109375,0.0005481487605720758,-0.0023000272922217846,0.0051106237806379795
1772699594946617000,7.8646171875,-0.0010409593814983964,-0.000538878608494997,-0.002348357578739524
1772699594956574200,7.87457421875,0.00044534867629408836,-0.0014091446064412594,0.00012108497321605682
1772699594966531000,7.884531005859375,-0.00010592560283839703,-0.0024776048958301544,-0.0029972102493047714
1772699594976489000,7.894489013671875,-0.000682230107486248,-0.0010917005129158497,-0.000882098451256752
1772699594986446000,7.904446044921875,-0.00048302579671144485,0.0001778285950422287,-0.0007084603421390057
1772699594996403200,7.9144033203125,0.0014898630324751139,0.0004406590014696121,0.00011726561933755875
1772699595006360000,7.924360107421875,-0.0010870115365833044,-0.0007697474211454391,0.0003028879873454571
1772699595016317200,7.934317138671875,0.0005940287373960018,0.00008053472265601158,-0.0014943350106477737
1772699595026275000,7.944275146484375,0.002036396646872163,-0.002462517935782671,0.0014516538940370083
1772699595036232200,7.954232177734375,0.001459202729165554,-0.0012085945345461369,0.001420619897544384
1772699595046189000,7.96418896484375,-0.0008809170685708523,-0.0035284743644297123,0.0014376640319824219
1772699595056146200,7.974146240234375,-0.0021520722657442093,0.00039381999522447586,-0.00022242870181798935
1772699595066103300,7.984103271484375,-0.0010844109347090125,0.0016249995678663254,-0.0013074006419628859
1772699595076060200,7.99406005859375,0.0007543233223259449,-0.0013385768979787827,0.0004475214518606663
1772699595086018000,8.00401806640625,0.0010275635868310928,0.00045479554682970047,0.0016478081233799458
1772699595095975200,8.01397509765625,-0.001906028250232339,0.0011518090032041073,0.002627825364470482
1772699595105932300,8.023932373046875,-0.0019190777093172073,-0.0002612639218568802,-0.0019757149275392294
1772699595115889200,8.03388916015625,-0.0031268480233848095,0.0001803198829293251,0.0007429015822708607
1772699595125846300,8.04384619140625,0.001030612736940384,0.0005161440931260586,-0.00038867536932229996
1772699595135804200,8.05380419921875,0.001787795452401042,0.0008990517817437649,-0.0013105771504342556
1772699595145761300,8.06376123046875,-0.001857006922364235,-0.0009209522977471352,-0.0014786224346607924
1772699595155718100,8.07371826171875,-0.0003832252696156502,0.00023787282407283783,-0.0005036641377955675
1772699595165675300,8.08367529296875,0.0010013522114604712,-0.0004928982816636562,0.0017525660805404186
1772699595175632100,8.093632080078125,0.0005599483847618103,-0.0009797075763344765,0.001210465095937252
1772699595185589000,8.103589111328125,-0.0014411509037017822,0.00044082244858145714,-0.0002755788154900074
1772699595195547100,8.113547119140625,0.0003608865663409233,-0.002527588978409767,-0.0007606244180351496
1772699595205504300,8.123504150390625,0.0002607516944408417,0.000021588988602161407,-0.0004418441094458103
1772699595215461000,8.133461181640625,0.00037637772038578987,-0.000021360814571380615,-0.0006366295274347067
1772699595225418000,8.14341796875,-0.00042736437171697617,-0.0016932934522628784,0.00019507575780153275
1772699595235375000,8.153375,-0.0001937102060765028,-0.0012538153678178787,-0.0007720328867435455
1772699595245332200,8.163332275390625,0.0014888748992234468,-0.0019520963542163372,0.0004889741539955139
1772699595255290000,8.1732900390625,-0.00029412261210381985,-0.0006945370696485043,0.0007117926143109798
1772699595265247200,8.183247314453125,-0.00003126845695078373,-0.0001379363238811493,0.0006824973970651627
1772699595275204000,8.1932041015625,-0.0009164211805909872,0.0005091512575745583,0.0011830138973891735
1772699595285161000,8.203160888671874,-0.0021667752880603075,-0.00101497583091259,-0.0032130659092217684
1772699595295118000,8.2131181640625,0.0005420278757810593,-0.00005648238584399223,0.00034971535205841064
1772699595305076200,8.223076171875,-0.001436700695194304,0.0016532670706510544,0.0044081066735088825
1772699595315033000,8.233033203125,0.002923509804531932,-0.0018075602129101753,0.003025209065526724
1772699595324990000,8.242989990234374,0.002375431591644883,-0.0020336625166237354,0.0008211769163608551
1772699595334947000,8.252947021484376,0.0002963789738714695,-0.001507462002336979,0.0024329018779098988
1772699595344904200,8.262904296875,0.000827146926894784,-0.00027388567104935646,0.0010845432989299297
1772699595354861000,8.272861083984376,0.0017269793897867203,0.002047059591859579,-0.0003841179423034191
1772699595364819000,8.28281884765625,0.0026628137566149235,-0.0023934952914714813,-0.0014192885719239712
1772699595374776000,8.292776123046876,0.0017577013932168484,0.00011230260133743286,0.00013718614354729652
1772699595384733200,8.302733154296876,0.0015017716214060783,-0.0014171507209539413,0.002330299001187086
1772699595394690000,8.31268994140625,0.001018105773255229,-0.0020820321515202522,-0.0010842867195606232
1772699595404647200,8.322647216796875,0.0024021505378186703,0.0006940471939742565,0.0018904642201960087
1772699595414604300,8.332604248046875,-0.001152779208496213,0.0014287806116044521,0.004033273085951805
1772699595424562200,8.342562255859375,-0.0017581158317625523,0.00043408991768956184,0.0011911476030945778
1772699595434519000,8.35251904296875,0.0007300046272575855,-0.0018648295663297176,0.0014762203209102154
1772699595444476200,8.36247607421875,-0.00235580001026392,0.0005269553512334824,-0.0015219661872833967
1772699595454433300,8.372433349609375,-0.0000039585866034030914,0.0025997189804911613,-0.0023553918581455946
1772699595464390100,8.38239013671875,0.0012735598720610142,-0.001035762019455433,0.0009945984929800034
1772699595474348000,8.39234814453125,-0.0011347316903993487,0.000347907654941082,0.0008086822926998138
1772699595484305200,8.40230517578125,0.004091455601155758,0.001374023500829935,0.0003104051575064659
1772699595494262300,8.41226220703125,0.0009497373830527067,-0.0011356477625668049,0.00036530522629618645
1772699595504219100,8.42221923828125,0.001253337599337101,0.0022249952889978886,-0.00036147143691778183
1772699595514176300,8.43217626953125,0.0014032591134309769,-0.000015568453818559647,-0.0007299263961613178
1772699595524133000,8.442133056640625,-0.00026787444949150085,0.001713622361421585,-0.00262236874550581
1772699595534091300,8.45209130859375,-0.0010692401556298137,0.00005171447992324829,-0.0009424765594303608
1772699595544048000,8.462048095703125,-0.0011307591339573264,0.00014172913506627083,-0.0003379387781023979
1772699595554005200,8.472005126953125,-0.0011767491232603788,0.0015505515038967133,0.0006094267591834068
1772699595563962000,8.481962158203125,0.0006762784905731678,0.0007140524685382843,-0.0009730234742164612
1772699595573919000,8.4919189453125,-0.0005035798531025648,0.00023956503719091415,0.0021664886735379696
1772699595583877000,8.501877197265625,0.0005843215622007847,-0.0006856173276901245,0.0010484936647117138
1772699595593834200,8.511834228515625,0.000009241513907909393,0.002447735518217087,0.0019275755621492863
1772699595603791400,8.521791259765624,0.001289689214900136,0.00044237542897462845,0.0021062735468149185
1772699595613748000,8.531748046875,0.00048216781578958035,-0.0007280432619154453,-0.00032851239666342735
1772699595623705000,8.541705078125,-0.0008709842804819345,0.00039607705548405647,-0.00048537272959947586
1772699595633662200,8.551662109375,-0.00017334683798253536,-0.0019346107728779316,-0.0034269001334905624
1772699595643620400,8.561620361328124,0.0029683844186365604,0.000569559633731842,0.0019295159727334976
1772699595653576700,8.57157666015625,0.0008437347132712603,-0.0022299964912235737,0.0007740659639239311
1772699595663533600,8.581533447265626,-0.00026147719472646713,0.0022763381712138653,-0.0006451322697103024
1772699595673490400,8.591490478515626,0.0005467827431857586,0.00019198516383767128,-0.0023735647555440664
1772699595683447600,8.601447509765626,0.001536147203296423,0.002351808827370405,0.0009228959679603577
1772699595693404400,8.611404296875,-0.003446428570896387,-0.0023677805438637733,-0.0012369463220238686
1772699595703362600,8.621362548828126,-0.00018325727432966232,0.0019750366918742657,-0.0011053860653191805
1772699595713319400,8.6313193359375,-0.001687825657427311,0.0010384917259216309,-0.0013585826382040977
1772699595723276500,8.641276611328125,0.0007774624973535538,0.0014092037454247475,-0.0005963859148323536
1772699595733233400,8.6512333984375,-0.001013823552057147,-0.0026422375813126564,0.0005030459724366665
1772699595743190500,8.6611904296875,-0.0007485727546736598,4.172325134277344e-7,-0.0003243982791900635
1772699595753147600,8.671147705078125,0.001903789583593607,-0.0014795511960983276,-0.003819952718913555
1772699595763105300,8.681105224609375,-0.0009961266769096255,0.00019531045109033585,-0.0012878191191703081
1772699595773062400,8.6910625,-0.0029451146256178617,0.0005554463714361191,0.0009445613250136375
1772699595783019500,8.70101953125,-0.00267799966968596,-0.0011100945994257927,0.0009496212005615234
1772699595792976600,8.7109765625,0.0008708604145795107,-0.0004805848002433777,-0.00031524570658802986
1772699595802933500,8.72093359375,-0.000668979249894619,-0.0018680915236473083,-0.0004582577385008335
1772699595812891400,8.730891357421875,0.0027558025903999805,-0.00007047224789857864,-0.0007201945409178734
1772699595822848500,8.7408486328125,-0.0007491835858672857,0.0009138323366641998,0.0022534909658133984
1772699595832805400,8.750805419921875,-0.00065277935937047,-0.0013612103648483753,-0.0010214904323220253
1772699595842762500,8.760762451171875,0.001352847320958972,0.0005749077536165714,-0.00039697904139757156
1772699595852719600,8.7707197265625,-0.00029127649031579494,-0.0000897175632417202,-0.00024781329557299614
1772699595862676700,8.7806767578125,-0.002141374396160245,-0.002340887673199177,-0.0023991146590560675
1772699595872634400,8.79063427734375,-0.002118704142048955,0.0005449657328426838,-0.0005969451740384102
1772699595882591500,8.800591552734375,-0.0006454433314502239,-0.0010497351177036762,0.0003761737607419491
1772699595892548600,8.810548583984374,0.0010637897066771984,-0.0011633899994194508,0.0009661158546805382
1772699595902505500,8.82050537109375,-0.0009309180313721299,0.0014124196022748947,0.004307051654905081
1772699595912462600,8.830462646484374,-0.0010309231001883745,-0.0006073815748095512,0.00013470882549881935
1772699595922419500,8.84041943359375,0.0008996024262160063,-0.0013991394080221653,0.0022639064118266106
1772699595932377600,8.850377685546874,0.0013649531174451113,0.0014445595443248749,0.002365832682698965
1772699595942334500,8.86033447265625,0.0038856349419802427,0.00027649709954857826,0.0016600950621068478
1772699595952291600,8.87029150390625,-0.00026321434415876865,0.0014826920814812183,0.0010288930498063564
1772699595962248400,8.88024853515625,0.001705660717561841,0.0006768195889890194,0.0012765671126544476
1772699595972205300,8.890205322265626,-0.0022584928665310144,0.0006739357486367226,-0.0000555720180273056
1772699595982163500,8.90016357421875,0.002148505998775363,0.003342156298458576,0.0005486994050443172
1772699595992120600,8.91012060546875,0.0015554470010101795,-0.0019176183268427849,0.0010250774212181568
1772699596002077700,8.92007763671875,-0.0009974592830985785,0.00044487183913588524,-0.0006087720394134521
1772699596012034300,8.930034423828126,0.0004602838307619095,0.001200817059725523,-0.001222474267706275
1772699596021991400,8.939991455078125,-0.00016848836094141006,0.0007456825114786625,-0.0007271263748407364
1772699596031948500,8.949948486328125,-0.0010487268446013331,0.0001796763390302658,-0.0026970193721354008
1772699596041906700,8.95990673828125,0.0006519677117466927,0.0014673145487904549,-0.002262657741084695
1772699596051863600,8.969863525390625,-0.00038818176835775375,-0.000019183382391929626,-0.00024923263117671013
1772699596061820400,8.9798203125,-0.0004057586193084717,0.001879916526377201,-0.0028886916115880013
1772699596071777500,8.989777587890625,-0.000653187045827508,0.0016745878383517265,-0.0013389724772423506
1772699596081734400,8.999734375,-0.0008547882316634059,0.0026490380987524986,0.0005902214907109737
1772699596091691500,9.00969140625,0.00106991664506495,0.00017518224194645882,0.00237642927095294
1772699596101649400,9.0196494140625,-0.0006946938810870051,-0.00016463734209537506,-0.001003388548269868
1772699596111606500,9.0296064453125,0.0017735350411385298,-0.0012131370604038239,-0.0019910677801817656
1772699596121563400,9.0395634765625,0.002358099212870002,-0.0018581547774374485,-0.0007130168378353119
1772699596131520500,9.0495205078125,-0.0016592155443504453,0.0003482024185359478,-0.002244061091914773
1772699596141477600,9.0594775390625,-0.0002338916528970003,-0.003973308950662613,0.0006358814425766468
1772699596151435500,9.069435546875,-0.0017489681486040354,0.0007556942291557789,-0.0011662016622722149
1772699596161392400,9.079392333984375,0.0017829160206019878,0.0006265309639275074,0.0019020261242985725
1772699596171349500,9.089349609375,0.0004522097297012806,-0.0006204885430634022,-0.000129621010273695
1772699596181306600,9.099306640625,0.001442905981093645,-0.0001573651097714901,-0.0005855544004589319
1772699596191263500,9.109263427734374,0.0010742831509560347,-0.0005483576096594334,0.0029052989557385445
1772699596201220600,9.119220703125,-0.00046875234693288803,-0.002393928123638034,0.00120833283290267
1772699596211178500,9.129178466796875,-0.0001320492010563612,-0.00012065982446074486,0.0015878700651228428
1772699596221135600,9.139135498046874,-0.0003461672458797693,-0.00025381799787282944,-0.0010457299649715424
1772699596231092500,9.149092529296874,-0.0002036436926573515,-0.0004981281235814095,-0.0026123360730707645
1772699596241049600,9.159049560546874,-0.0001482497900724411,0.0011021653190255165,-0.0005025798454880714
1772699596251006700,9.1690068359375,0.0031607383862137794,-0.0024205821100622416,0.0009126649238169193
1772699596260963300,9.17896337890625,0.00004617148078978062,0.0014841444790363312,0.0021912483498454094
1772699596270921500,9.18892138671875,0.0006300115492194891,0.000881485641002655,-0.00022311601787805557
1772699596280878600,9.198878662109376,0.0021480133291333914,-0.002012837678194046,0.00015718350186944008
1772699596290835700,9.208835693359376,-0.0019987872801721096,-0.0002600247971713543,-0.0022817873395979404
1772699596300792600,9.21879248046875,-0.0003489588852971792,0.0003407839685678482,-0.0016263832803815603
1772699596310749400,9.22874951171875,0.0014728882815688848,0.000741458497941494,-0.0019480225164443254
1772699596320706600,9.23870654296875,-0.0041269403882324696,-0.0008031749166548252,0.00011166650801897049
1772699596330664400,9.24866455078125,0.0022507004905492067,-0.0012690559960901737,0.0025052004493772984
1772699596340621600,9.25862158203125,-0.000987703213468194,-0.0024464395828545094,0.00011474685743451118
1772699596350578400,9.268578369140625,0.00016795890405774117,0.0007553817704319954,0.0031863292679190636
1772699596360535600,9.27853564453125,-0.0031194472685456276,0.015274403616786003,0.009499618783593178
1772699596370492400,9.288492431640625,-0.0003569310065358877,0.003966865129768848,0.0050568124279379845
1772699596380450600,9.298450439453125,-0.0006480147130787373,-0.003797314129769802,-0.0036463974975049496
1772699596390407700,9.30840771484375,0.0018868090119212866,-0.000355742871761322,-0.0031175552867352962
1772699596400364300,9.3183642578125,0.0014140976127237082,-0.003871648106724024,-0.0035420632921159267
1772699596410321400,9.3283212890625,0.0003358281683176756,-0.008595297113060951,-0.001227776287123561
1772699596420278500,9.338278564453125,-0.0026101607363671064,0.00041391095146536827,0.0009291176684200764
