time,seconds_elapsed,z,y,x
1772699621477742300,0.104742431640625,0.0694903003334999,0.008933846261701546,-0.0045653916655544885
1772699621487699500,0.114699462890625,0.06111059452295303,0.013069114868948236,0.0055273440201533955
1772699621497656600,0.124656494140625,0.0835550660431385,-0.0027842330242041496,0.022654506674828007
1772699621507613400,0.134613525390625,0.07652151414453982,0.007982961577922104,0.00709766321844072
1772699621517570600,0.144570556640625,0.07397709035873412,0.010700275978911667,-0.0009575861359131522
1772699621527527700,0.154527587890625,0.0759217946857214,0.007840087075089104,0.005735003983796923
1772699621537485600,0.164485595703125,0.06439911467432975,0.017098082690662705,0.006646179424162255
1772699621547442400,0.1744423828125,0.08669336406886577,0.006360438410006463,0.007428984381904593
1772699621557399600,0.184399658203125,0.07651625344753266,-0.017466399979824198,-0.020073273992992472
1772699621567356700,0.194356689453125,0.06529226412177086,-0.004889160281047225,-0.017798371880548072
1772699621577313500,0.2043134765625,0.08833645510077476,-0.004135017445497214,-0.001688746529741911
1772699621587270400,0.2142705078125,0.08130173415839671,-0.0010744653976755216,0.0030677786563406695
1772699621597227500,0.2242275390625,0.0810018744289875,-0.0009540949875954538,-0.012074329394649247
1772699621607184400,0.234184326171875,0.0784574506431818,0.002034200108190998,-0.009704063449217938
1772699621617141500,0.2441416015625,0.0854898334980011,-0.00301590918849688,-0.012581756043690256
1772699621627099400,0.254099365234375,0.06064940675199031,-0.010708541483758017,-0.005330079869649489
1772699621637056500,0.264056396484375,0.09596329671740532,-0.011925616522785275,0.007377079523087013
1772699621647013400,0.274013427734375,0.06468669944405556,0.015919179670978337,0.025248203829303383
1772699621656970500,0.283970458984375,0.08520049516260624,0.011255348011828026,0.016350624182581666
1772699621666927600,0.293927734375,0.07592354825139046,0.0018379240508424118,0.01027996478267596
1772699621676884500,0.303884521484375,0.07427285843491553,0.010267729780543595,-0.006481009749486111
1772699621686841600,0.313841552734375,0.07097440141141415,-0.005033939046598971,0.0018846070285595488
1772699621696798200,0.323798095703125,0.0772591807693243,-0.019293359678657723,-0.0011075376918597611
1772699621706755300,0.33375537109375,0.07142974396348,0.006575437434134073,0.013789477590838213
1772699621716712400,0.34371240234375,0.07861936320662498,0.015452301944745703,-0.003436466979904799
1772699621726670600,0.353670654296875,0.08863982196152209,-0.0009254168823827057,-0.013041415152914123
1772699621736627500,0.36362744140625,0.05870937860012054,0.004947370441420935,-0.01606684451336041
1772699621746584300,0.373584228515625,0.07980886525213718,0.012730621895892545,0.01683561181259574
1772699621756541400,0.38354150390625,0.05825637413561344,-0.011171583285089581,0.0085883595755673
1772699621766498300,0.393498291015625,0.0835462982147932,-0.00451043576230295,-0.0018213176926248707
1772699621776455400,0.403455322265625,0.08100830416977405,0.01866399856682401,0.0022816800547472665
1772699621786412500,0.41341259765625,0.09597206454575061,0.003755708404863253,0.0005651310609828215
1772699621796369400,0.423369384765625,0.057062195914983745,-0.004533793805004098,0.009254566116048954
1772699621806326300,0.433326171875,0.0790589236676693,0.014429160308931021,0.00952942954316386
1772699621816284400,0.443284423828125,0.07247253101468086,0.008301932433177717,0.006124344082211609
1772699621826241500,0.453241455078125,0.07830664399564266,0.012022820686409249,0.018927177264366764
1772699621836198400,0.463198486328125,0.07367080088853836,0.0015725282800383865,0.010121057027071946
1772699621846155500,0.473155517578125,0.0706798023790121,0.0031800822076853363,0.0027732161565567365
1772699621856112400,0.4831123046875,0.08264671902656555,0.008196823524311184,-0.009119999358901986
1772699621866069200,0.4930693359375,0.06558803219795227,0.01353698810902424,0.0042073862786754035
1772699621876026400,0.5030263671875,0.059902972298860546,-0.0026310928556835277,-0.004576728764432482
1772699621885983500,0.5129833984375,0.06708440823554992,-0.002837173354416154,0.007386829165543895
1772699621895940400,0.5229404296875,0.0781564218699932,0.0007919449621345847,0.018046847340947716
1772699621905898200,0.532898193359375,0.0730675742983818,-0.011590932075167074,0.022614391576859634
1772699621915855400,0.54285546875,0.07725742720365524,-0.00378606701050885,0.010029959518893156
1772699621925812500,0.5528125,0.06947627180814743,-0.005391072788042947,-0.0027089004823821596
1772699621935769300,0.562769287109375,0.0736643711477518,-0.008852771248971112,-0.004425827931237291
1772699621945726500,0.5727265625,0.09236673353016375,-0.0024776330267544835,-0.005630614881671499
1772699621955683600,0.58268359375,0.0660310997903347,-0.003666089326073415,-0.007280411932291462
1772699621965640200,0.59264013671875,0.06079436818063259,-0.003851003739191219,-0.01372293228531489
1772699621975597300,0.602597412109375,0.056305824589729304,-0.009770566513901575,-0.014057540242763934
1772699621985554400,0.612554443359375,0.07755670241117477,-0.00868108621018473,-0.009647846599819604
1772699621995512600,0.6225126953125,0.08922960454821587,0.00490229375725612,-0.001114930980448844
1772699622005469400,0.632469482421875,0.08399345746040343,-0.0009322165159275754,0.009751204226305708
1772699622015426300,0.64242626953125,0.05676058261990547,0.012806130250939168,0.00969319956190884
1772699622025383400,0.652383544921875,0.08728665378689765,0.004540693903248757,0.010183402223157462
1772699622035340300,0.66234033203125,0.058707040512561794,0.0033020965855801478,-0.00766646466589882
1772699622045297400,0.67229736328125,0.08115326559841632,-0.0044148938328027725,0.004332877534333966
1772699622055254500,0.682254638671875,0.08519406542181968,0.00032619061390869316,0.0016704602419136789
1772699622065211400,0.69221142578125,0.06424538541734218,0.00219258727398701,0.016427969443332403
1772699622075168300,0.702168212890625,0.06738777509629726,0.007187518617603928,-0.009469353935978142
1772699622085126400,0.71212646484375,0.08743979852199554,-0.00961076370915398,0.0014282250093441689
1772699622095083500,0.72208349609375,0.06364625048041343,0.0073451477315742515,0.014174562210065777
1772699622105040400,0.732040283203125,0.06918342634141444,0.0005966050531249493,-0.004906366573352716
1772699622114997500,0.74199755859375,0.09566811316311359,0.0002148483270779252,-0.0071811687919194804
1772699622124954400,0.751954345703125,0.0765144998818636,0.009770498015242627,0.002109573178386199
1772699622134911200,0.7619111328125,0.07352174780666827,0.008454136453359387,0.010799386688543017
1772699622144868400,0.771868408203125,0.06529167959988116,0.0002285115262493491,0.00330112961284467
1772699622154825500,0.781825439453125,0.08100362799465656,0.009070185992470942,0.0015033611883438424
1772699622164782600,0.791782470703125,0.07681494413316249,0.008470087507739662,-0.0008063827669742749
1772699622174740200,0.801740234375,0.0611029957383871,-0.0027717023361939937,0.0016672973163367713
1772699622184697300,0.811697265625,0.06454466062486171,-0.00038211291907355185,0.007855410795917851
1772699622194654500,0.821654541015625,0.07681494413316249,0.00861596225183457,-0.001843772694672225
1772699622204611300,0.831611328125,0.07067921785712242,-0.008113643319462426,0.013848670706967823
1772699622214568400,0.841568359375,0.07815992900133133,0.00023288174069020895,0.0007970201419404474
1772699622224525600,0.851525634765625,0.07292261286973953,0.003940810047648847,0.0015746837045066057
1772699622234482400,0.861482421875,0.06873100639879703,-0.0012872678981395438,0.0010157323642051778
1772699622244439300,0.871439208984375,0.08070143017768859,0.01456256829709746,0.0007571459309227065
1772699622254396400,0.881396484375,0.0789057789325714,-0.005161684478959068,-0.010125861066352809
1772699622264354600,0.8913544921875,0.07247194649279118,-0.0037322179314214733,-0.004371792193304282
1772699622274311400,0.9013115234375,0.07726034981310367,-0.006282185542024672,-0.003202957905663061
1772699622284268300,0.911268310546875,0.08010463332831859,0.002455877852672711,-0.006489816964560305
1772699622294225400,0.921225341796875,0.0787578948944807,0.0074342051213607185,0.010004135524469894
1772699622304182500,0.9311826171875,0.08264788807034491,0.0013613834471208975,0.012353173735493328
1772699622314139400,0.941139404296875,0.06454232253730297,0.0009234715204685926,0.012869838570337742
1772699622324096500,0.951096435546875,0.07112520805895328,0.010155880603636614,-0.006237642005755333
1772699622334053600,0.9610537109375,0.0684317311912775,0.002773780128848739,-0.004753372535304516
1772699622344011300,0.97101123046875,0.06334405266344546,0.007487579276412725,-0.0017534988828672793
1772699622353968400,0.980968505859375,0.07336918759346008,0.0037255461620399727,-0.002092040946628549
1772699622363925500,0.990925537109375,0.07681143700182437,0.012131546324468218,0.000228806070482824
1772699622373882400,1.00088232421875,0.08279635663032531,0.010596377213019877,-0.01706500012167962
1772699622383839500,1.010839599609375,0.08578969322741031,0.0018029760350473224,-0.018001603976712795
1772699622393796400,1.02079638671875,0.08294716327786446,0.0007070248913485556,0.01659234110863181
1772699622403753500,1.03075341796875,0.06229775848090648,-0.005143167008156888,0.009842874839931027
1772699622413710300,1.04071044921875,0.09087795627713204,-0.0038247733193915337,0.005836376861640019
1772699622423667500,1.05066748046875,0.06304536197781563,-0.003141919321496971,0.00826086520384997
1772699622433625300,1.060625244140625,0.08564064014554024,-0.0062310718427179375,-0.0020803482255461856
1772699622443582200,1.070582275390625,0.0723223088890314,-0.0008391953370766714,0.0037476124341977992
1772699622453539300,1.080539306640625,0.07426642869412899,0.006124446830200031,0.003943169255627436
1772699622463496400,1.090496337890625,0.08459142335355281,-0.00827224968096707,-0.010737477600586135
1772699622473453600,1.10045361328125,0.07306874334216118,0.006850591980549507,0.0036495018049870847
1772699622483410400,1.110410400390625,0.08070084565579891,0.0029305370265617966,-0.005492217907845042
1772699622493367600,1.120367431640625,0.06648585782051086,0.002639700853824615,-0.0071569642199581715
1772699622503324400,1.130324462890625,0.07172375847399234,0.006692990266042761,-0.008895433926230179
1772699622513281300,1.14028125,0.06409282520413398,0.012030113510298542,0.008420624626113567
1772699622523239400,1.150239501953125,0.08160042484402656,0.003149641403649002,-0.009484432203278992
1772699622533196500,1.160196533203125,0.07037760456204414,-0.015139048444223589,0.010467933094338513
1772699622543153400,1.1701533203125,0.09611527240872382,-0.000452721336716786,0.014627757329173619
1772699622553110300,1.1801103515625,0.08249825046658515,-0.007065285044000484,0.0014064144655130803
1772699622563067400,1.1900673828125,0.06918050373196602,0.0007863554715644567,0.004720788864887436
1772699622573024500,1.2000244140625,0.08115151203274726,0.001962705774558708,0.001389736754525802
1772699622582981400,1.2099814453125,0.0775596250206232,-0.015339292857213875,-0.004308214592179865
1772699622592938500,1.2199384765625,0.08294599423408508,-0.009603142091701738,-0.0008215854735055473
1772699622602895600,1.2298955078125,0.08623802151679992,0.005214862271188758,-0.003576132320566103
1772699622612853500,1.239853515625,0.07875672585070133,0.010484897928871214,0.00728913124075334
1772699622622810400,1.249810302734375,0.062146951833367346,0.011458177107549272,-0.0010093340186373098
1772699622632767500,1.259767578125,0.08085282134711742,0.010609926247759721,0.00270581404697441
1772699622642724600,1.269724609375,0.06663724898993968,0.001994064460624941,0.010710596443526446
1772699622652681500,1.279681396484375,0.07112637710273266,-0.007744992670160718,-0.013943114374636205
1772699622662638300,1.289638427734375,0.0685842914044857,0.007851435019588097,0.0000167473512905417
1772699622672595500,1.299595458984375,0.08025602449774742,0.0033741526082158085,-0.008087947760024689
1772699622682552000,1.309552001953125,0.06798632551133632,0.0005244759652530774,0.035515609382861295
1772699622692509000,1.319509033203125,0.06828443167507649,-0.003563880193769,0.030450896172085774
1772699622702467000,1.329467041015625,0.06050152271389961,0.01918044192267116,0.011133398707659215
1772699622712424000,1.339423828125,0.06663607994616032,0.0066998903642874206,0.011712432713119779
1772699622722380800,1.349380859375,0.06439151588976383,-0.006495563431223854,0.01452976428932743
1772699622732338000,1.359337890625,0.06903028160631657,-0.0013973087104503065,0.00648470411049202
1772699622742295000,1.369294921875,0.06678454850614071,0.004922733757086098,-0.0026269309913303004
1772699622752252200,1.379252197265625,0.06214578278958797,0.00279935752809979,0.0002193840799445752
1772699622762209000,1.389208984375,0.0777080935806036,0.008803557245805858,0.00706029434587399
1772699622772166000,1.399165771484375,0.07097440141141415,-0.00505433794723358,0.006922187349703745
1772699622782123000,1.409123046875,0.08099895181953906,0.009052969996188766,-0.011700600711430888
1772699622792081000,1.419080810546875,0.07037409743070602,0.009226719127898103,-0.001215315194314462
1772699622802038000,1.4290380859375,0.06932721872627735,-0.00546580482495483,0.00007622873260988853
1772699622811995100,1.4389951171875,0.08114858942329883,-0.0034605842160759493,0.0012811469721404137
1772699622821952000,1.448951904296875,0.08877952269315718,0.00008310257303528488,0.008056385861270245
1772699622831908900,1.458908935546875,0.08129647346138953,0.0008340853371191769,0.0005340292448876425
1772699622841866000,1.468865966796875,0.08653378959298133,0.011113962213182822,0.006060442824923666
1772699622851823000,1.478822998046875,0.07875321871936321,0.004179317811527289,-0.003280859147195588
1772699622861780000,1.488780029296875,0.06812836433053017,0.0025392909529618917,-0.003153429950310965
1772699622871737000,1.498737060546875,0.08368950607776642,-0.012605995435803197,-0.006321370199875673
1772699622881695000,1.508695068359375,0.07127016948759556,-0.019548489783774128,-0.008249831211537821
1772699622891652000,1.518652099609375,0.07860182754993439,0.00515347833961714,-0.012337677055550738
1772699622901609000,1.52860888671875,0.08877660008370876,0.009037904857797548,-0.008532843695778865
1772699622911566000,1.538566162109375,0.08024608762562274,-0.0009028990898979827,0.0009123821584071265
1772699622921523200,1.548523193359375,0.08892565316557884,-0.0022168357992544767,0.00504043728604447
1772699622931479800,1.558479736328125,0.08159282605946064,-0.0009546977757941931,0.002828414088403224
1772699622941437000,1.56843701171875,0.07276420743763447,-0.006164157786080614,-0.0031670023887592834
1772699622951394000,1.57839404296875,0.07680559178292751,0.0007251633362378925,0.006296905903832521
1772699622961351000,1.588350830078125,0.08428864101469516,-0.010727743941149673,0.014131793930707499
1772699622971309000,1.59830908203125,0.06947451824247837,0.00006949873936828226,0.006359837334274198
1772699622981266000,1.608265869140625,0.07261573887765407,0.007032793846772983,-0.013322422909736632
1772699622991223000,1.61822314453125,0.062439797300100325,0.0033502328765112905,-0.004219146356772398
1772699623001180000,1.628179931640625,0.08174304818511009,0.00024817520794458684,-0.020548287076619452
1772699623011137000,1.638136962890625,0.06707856301665306,0.012556594202970154,-0.0001345016834209673
1772699623021094100,1.64809423828125,0.06767652890980243,-0.009681792251905425,-0.008766519450090708
1772699623031051000,1.658051025390625,0.07201601941883563,-0.01174783053677529,-0.008904077886167214
1772699623041007900,1.6680078125,0.059895958036184305,-0.010919311857339926,-0.00734310418824898
1772699623050965000,1.677965087890625,0.07411036134958267,-0.0066335836624260985,-0.006927924683212768
1772699623060923100,1.687923095703125,0.06962006419301033,-0.0017995191360590979,0.0055673974693287165
1772699623070880000,1.6978798828125,0.06348492243885993,0.006908660577028058,0.011851314885780447
1772699623080837000,1.707837158203125,0.064083472853899,0.004984930539410561,0.0051218370965827485
1772699623090794000,1.7177939453125,0.06857260096669196,-0.012994524395931512,-0.006529007330632885
1772699623100750800,1.727750732421875,0.06408405737578869,-0.00745404689956922,0.004868538188948878
1772699623110708000,1.7377080078125,0.08443477148711681,0.011120483285514637,-0.004544051479181507
1772699623120665000,1.7476650390625,0.07650456300973892,-0.010205624329764395,-0.0016724164494487921
1772699623130622000,1.7576220703125,0.05869710364043712,-0.0008316878840560093,0.008448056055733467
1772699623140579000,1.7675791015625,0.07216448797881603,0.002131609767791815,-0.005115778961020987
1772699623150536000,1.777535888671875,0.07844809829294681,0.004125491565326229,0.0017184195779758737
1772699623160494000,1.787494140625,0.07261164722442627,0.0017733161157229913,-0.003698303103732178
1772699623170451000,1.797450927734375,0.07036766768991946,0.011803497113613412,0.012290636743162758
1772699623180408000,1.807407958984375,0.08084288447499274,-0.016869082540646195,-0.006215646515545086
1772699623190365200,1.817365234375,0.08922200576364994,-0.0022788270856020972,0.006970235734022571
1772699623200321800,1.82732177734375,0.0679740505516529,0.0049829029791057106,0.006447002448607236
1772699623210279000,1.83727880859375,0.06572948649525642,0.014790394836757332,0.004185438166704261
1772699623220236000,1.847236083984375,0.07680208465158939,0.007575211894093081,0.00657584271786618
1772699623230193000,1.85719287109375,0.07904664870798588,0.006753533947397954,-0.010901647194841643
1772699623240150000,1.86714990234375,0.08084229995310306,-0.0012140930640744045,-0.00493727145580342
1772699623250108000,1.87710791015625,0.08727671691477298,-0.009280011084559373,0.008127561105316271
1772699623260065000,1.88706494140625,0.07994447433054447,-0.0075930854775011535,0.008025217258982593
1772699623270022000,1.89702197265625,0.07964519912302494,-0.005830140058742835,0.005639465479229693
1772699623279979000,1.90697900390625,0.07964461460113526,0.001050536532816477,-0.0005869866997643839
1772699623289936100,1.91693603515625,0.05674947670400143,-0.005021805650810711,-0.002321811706558219
1772699623299893000,1.92689306640625,0.08577917183339595,0.004049878179002553,0.01129058828856796
1772699623309849900,1.936849853515625,0.07530395504832267,-0.00040470377679448574,0.007532496130373328
1772699623319807000,1.946806884765625,0.06842062527537346,-0.002643778807320632,0.0026342592061933826
1772699623329763800,1.956763916015625,0.06991641679108142,-0.00978361322514247,0.024368578300427178
1772699623339722000,1.966721923828125,0.061087798169255254,-0.01998271648257505,-0.0026957578730187376
1772699623349679000,1.97667919921875,0.061686348584294316,-0.0031767668725922703,-0.0005094604883895954
1772699623359636000,1.986635986328125,0.06482932278513907,-0.0049052072335500265,0.006263207988563226
1772699623369592800,1.9965927734375,0.07455635155141353,0.0055191196145024145,0.008592488903057529
1772699623379550000,2.006550048828125,0.0525590392768383,-0.0037370356704341245,0.013117973820731276
1772699623389507000,2.016507080078125,0.08069032426178455,0.0038948520140722393,-0.005155977969846571
1772699623399464000,2.0264638671875,0.07425590730011462,-0.00947336909903679,0.01693990444577648
1772699623409421000,2.036421142578125,0.06438099449574947,0.0016384468228323385,0.001177898372686468
1772699623419378000,2.0463779296875,0.0633341157913208,-0.006000642354018055,-0.00903811891610676
1772699623429336000,2.056336181640625,0.07051672077178954,0.00036348585041705517,0.0015832289122103247
1772699623439293000,2.06629296875,0.07874737350046634,-0.014784695748332887,-0.012203255287231877
1772699623449250000,2.07625,0.06423252593576907,-0.01760494536741171,0.007427439737145323
1772699623459207200,2.086207275390625,0.06917056685984134,-0.006252256194641813,0.012381210236600599
1772699623469163800,2.096163818359375,0.08099076851308346,-0.010112027762178332,0.00626868445634609
1772699623479121000,2.106120849609375,0.0729109224319458,0.004543753510015085,0.012125749054632614
1772699623489078000,2.116078125,0.06647650547027588,0.002556534348707646,-0.005761949072938296
1772699623499035000,2.126034912109375,0.06168868667185306,-0.004106585935456678,-0.007009704090486048
1772699623508992000,2.135991943359375,0.07515607101023197,0.008225236768042668,-0.000017633838101755827
1772699623518950000,2.145949951171875,0.06812427267730235,-0.002997761610453017,-0.002764345009400858
1772699623528907000,2.155906982421875,0.0696212332367897,-0.0005230877257650717,-0.00858652209904103
1772699623538863900,2.16586376953125,0.08264028928577899,-0.0018076293772784993,0.0037690799139119915
1772699623548821000,2.175821044921875,0.07665420061349869,0.0017761428270488976,-0.008278170248388778
1772699623558778000,2.185778076171875,0.07725158198475837,0.0014208950820146127,-0.003132636611565249
1772699623568735000,2.19573486328125,0.07665303156971931,0.005586389864166267,0.004287067343696253
1772699623578691800,2.20569189453125,0.07021744556427001,0.012894520920445211,0.006432944240502547
1772699623588649000,2.21564892578125,0.06587678601145744,-0.0024476717133307827,0.0014694543521647575
1772699623598606000,2.225606201171875,0.08562953422963619,0.010347772746812551,0.007258147014022688
1772699623608563000,2.23556298828125,0.07066577385365963,0.000017238829168491063,-0.007589528113813139
1772699623618521000,2.24552099609375,0.07350888832509517,-0.007883720720838755,0.0021246086340252074
1772699623628478000,2.25547802734375,0.08233867599070072,0.015201464422256684,0.0015867571639682865
1772699623638434800,2.265434814453125,0.06557984889149665,-0.003537426011683419,-0.006209613496158272
1772699623648392000,2.275391845703125,0.08578092539906501,-0.003410890722298063,0.009434987017139792
1772699623658349000,2.28534912109375,0.07844751377105712,0.0005117397812660783,0.010416465485293883
1772699623668306200,2.29530615234375,0.06393325072824954,0.009234176348568872,-0.0030346332969202194
1772699623678263000,2.305262939453125,0.07216214989125729,-0.0012558635463006795,0.0032242073313129365
1772699623688220000,2.315219970703125,0.08129004372060299,-0.007851087959716096,0.008125155089920736
1772699623698177000,2.325177001953125,0.06542904224395751,0.010356490342807955,0.005972638960595941
1772699623708135000,2.335135009765625,0.0598918663829565,-0.0012377753337612374,-0.012531045344826998
1772699623718092000,2.345092041015625,0.07111410214304924,-0.0036341004523448646,-0.0037292684933316195
1772699623728049200,2.355049072265625,0.0669242492377758,-0.001573656224622391,0.010661250009620562
1772699623738005800,2.365005859375,0.07904489514231682,0.00024999727227259424,-0.0023582284477655776
1772699623747963000,2.374962890625,0.07784720979034901,-0.0031782829762436447,0.0002460517495172098
1772699623757920000,2.384919921875,0.08353226968944072,-0.019848550442582928,-0.005841736310880514
1772699623767877000,2.394877197265625,0.07290799982249736,-0.00717222515034955,-0.011231592676904984
1772699623777834000,2.404833984375,0.08009002028107642,0.0002498328754911199,-0.0003703551242651883
1772699623787791000,2.414791015625,0.07993979815542697,0.004918975463998504,-0.011702757277543423
1772699623797749000,2.4247490234375,0.07156067686676978,0.0012326242346083745,0.0026135212371969827
1772699623807705900,2.434705810546875,0.06617313860952853,0.0027758624880807473,-0.007780028021745966
1772699623817663000,2.4446630859375,0.07126081713736057,-0.002986605462199077,-0.012626494801137596
1772699623827620000,2.4546201171875,0.07036357603669166,-0.009774790597870014,0.01219089584586909
1772699623837577200,2.4645771484375,0.07081307336986065,-0.01381654940249864,-0.005089937271110829
1772699623847533800,2.474533935546875,0.07994155172109603,-0.00746648168945685,-0.006733313143276609
1772699623857491000,2.484490966796875,0.06662322046458721,-0.005588234761380591,-0.0038495304472016866
1772699623867448000,2.494447998046875,0.07380582544505596,-0.005293900590459816,0.004536192970533739
1772699623877405000,2.504405029296875,0.07440379133820534,-0.005391132153547368,0.012349490790930576
1772699623887363000,2.514363037109375,0.07081307336986065,-0.009291112433886155,0.0006291978566965553
1772699623897320000,2.52431982421875,0.07245908701121807,0.015602149611059575,0.01208993110586889
1772699623907277000,2.534277099609375,0.07141162378489971,0.009300231888680718,-0.0010573595700698205
1772699623917234000,2.54423388671875,0.06183364810049533,-0.005420604843203909,0.01181551406168146
1772699623927191000,2.55419091796875,0.07709726820588111,-0.008356649161945097,-0.007867770237280637
1772699623937148200,2.564148193359375,0.08143792775869368,0.0006815707896836101,0.0011524174423801013
1772699623947105000,2.57410498046875,0.06916764425039292,-0.008357585310284047,-0.005131311031937366
1772699623957062000,2.584061767578125,0.07784837883412837,-0.002706779307243414,-0.00177661718026211
1772699623967019000,2.59401904296875,0.09370938031077385,-0.0011786153253167868,-0.006196992618247168
1772699623976976000,2.603975830078125,0.06557634176015853,-0.009733645736728795,-0.006820699736606911
1772699623986934000,2.61393408203125,0.07186170563995838,-0.004111769000650383,0.0040721042813645905
1772699623996891100,2.62389111328125,0.08877192390859126,-0.0077970699172699815,0.01649340050400351
1772699624006848000,2.633847900390625,0.08129004372060299,-0.010626110197580418,0.009369268832923262
1772699624016804900,2.643804931640625,0.08353402325510978,0.004232217042543925,0.0007011928013613214
1772699624026762000,2.653761962890625,0.07994272076487541,-0.00316978000937961,0.01125625904399203
1772699624036719000,2.663718994140625,0.08113982159495353,-0.002845009600999765,-0.015167820164270233
1772699624046676000,2.673676025390625,0.06797229698598384,-0.008509702565497719,-0.010144217565306462
1772699624056633000,2.683633056640625,0.06288461845815181,0.0038213849190622566,-0.0023391350174060787
1772699624066590000,2.69358984375,0.07216214989125729,0.014452532051363959,-0.01148999016805319
1772699624076548000,2.703548095703125,0.08218786934316158,0.002925637089158408,0.0006844014967646217
1772699624086505000,2.7135048828125,0.08218786934316158,-0.01961938132920768,0.004327721297781682
1772699624096462000,2.723462158203125,0.07665069348216057,0.005489861553977243,0.002878162951930426
1772699624106419200,2.733419189453125,0.0860778625190258,0.010658350233058445,-0.0005313235478592105
1772699624116375800,2.743375732421875,0.06602583909332752,0.006645118836592883,0.008122901484041357
1772699624126333000,2.7533330078125,0.07455518250763415,-0.0014230139738647266,0.00939271877799183
1772699624136290000,2.7632900390625,0.07964403007924556,-0.0014939192190300673,0.012594709140097256
1772699624146247000,2.773246826171875,0.08922142124176025,-0.0005545468765310943,0.01618514055571868
1772699624156204000,2.7832041015625,0.06273673442006111,-0.005480148444138467,0.00812226330486883
1772699624166162000,2.793161865234375,0.0658785395771265,-0.003380915709142573,0.011003647406236269
1772699624176119000,2.803119140625,0.09071721275746822,0.004771949942433275,-0.003982877928219386
1772699624186076000,2.813075927734375,0.07695055321156978,-0.004641090104379691,-0.0033706546100322156
1772699624196033000,2.823032958984375,0.06333353126943111,0.005088742540334351,-0.0005659787318872986
1772699624205990100,2.832990234375,0.06797171246409416,-0.020000768162496387,0.014561431219358928
1772699624215947000,2.842947021484375,0.09086685036122798,0.004434324619057588,-0.005023782978765666
1772699624225903900,2.85290380859375,0.0817383720099926,0.0032159618052421137,-0.005191512219997821
1772699624235861000,2.862861083984375,0.07799801643788815,-0.0076770420004846525,0.007135374013480031
1772699624245817900,2.87281787109375,0.049715340283513064,-0.0043348326002247625,0.005832942224715952
1772699624255775000,2.88277490234375,0.06901859116852282,-0.001288519140309654,0.003496908484093728
1772699624265733000,2.892733154296875,0.07994213624298573,0.00010343754158820956,0.0007138747572433203
1772699624275690000,2.90268994140625,0.08742460095286368,-0.010817865343438461,-0.0031853594585350945
1772699624285646800,2.912646728515625,0.07934417034983635,-0.0066880903286393725,-0.001154392487046425
1772699624295604000,2.92260400390625,0.07889584206044674,0.0007666506906738505,0.006888476876346976
1772699624305561000,2.93256103515625,0.08443301792144775,-0.01286876999125816,-0.008964790530881145
1772699624315518000,2.94251806640625,0.08009352741241454,-0.01644065996154677,-0.007344586042570881
1772699624325475000,2.95247509765625,0.08039338714182376,0.005425258185435086,-0.001081078372374759
1772699624335432000,2.962431884765625,0.08009469645619392,0.003387747308728285,-0.00839586578583694
1772699624345388800,2.972388916015625,0.0779997700035572,-0.011450016633979975,-0.015935407003283036
1772699624355347000,2.982346923828125,0.06647767451405524,-0.0013606345284497365,-0.0021531543084973236
1772699624365304000,2.992303955078125,0.06019347967803478,-0.011775248266663402,0.011069817110779695
1772699624375261200,3.00226123046875,0.05405833792388439,0.004493292831256985,-0.009394994645935366
1772699624385217800,3.0122177734375,0.08204115434885025,0.0005870015411404893,-0.004916032875774545
1772699624395175000,3.0221748046875,0.08009703454375267,-0.012925427515362388,0.005321995315427193
1772699624405132000,3.032132080078125,0.09087152653634548,-0.014322676860308274,0.015668497412116265
1772699624415089000,3.0420888671875,0.07575812855660916,-0.0015033674673875792,0.002156018123263493
1772699624425046000,3.0520458984375,0.07890051823556422,0.00854613471890334,0.010446111704886425
1772699624435003100,3.062003173828125,0.07171791325509548,-0.006333646301203407,0.004249735574569786
1772699624444960000,3.0719599609375,0.07291559860706329,0.0045027639125008135,0.006784197942898027
1772699624454918000,3.08191796875,0.08144435749948024,-0.006183195846690796,-0.010020939387154067
1772699624464875000,3.091875,0.0872802240461111,0.005733534116740338,-0.01104108648992842
1772699624474832100,3.10183203125,0.06648059712350368,0.01843807172330562,-0.006272073427497526
1772699624484789000,3.1117890625,0.07037000577747822,0.0019636419228976592,-0.008174560318508883
1772699624494745900,3.121745849609375,0.08623100725412368,0.0042579497054219245,0.0009988754150603199
1772699624504703000,3.131702880859375,0.08248948263823985,0.00039335583229549225,0.0066635643838031675
1772699624514659800,3.141659912109375,0.07006956152617931,0.010423924989253283,0.0036347557561821303
1772699624524617000,3.151616943359375,0.08069383139312267,-0.0011231725107645615,0.0030082447593827964
1772699624534574000,3.161573974609375,0.0730628981232643,0.00022140136545058337,0.0031283074963197577
1772699624544532000,3.171531982421875,0.07276479195952415,-0.009562508687213995,0.008664427336328662
1772699624554488800,3.18148876953125,0.07725333555042743,0.0025933592277579006,-0.006013961347428267
1772699624564446000,3.191446044921875,0.07740238863229751,0.0044297626083716745,-0.0070136690211948
1772699624574403000,3.201403076171875,0.0709673871487379,-0.007580093565187416,0.002663612023196765
1772699624584360000,3.21135986328125,0.07201543489694595,0.0020970088118687272,-0.01021730335111497
1772699624594317000,3.221317138671875,0.06692775636911392,-0.003885061272419989,-0.01001515125047299
1772699624604274000,3.23127392578125,0.0678261665135622,-0.003868059905269183,-0.010878093930962495
1772699624614231000,3.24123095703125,0.07590718163847923,0.0009692742904182523,0.004632069401818444
1772699624624188000,3.25118798828125,0.07964870625436306,-0.012626682030805386,0.0013257852648879632
1772699624634146000,3.26114599609375,0.07740414219796657,0.0048604776092572135,-0.00004133665738627314
1772699624644103200,3.271103271484375,0.06872516117990017,0.004147977391770109,0.0015607008449267596
1772699624654059800,3.281059814453125,0.07381342422962188,0.003606248897616751,0.0056866342266032
1772699624664017000,3.291016845703125,0.0797995129019022,0.0010042725385632366,0.0034857951475016306
1772699624673974000,3.30097412109375,0.059598436394333834,0.0159808558634948,-0.012750320968561572
1772699624683930600,3.3109306640625,0.06842647049427032,-0.003710933114797808,-0.006683845695073251
1772699624693887700,3.3208876953125,0.0775549488455057,-0.012457947000931016,-0.00963611848776345
1772699624703844900,3.330844970703125,0.08324117778837681,-0.0005057803979376331,-0.016326488680101465
1772699624713802000,3.340802001953125,0.08189327031075953,0.007149574927124195,-0.00026474560436618046
1772699624723758600,3.350758544921875,0.08084580708444118,-0.0007096963390475138,0.018084084353595972
1772699624733716700,3.360716796875,0.0703705902993679,0.005817741801473312,0.004507175226137042
1772699624743673900,3.370673828125,0.08338847730457782,-0.005113392924400977,-0.008078520061264862
1772699624753630700,3.380630615234375,0.07665536965727805,-0.000597089110314846,-0.004674557407497195
1772699624763587800,3.390587890625,0.07740355767607689,-0.0038720419606426727,0.011344604047725443
1772699624773544700,3.400544677734375,0.07949906865060329,-0.00717852246039547,0.0012506279654684476
1772699624783501800,3.410501708984375,0.06857610809803008,0.0001359972374746576,0.005022363914881134
1772699624793458700,3.420458740234375,0.07411269943714141,0.009773680919595061,0.008798320523329312
1772699624803415800,3.430415771484375,0.08443827861845493,-0.0005128083603456616,0.00625627706592204
1772699624813373000,3.440373046875,0.07291618312895297,-0.006142799904220737,0.011161867891962173
1772699624823330600,3.45033056640625,0.07201894202828407,-0.014599032416543922,-0.001677568119423813
1772699624833287700,3.46028759765625,0.07381459327340126,-0.0037993557503446934,0.0038906461964128536
1772699624843244800,3.470244873046875,0.07531038478910923,-0.010595847490057349,0.004295753544472973
1772699624853201700,3.48020166015625,0.05870119529366493,0.002388150945282541,-0.012216344239312456
1772699624863158800,3.49015869140625,0.06797814220488071,0.009550220027798786,-0.005428475339116994
1772699624873116000,3.500115966796875,0.07291676765084266,0.000981896309973672,0.0003854596493853023
1772699624883072800,3.51007275390625,0.08638415198922157,-0.0038365961879258973,0.003381886106810998
1772699624893029600,3.520029541015625,0.07770634001493454,-0.003714006421295926,-0.004369236051681219
1772699624902986800,3.52998681640625,0.07112170092761516,0.007568188498262316,0.009501643062161747
1772699624912943900,3.53994384765625,0.06423778663277625,0.004490224091336131,0.008190205412212525
1772699624922901500,3.549901611328125,0.07366554019153118,-0.0036534307738998904,0.00385699965513777
1772699624932858600,3.559858642578125,0.06887713687121867,-0.009195022515114396,0.019652329184161498
1772699624942815700,3.569815673828125,0.06393851142525672,-0.008048368664062581,0.005965797086211387
1772699624952772900,3.57977294921875,0.06498597465157509,-0.0030325954618165268,0.003619575882537174
1772699624962729700,3.589729736328125,0.07351590258777141,-0.0006691359997959807,-0.014615536026773042
1772699624972686800,3.599686767578125,0.07201894202828407,-0.007252848071930929,-0.0024785206552100135
1772699624982644000,3.60964404296875,0.07650748561918735,-0.0005979476268403232,-0.008305674172422731
1772699624992600600,3.6196005859375,0.07097030975818634,0.0024504299259977412,-0.018389901183045003
1772699625002557700,3.6295576171875,0.06423778663277625,0.01309265557473991,-0.0029962517858453793
1772699625012514800,3.639514892578125,0.08653378959298133,0.011309749646764247,0.01060640884162276
1772699625022473000,3.649472900390625,0.07710603603422642,-0.006437344137695617,-0.007539424198903725
1772699625032429600,3.6594296875,0.08473696930408477,-0.004147383736725897,0.007366683139125234
1772699625042386700,3.66938671875,0.085036829033494,-0.00045044261466246097,-0.0017003325070807475
1772699625052343800,3.67934375,0.06558394054472447,-0.007501580402301624,0.015027574868296504
1772699625062300700,3.68930078125,0.0759083506822586,-0.0062730980532709505,-0.001032670370096457
1772699625072257800,3.6992578125,0.08159516414701938,-0.010469846490211784,0.006302470849049859
1772699625082215000,3.70921484375,0.08189443935453891,-0.008825819309963845,0.019296875943150372
1772699625092171800,3.719171875,0.06932429611682892,0.007099022916820831,0.004735330559359863
1772699625102128600,3.729128662109375,0.072466685795784,-0.013123397772875614,-0.0038874701419263145
1772699625112086800,3.739086669921875,0.07516133170723914,0.01058521193161141,0.0017757072897424222
1772699625122044000,3.7490439453125,0.06827683289051055,0.0067728277363348745,-0.010679968409822322
1772699625132000800,3.759000732421875,0.06752922939360141,-0.0033129696060437705,-0.009730296152306254
1772699625141957600,3.76895751953125,0.05645604671537876,-0.00769594306377694,-0.0014112076591729418
1772699625151914800,3.778914794921875,0.07994915050566195,-0.02407297690431587,-0.0015735026734619167
1772699625161871600,3.78887158203125,0.07994856598377227,-0.005135915283462964,0.02128819817412877
1772699625171828700,3.798828857421875,0.07545885334908962,-0.0068250419807620345,0.0028649741059722142
1772699625181785900,3.808785888671875,0.08383855915963649,0.0033311811161693184,0.013383108154986985
1772699625191742700,3.81874267578125,0.08832768727242946,0.008494377132202498,0.0006247785515501163
1772699625201700600,3.82870068359375,0.07560849095284938,0.006965747359395026,-0.0018407159420166862
1772699625211657700,3.83865771484375,0.07710486699044704,0.004044736213004216,-0.005914449349819915
1772699625221614800,3.84861474609375,0.07441197464466094,0.012229074715077877,-0.010296671605593291
1772699625231571700,3.85857177734375,0.06498597465157509,0.005896602024231106,-0.0046640879582992055
1772699625241528800,3.86852880859375,0.06304068580269813,0.014010227077384479,0.006063028078476781
1772699625251486000,3.87848583984375,0.08713234000802039,0.0026668080564588308,0.004018183849507477
1772699625261442600,3.888442626953125,0.07994973502755165,0.008304736311617307,-0.007065277052490273
1772699625271399700,3.898399658203125,0.06797814220488071,-0.0021300160323269664,0.010134867498360107
1772699625281356800,3.908356689453125,0.07336509594023227,0.0012385059861233457,0.01229120071545476
1772699625291313700,3.918313720703125,0.06663140377104282,-0.005653495717048645,0.0193145874130656
1772699625301271600,3.928271484375,0.07800386165678501,-0.012837018579547292,0.01205283109053853
1772699625311228700,3.938228759765625,0.06962357132434845,-0.002900676177837886,0.007460847103936248
1772699625321185800,3.948185791015625,0.0756079064309597,0.00013955003458540887,-0.0038055394667811924
1772699625331142700,3.958142578125,0.06812544172108173,-0.00790693263306748,0.007553827183591783
1772699625341099800,3.968099853515625,0.08099427564442158,-0.006676546021318063,0.015313183451711666
1772699625351057000,3.978056884765625,0.09326514367461204,-0.002004384925239719,-0.0025175677449209614
1772699625361013800,3.988013671875,0.07845043638050556,-0.0004855550272390246,0.009837974902527639
1772699625370970600,3.997970703125,0.06842413240671158,-0.000577133167674765,-0.001503435395224369
1772699625380927700,4.007927734375,0.07515782457590103,0.010795361250685528,-0.000053559101431164886
1772699625390884600,4.017884521484375,0.0808446380406618,0.003824741353350691,-0.015497565858578309
1772699625400842800,4.0278427734375,0.07441139012277126,-0.0026132466717390342,0.00015699721384153235
1772699625410799600,4.037799560546875,0.08817746514678002,0.00237246475238353,0.0031297237060935
1772699625420756700,4.0477568359375,0.07066869646310805,0.0024985936163924635,-0.0078894089636422
1772699625430713600,4.057713623046875,0.07351239545643329,0.0027311282972106708,0.015292992330342531
1772699625440670700,4.067670654296875,0.06558160245716571,-0.008949272159696556,0.00840520329469582
1772699625450627800,4.0776279296875,0.07964753721058368,-0.0049522612456697965,0.006864252325610141
1772699625460584700,4.087584716796875,0.08458499361276627,0.010221666715689933,0.004603583663672907
1772699625470541800,4.097541748046875,0.08129121276438235,0.001560970272985287,0.016017409031197895
1772699625480498700,4.107498779296875,0.07515607101023197,-0.0029166911642998453,-0.008026714525502757
1772699625490456800,4.117456787109375,0.08278700428009032,-0.009049088405515066,-0.00737531339933048
1772699625500413700,4.12741357421875,0.0784486828148365,0.003913246187288314,0.0033356883279280734
1772699625510370800,4.137370849609375,0.0705184743374586,0.011883978471299633,-0.0027949359396647194
1772699625520327700,4.14732763671875,0.08667816649973392,-0.0071541780370054766,-0.01040935760778375
1772699625530284500,4.157284423828125,0.07964578364491462,0.011497353773890063,-0.0012519711100059793
1772699625540241700,4.16724169921875,0.0654296267658472,0.009236902595194987,-0.0031764386498514792
1772699625550198800,4.17719873046875,0.0833849701732397,-0.0002667931434465572,0.00021085999266069847
1772699625560155600,4.18715576171875,0.07859598233103751,-0.009691053270595147,0.0062256056497339155
1772699625570112800,4.19711279296875,0.07261164722442627,0.004901896465034224,-0.0038644545925199053
1772699625580070000,4.20706982421875,0.0815899034500122,0.004284216657839715,0.008608846382814226
1772699625590027800,4.21702783203125,0.08787351376414299,-0.02309001658183988,0.009552701962541323
1772699625599984600,4.226984619140625,0.08443126435577869,0.0011749848963925615,-0.00790840649587917
1772699625609941800,4.236941650390625,0.06482873826324939,0.0012420131174614652,-0.005340715998917585
1772699625619899000,4.24689892578125,0.06811959650218487,0.0008777783483732492,0.005338657614216208
1772699625629855700,4.256855712890625,0.07739712793529033,-0.007526641778321936,-0.008347041654205531
1772699625639812600,4.2668125,0.08562778066396713,0.006589516191836446,-0.006520552312830113
1772699625649769700,4.276769775390625,0.0787450354129076,0.005895049387961626,-0.0005157823437883052
1772699625659726800,4.286726806640625,0.06228372995555401,0.00799764769040048,-0.01415456745151896
1772699625669683700,4.29668359375,0.08562719614207744,-0.012602849064068868,-0.0010527421896345912
1772699625679641600,4.3066416015625,0.07769581862092018,0.005806690684496425,-0.008573376635566819
1772699625689600500,4.3166005859375,0.0866746593683958,0.0036997450005030255,-0.0013317303776624611
1772699625699557400,4.326557373046875,0.06333119318187236,-0.013658513863151893,-0.027440288779791443
1772699625709514500,4.336514404296875,0.06916764425039292,-0.0008168008421780541,0.006164574486255878
1772699625719471400,4.346471435546875,0.07979191411733627,0.008687287622108124,-0.001936072925137705
1772699625729428200,4.35642822265625,0.07305705290436744,0.0071225270899944,0.009296165351627859
1772699625739385300,4.36638525390625,0.06512625990509986,-0.013843702270905487,0.011585758143127895
1772699625749342500,4.376342529296875,0.07305822194814682,0.008959921417874283,-0.008041708311124239
1772699625759299300,4.38629931640625,0.06497720682322979,0.005510922608315013,-0.003240385002089897
1772699625769256400,4.39625634765625,0.06991524774730205,-0.0027382110585458573,-0.0006551668399479239
1772699625779214300,4.40621435546875,0.08323416352570057,-0.004670197467855177,0.0021841174148081333
1772699625789171500,4.41617138671875,0.062433952081203455,-0.0018983216017251833,0.014972831881709862
1772699625799128300,4.42612841796875,0.07724807485342025,-0.0011665230287238955,-0.009340251088526565
1772699625809085400,4.43608544921875,0.06991524774730205,-0.016592297726147807,-0.00014116603211441543
1772699625819042600,4.44604248046875,0.07814590047597884,-0.018524873223924078,0.013252917320502456
1772699625828999200,4.455999267578125,0.06078735391795635,-0.0009589538258034736,0.004612635190630681
1772699625838956300,4.465956298828125,0.05959083760976791,0.0038969846056541428,-0.0006241614927974296
1772699625848913400,4.475913330078125,0.068270403149724,-0.011541768304351717,-0.005774282827303977
1772699625858870300,4.485870361328125,0.06228548352122307,-0.008094281031866558,-0.008623667780144024
1772699625868827400,4.495827392578125,0.06782382842600346,-0.0075150061394553625,-0.006748660838635987
1772699625878785300,4.505785400390625,0.07306114455759524,-0.007812148755392991,0.008483811214059823
1772699625888742400,4.515742431640625,0.08413374271392822,0.012765040188725105,0.005089336766200722
1772699625898699300,4.52569921875,0.08054244022369385,0.009784270812268368,0.008274816668211133
1772699625908656400,4.535656494140625,0.07350947284698486,-0.007349367248965427,0.012174812360748181
1772699625918613500,4.545613525390625,0.0646808542251587,-0.0030969248357228933,0.013192709282576105
1772699625928570400,4.5555703125,0.07126549331247806,-0.006433234218158759,-0.009844045025354716
1772699625938527200,4.56552734375,0.07665303156971931,-0.007413842753344215,-0.0012840381863701623
1772699625948484400,4.575484375,0.07949731508493423,0.002110174254118465,-0.011388244543340987
1772699625958441200,4.585441162109375,0.07411036134958267,0.005019449296942912,0.011690508575679269
1772699625968398300,4.5953984375,0.08249006716012955,-0.012681914782803505,0.017639638796524377
1772699625978356500,4.6053564453125,0.06618015287220477,-0.011844157917564734,-0.012415638804232002
1772699625988313300,4.615313232421875,0.07381167066395282,-0.0018218816649168729,-0.0002578894594276789
1772699625998270200,4.625270263671875,0.06513210512399673,0.008278254730068147,0.008193103476308168
1772699626008227300,4.635227294921875,0.07366203306019306,-0.005597614511079155,-0.00042918120174726933
1772699626018184400,4.645184326171875,0.08204115434885025,0.0029494609227404,0.006896394179677009
1772699626028141300,4.655141357421875,0.06558101793527603,-0.008678551759803668,0.003403537962082191
1772699626038098400,4.665098388671875,0.07740238863229751,-0.0010863521982915699,0.014804749872384126
1772699626048055300,4.67505517578125,0.07321195120513439,0.0053339677393669255,-0.00430898406044871
1772699626058012400,4.685012451171875,0.07455927416086197,0.0033805869155796244,-0.011121275586669798
1772699626067970300,4.69497021484375,0.08518471307158469,-0.01138767372118309,-0.0022622692472679773
1772699626077927400,4.704927490234375,0.08099486016631126,0.002801891978480853,0.0006450301800679881
1772699626087884500,4.714884521484375,0.07934943104684353,0.004528985199145972,0.004934412778436672
1772699626097841200,4.724841064453125,0.07052081242501736,0.006180592897650786,0.005305756566679338
1772699626107798300,4.73479833984375,0.08698094883859157,-0.004673174876230769,0.002192772220366169
1772699626117755400,4.74475537109375,0.06288929463326931,0.0007863920041825622,-0.002140886769501958
1772699626127712500,4.75471240234375,0.07246551675200462,-0.007391959715099074,-0.007888515056142933
1772699626137669400,4.76466943359375,0.07979717481434345,-0.0012642477821558713,-0.005071331322874175
1772699626147626500,4.77462646484375,0.06902326734364032,-0.010161976984282955,-0.011955528745503397
1772699626157583400,4.784583251953125,0.07425999895334243,0.00836793774093967,-0.00790613462369074
1772699626167541200,4.794541259765625,0.06632979047596455,-0.0015457361712353304,0.00935859902514785
1772699626177498400,4.804498291015625,0.07381225518584252,-0.0078301045371918,-0.0014800236952403792
1772699626187455500,4.81445556640625,0.07411153039336205,-0.007883889684197492,-0.006356859925898606
1772699626197412400,4.824412353515625,0.0534609565526247,-0.0032920957813737913,0.02148445824845694
1772699626207369200,4.834369140625,0.06932254255115985,-0.000051049767225049434,-0.012453430656017735
1772699626217326300,4.844326416015625,0.08204232339262962,0.013183635493554174,-0.004855692407107562
1772699626227283500,4.854283447265625,0.08189210126698017,0.021224551503523252,0.029853243089478926
1772699626237240300,4.864240234375,0.08443652505278587,0.014226098317769355,0.001202334698443883
1772699626247197400,4.874197509765625,0.06453472375273704,-0.003968953863321804,0.0018098641460266662
1772699626257154600,4.884154541015625,0.08234101407825946,0.007108694927464239,0.0008180292514618486
1772699626267112200,4.8941123046875,0.09072071988880634,-0.0005395091376034542,-0.004122525573393795
1772699626277069300,4.9040693359375,0.07471008080840111,-0.006311393370199948,-0.004401001163123874
1772699626287026400,4.9140263671875,0.08219196099638938,0.0017008034353610127,0.013938249828206607
1772699626296983600,4.923983642578125,0.08398702771961689,-0.0018828728708438574,0.01004005622122204
1772699626306940400,4.9339404296875,0.07590601259469985,-0.007177951638237573,0.00463511873378593
1772699626316897300,4.943897216796875,0.06438450162708759,-0.0021573195977834985,0.0022743432775518156
1772699626326854400,4.9538544921875,0.0756079064309597,0.01028390916378703,-0.012381489939457969
1772699626336811300,4.963811279296875,0.07815174569487571,-0.002218160106660798,-0.009418744272636831
1772699626346768400,4.973768310546875,0.07321428929269314,0.004238098794058896,-0.003966560406013741
1772699626356726500,4.9837265625,0.07860124302804469,0.003914428930799477,0.007280391953515936
1772699626366683400,4.993683349609375,0.057951838231086725,0.0003007365122437477,0.00935746993891953
1772699626376640300,5.00364013671875,0.07590776616036891,0.0010601720108417794,0.005994716078374767
1772699626386597400,5.013597412109375,0.07486147197782993,0.005326273056678474,0.02187634592616232
1772699626396554500,5.023554443359375,0.06767886699736118,-0.003421421249466948,-0.0069780868219822875
1772699626406511400,5.033511474609375,0.07067103455066681,-0.009803345405496657,-0.0009895892801956507
1772699626416468500,5.043468505859375,0.07575929760038852,0.00853887386105489,0.010811109092377591
1772699626426425300,5.05342529296875,0.08383972820341587,0.004773909004079178,-0.01179959953991929
1772699626436382200,5.06338232421875,0.08787994350492953,0.016893335632490923,0.017132914258737583
1772699626446339300,5.07333935546875,0.09266776230335234,-0.009788467496773227,0.009791495137498713
1772699626456296400,5.08329638671875,0.0741132839590311,-0.008828915449348277,0.007353602178554865
1772699626466254600,5.093254638671875,0.06438683971464633,0.0070678605935769155,0.010848061835591215
1772699626476211200,5.103211181640625,0.0736643711477518,0.01039286769728642,-0.004098814762599067
1772699626486168300,5.113168212890625,0.08084756065011024,0.0017601643732050433,0.006056407112267334
1772699626496125400,5.12312548828125,0.09057342037260532,0.0175880809975788,0.011273866624274523
1772699626506082300,5.133082275390625,0.08862813152372837,0.008654262135340832,-0.0019019486057164612
1772699626516039400,5.143039306640625,0.07486205649971961,-0.0010387730297865346,0.007737243759367266
1772699626525996500,5.15299658203125,0.08758066829741,-0.005232484692847356,0.0007323334333632374
1772699626535953400,5.162953369140625,0.08443886314034461,0.005571005065366626,-0.01411306411406258
1772699626545910300,5.17291015625,0.07351590258777141,0.022603023082762956,0.006133247766230488
1772699626555868400,5.182868408203125,0.06752922939360141,0.004320863440376706,0.006721640400969772
1772699626565825500,5.192825439453125,0.0775549488455057,0.010570233558188192,-0.003111768495116848
1772699626575782400,5.202782470703125,0.07695639843046664,0.009352519198344088,0.011106356578751002
1772699626585739300,5.2127392578125,0.0645364773184061,-0.0006583725771866738,0.012853567855549045
1772699626595696400,5.2226962890625,0.07007365317940711,0.010403302326332776,-0.0006003764751221751
1772699626605653200,5.2326533203125,0.0818950238764286,0.011736583056976087,0.009152832478602067
1772699626615610400,5.2426103515625,0.06738076083362102,0.006493024414265528,0.007872089648549444
1772699626625567500,5.2525673828125,0.07800503070056437,0.007546876282175071,-0.0007467512594274011
1772699626635524400,5.2625244140625,0.0760609108954668,-0.006803533401852473,-0.00146246406401915
1772699626645481500,5.2724814453125,0.07890402536690234,0.0016565898342989385,0.002845320128253661
1772699626655439400,5.282439453125,0.08458966978788375,-0.012542478912649676,0.0076907531487173395
1772699626665396500,5.292396484375,0.07202011107206344,0.0037073163856053723,-0.009350284429595922
1772699626675353300,5.302353271484375,0.09386720122098922,-0.0019605640498222784,-0.003135687655999209
1772699626685309700,5.312309814453125,0.09955343016386031,-0.005929782774625345,-0.010574056925001787
1772699626695266600,5.3222666015625,0.08907879790067673,0.007752984180371276,0.011554527321225031
1772699626705223700,5.3322236328125,0.07202069559395313,-0.0027083958755945783,0.016404725565062835
1772699626715180500,5.3421806640625,0.08369301320910454,0.006407428490044549,0.00007574182130920235
1772699626725137400,5.352137451171875,0.08010229524075985,0.00548762849769555,-0.008905731557958643
1772699626735094500,5.362094482421875,0.06468962205350398,0.012468468394945375,0.0032838662383233895
1772699626745051600,5.3720517578125,0.07381751588284968,-0.0024079881569137795,0.007385633863945258
1772699626755009500,5.382009521484375,0.07695932103991508,0.01153087701757904,0.004637714832960046
1772699626764966400,5.39196630859375,0.07860475015938281,0.004826698637241497,0.0031815326667885527
1772699626774923500,5.401923583984375,0.06917816564440726,-0.00536033972306177,-0.015674086902686395
1772699626784880600,5.411880615234375,0.07411620656847953,0.012550123362988233,-0.006426922637558891
1772699626794837500,5.42183740234375,0.07815583734810352,-0.0005021088698180392,0.008108113765218876
1772699626804794600,5.431794677734375,0.08010112619698047,0.0020907343347091227,-0.008089164182043168
1772699626814751700,5.441751708984375,0.08114858942329883,0.005781154384440742,0.0012623931809648639
1772699626824708400,5.451708251953125,0.07531213835477829,0.0024257978082401674,-0.004172917753492948
1772699626834665500,5.46166552734375,0.08249532785713672,0.0007251450699288398,-0.00926841311995522
1772699626844622600,5.47162255859375,0.0660351914435625,0.0019300090813543645,-0.008367451971283298
1772699626854580700,5.481580810546875,0.08384206629097461,0.0005298142940737306,-0.006405246236934908
1772699626864537600,5.49153759765625,0.06244388895332813,0.0050762346852105105,0.006681507036692346
1772699626874494500,5.501494384765625,0.0726186614871025,-0.008178981906943954,0.004083223326178267
1772699626884451600,5.51145166015625,0.0661836600035429,-0.005482737693446688,-0.0030476303466333773
1772699626894408400,5.521408447265625,0.06992401557564736,-0.0036681579855736344,-0.0050774887814914104
1772699626904365600,5.531365478515625,0.07740589576363563,-0.005959392461599782,-0.0016609052498126403
1772699626914322700,5.54132275390625,0.08653378959298133,-0.00012736183986999093,0.00003531220033182762
1772699626924279600,5.551279541015625,0.07082125667631625,-0.008131612800993025,0.005885855726286536
1772699626934236400,5.561236328125,0.09715689041614532,-0.005581540159112774,-0.009802074755373178
1772699626944193500,5.571193603515625,0.07366378662586212,0.0012360491675557567,0.0046852563272026596
1772699626954151700,5.581151611328125,0.07291618312895297,0.003574045394756831,0.008641398658012622
1772699626964108500,5.591108642578125,0.06887713687121867,-0.0012763948776759206,-0.011546268666244577
1772699626974065700,5.601065673828125,0.07381576231718064,-0.008645183779741637,-0.001960538933647331
1772699626984022500,5.6110224609375,0.08129705798327923,-0.00764752364505548,-0.004535639273040578
1772699626993979400,5.6209794921875,0.060796706268191336,0.0002481980408309027,-0.005178648742669611
1772699627003936500,5.6309365234375,0.07082301024198531,0.002430460283625871,-0.0025979857413476566
1772699627013893600,5.6408935546875,0.06379004286527633,-0.00014313936431426555,-0.004165752222944866
1772699627023850500,5.6508505859375,0.057954176318645474,0.007305733603215776,-0.0016672116930130868
1772699627033807600,5.6608076171875,0.08324293135404587,0.010399379636463708,0.0011351215309958207
1772699627043764500,5.670764404296875,0.07067395716011524,0.007790731508028693,0.001861111988540506
1772699627053722600,5.68072265625,0.06289280176460743,0.004484155110153369,0.0020897890532156453
1772699627063679500,5.690679443359375,0.06394026499092578,0.008503396122297271,-0.003724689928803127
1772699627073636600,5.70063671875,0.06319090792834758,0.006549672805215232,0.004809543148108059
1772699627083593700,5.71059375,0.09117255530953407,0.001163404056453146,0.016490839795803184
1772699627093550300,5.72055029296875,0.07336626498401165,0.0056928641796344884,0.005751045228078146
1772699627103507500,5.730507568359375,0.08174597079455852,0.00210875861516688,-0.014338705546502023
1772699627113464600,5.740464599609375,0.07860358111560345,-0.001528072650381364,0.0016063923045556293
1772699627123421400,5.75042138671875,0.08279284949898719,-0.0003418859399622306,0.016311380159226244
1772699627133378600,5.760378662109375,0.07815408378243446,-0.017908047366677782,0.02336745213359827
1772699627143335700,5.770335693359375,0.07964929077625274,0.0000033290348248556256,0.001636202920929645
1772699627153293600,5.78029345703125,0.07067103455066681,0.014945389035646803,0.0039817465587024346
1772699627163250400,5.79025048828125,0.07471124985218047,0.005740228719008155,-0.0005247025816497626
1772699627173207600,5.80020751953125,0.06648059712350368,-0.0009689226639689877,-0.012375677828246261
1772699627183164700,5.81016455078125,0.08308978661894798,-0.0024699246443342414,-0.002736773157530115
1772699627193121500,5.82012158203125,0.0703705902993679,0.013843309545260854,-0.010782193525147157
1772699627203078400,5.830078369140625,0.07934884652495383,-0.005903524955362081,-0.006290039484095177
1772699627213035500,5.840035400390625,0.07979775933623313,-0.0040735924147302285,-0.0018179338588728568
1772699627222992400,5.849992431640625,0.07934943104684353,0.005625758326752111,-0.0038880849173903694
1772699627232949500,5.859949462890625,0.07037175934314728,-0.002660834973398596,-0.0067421214999951184
1772699627242906600,5.86990673828125,0.07396306183338165,-0.0073832329859491435,-0.006555193226304254
1772699627252864500,5.879864501953125,0.08279168045520782,0.0016475251784315332,-0.00020836664147500414
1772699627262821400,5.8898212890625,0.06693009445667267,0.007805586583865806,0.006450979937403462
1772699627272778500,5.899778564453125,0.07605740376412869,0.004287609624746255,-0.0005594924797071144
1772699627282735600,5.909735595703125,0.07186638181507587,0.0018719085188349707,0.00531294892586884
1772699627292692500,5.9196923828125,0.07081950311064719,-0.0004737138923956081,-0.0003326386210042983
1772699627302649600,5.929649658203125,0.08323942422270775,-0.0032475077209761366,-0.0026247253345121862
1772699627312606500,5.9396064453125,0.07934943104684353,-0.013155870703794061,-0.0026103714405297067
1772699627322563600,5.9495634765625,0.06438683971464633,-0.019110007034963926,-0.004294273973439703
1772699627332520400,5.9595205078125,0.08054770092070102,-0.002179051938978955,-0.008218930895664379
1772699627342477600,5.9694775390625,0.07740472671985625,-0.017437552911252714,0.011154311348235933
1772699627352435700,5.979435791015625,0.07620821041166782,-0.009163750594016164,0.013203171311086044
1772699627362392300,5.989392333984375,0.05735387233793735,-0.0000025664164219051596,0.008073784520642948
1772699627372349400,5.999349365234375,0.08608429225981235,-0.0030396097244927657,0.000673226511379471
1772699627382306600,6.009306640625,0.07141922256946563,-0.010556168500217608,0.02487599353302503
1772699627392263700,6.019263671875,0.07097089428007602,-0.006162536651152186,0.009654032028722576
1772699627402220500,6.029220458984375,0.07246727031767368,-0.012684599930234252,0.006923326710730907
1772699627412177700,6.039177734375,0.07186871990263462,-0.005663208826887421,0.00791643568035215
1772699627422134500,6.049134521484375,0.07830255234241486,-0.01058706596198026,0.01616152564304648
1772699627432091400,6.05909130859375,0.07381459327340126,-0.006069497205992229,0.00494361785655492
1772699627442048500,6.069048583984375,0.06857786166369914,0.014426854187413117,0.013720268829126143
1772699627452006700,6.079006591796875,0.07531272287666797,0.009717836246243677,-0.0006425670824566623
1772699627461963800,6.0889638671875,0.08414134149849414,0.01391629258308094,-0.009228021173240267
1772699627471920400,6.09892041015625,0.08219605264961719,0.0016625446510501205,0.015891985703376122
1772699627481877500,6.10887744140625,0.07486439458727837,-0.002245258176140487,0.006591347960141138
1772699627491834600,6.118834716796875,0.07411679109036921,-0.0073314206003211434,-0.0123901515948819
1772699627501791500,6.12879150390625,0.07306932786405086,-0.009518829375691712,0.004596020270080771
1772699627511748600,6.13874853515625,0.0824964969009161,-0.008436317668878472,0.019563609721092508
1772699627521705700,6.148705810546875,0.06020049394071102,0.00823615088770166,0.009939155413303523
1772699627531662600,6.15866259765625,0.07082417928576469,-0.002019623593566939,0.01844951784921577
1772699627541619500,6.168619384765625,0.07695990556180476,-0.006881361578148789,0.006457831515764701
1772699627551577600,6.17857763671875,0.07531389192044735,-0.011889330499852075,-0.00203475608897279
1772699627561534700,6.18853466796875,0.0836941822528839,0.005679799202084541,0.006727884624555008
1772699627571491600,6.19849169921875,0.06453998444974422,-0.00022586291143670677,-0.0019735553913138573
1772699627581448400,6.208448486328125,0.07082534832954407,0.007953685251087882,0.0003255792633775854
1772699627591405600,6.218405517578125,0.07097557045519351,0.006404957971745171,0.015905495922209228
1772699627601362400,6.228362548828125,0.0627460867702961,0.007181116276280954,0.00739568204639072
1772699627611319600,6.238319580078125,0.08833411701321602,0.009288217223901302,0.009926740031369263
1772699627621276700,6.248276611328125,0.07875731037259101,0.014069542349455877,0.0017939616115298122
1772699627631233500,6.258233642578125,0.0810018744289875,0.0030397056226152924,0.000693110530427657
1772699627641190700,6.268190673828125,0.0836947667747736,0.001165550347766839,0.014050145812530536
1772699627651148500,6.2781484375,0.0723223088890314,-0.0019823877225629985,0.009107101061422145
1772699627661105700,6.288105712890625,0.07875672585070133,-0.0023779994440265,0.0033793316776544085
1772699627671062500,6.2980625,0.0796551359951496,0.00014495686206500978,0.01881659645429463
1772699627681019600,6.30801953125,0.08234861286282538,-0.006429727086820639,0.016232546194287715
1772699627690976300,6.317976318359375,0.06768412769436837,-0.010022737476951442,0.01752554857182549
1772699627700933400,6.327933349609375,0.07381985397040844,0.011041577396984211,0.007807730591890868
1772699627710890500,6.337890380859375,0.08205050669908523,0.004901873632147908,0.006897712208039593
1772699627720847600,6.34784765625,0.07815992900133133,-0.01701244110066909,0.02019056881328579
1772699627730804500,6.357804443359375,0.07426935130357742,0.011150408066320233,0.00042074387943139295
1772699627740761600,6.36776171875,0.0721744248509407,-0.015044995218911207,-0.00861753657934605
1772699627750719500,6.377719482421875,0.06708674632310867,-0.00005323715773411095,-0.004843143452788354
1772699627760676400,6.38767626953125,0.08803601084947585,0.0000623566125286743,-0.0005194413138204254
1772699627770633500,6.397633544921875,0.07337152568101883,-0.0011388130378909408,0.011095332861237693
1772699627780590600,6.407590576171875,0.0804044930577278,0.01276688508593943,-0.0027492775877210078
1772699627790547700,6.417547607421875,0.07247370005846022,0.0012493698734324424,0.008685293740310589
1772699627800504300,6.42750439453125,0.07531798357367515,-0.0138481775166234,-0.006791239605037845
1772699627810461400,6.43746142578125,0.07082943998277187,0.009076675098761916,-0.008445722534751985
1772699627820418600,6.44741845703125,0.08354922082424163,0.0195514945916133,0.0035244004208623662
1772699627830375400,6.45737548828125,0.08325053013861179,0.0020367710911901667,0.01172245635021245
1772699627840332500,6.46733251953125,0.08743979852199554,-0.005985358019918203,0.010957180199294815
1772699627850290400,6.47729052734375,0.06963292367458343,0.007706190463155508,-0.014488870589935686
1772699627860247600,6.48724755859375,0.06424655446112155,0.00861994430720806,0.01568204073863453
1772699627870204400,6.497204345703125,0.07876198654770851,0.021320330895041116,-0.0018258043547859414
1772699627880161500,6.50716162109375,0.09312661198675631,0.011538188107777386,-0.006104045075454633
1772699627890118700,6.51711865234375,0.0825011730760336,0.001720814176928252,0.0017030713117943378
1772699627900075500,6.527075439453125,0.07606617159247397,0.007469824424013495,-0.004181073089662823
1772699627910032400,6.537032470703125,0.07157645895779133,0.005060685489629395,0.0005270035657682456
1772699627919989500,6.546989501953125,0.07846037325263022,-0.005438693055743351,-0.005547937571143848
1772699627929946400,6.5569462890625,0.07172668108344078,0.003030914961383678,-0.021797933227976317
1772699627939903500,6.566903564453125,0.08025602449774742,-0.015057731402898206,0.010140280034061288
1772699627949860600,6.576860595703125,0.06918225729763508,0.0007231312093557789,-0.00033821155773184724
1772699627959818500,6.586818603515625,0.07756137858629227,0.005738255957630463,-0.003874199097577366
1772699627969775400,6.596775390625,0.0769628281712532,0.000023874065931886434,-0.0007597837001143489
1772699627979732500,6.606732421875,0.06603986761868,-0.008660303717060015,-0.008896966012901976
1772699627989689600,6.616689697265625,0.07606500254869461,-0.00593034903020598,-0.010212268699682317
1772699627999646500,6.626646484375,0.07097673949897289,-0.002134322314686142,-0.003771195951651316
1772699628009603600,6.636603515625,0.06454232253730297,-0.005999838636419736,-0.00016600535831530578
1772699628019560400,6.646560546875,0.05676175166368484,0.009215937438979744,0.00813739294616389
1772699628029517300,6.656517333984375,0.07187573416531086,-0.0032495215815491973,0.0013336757395765743
1772699628039474400,6.666474365234375,0.07681435961127281,0.0030985277043422683,-0.0052249960769579044
1772699628049431600,6.676431640625,0.0697819767564535,0.012408331138966604,0.0011789384106581564
1772699628059389700,6.6863896484375,0.07127776827216148,-0.006747222937620244,0.004789304648499819
1772699628069346300,6.69634619140625,0.08624269769191742,-0.004640103723690845,-0.00005007137804641388
1772699628079303400,6.706303466796875,0.0732248106867075,0.007886999523313716,0.009531087781532551
1772699628089260500,6.716260498046875,0.08609422913193703,-0.014164970114524476,-0.006426424880637205
1772699628099217400,6.726217529296875,0.0700830055296421,-0.002018783343350515,0.007846370685403234
1772699628109174500,6.736174560546875,0.07756605476140975,-0.011120652248873375,-0.005183171937448787
1772699628119131600,6.746131591796875,0.08789104942083359,-0.000363714179280214,-0.0029473939757066543
1772699628129088500,6.756088623046875,0.06873568257391452,0.015170699391234665,0.004687242788312142
1772699628139045400,6.76604541015625,0.0718780722528696,0.004365214038756676,0.006853604209076729
1772699628149002500,6.77600244140625,0.055119829675555225,0.0051547432815190405,-0.006203622717611142
1772699628158960600,6.785960693359375,0.06769055743515491,0.0082731264638016,-0.015234389444324188
1772699628168917500,6.79591748046875,0.09716974989771843,0.005257600867794827,-0.0036832881976908535
1772699628178874400,6.805874267578125,0.08370119651556014,0.010617698562261647,0.0004916765240603126
1772699628188831500,6.81583154296875,0.06978431484401226,0.002243002286972478,0.003294304863124853
1772699628198788400,6.825788330078125,0.08968670066595077,0.0013792478973744435,0.006318031461074133
1772699628208745500,6.835745361328125,0.0756207659125328,-0.0027228399594780056,-0.011554167703265556
1772699628218702600,6.84570263671875,0.07367547706365585,0.010265204463317058,0.007504334619213477
1772699628228659500,6.855659423828125,0.08624445125758648,-0.013647056320798583,0.004208484540507197
1772699628238616600,6.865616455078125,0.08534662563502789,0.01017751248013228,-0.00010342327103426213
1772699628248573400,6.875573486328125,0.07382453014552592,0.010216684579895809,-0.008945795852754963
1772699628258531600,6.885531494140625,0.07666822913885116,0.0056575965034309774,0.00016775321576278655
1772699628268488400,6.895488525390625,0.07547171283066273,0.009514367829705588,0.00007713120244152378
1772699628278445600,6.905445556640625,0.07846388038396834,0.0017991994756506756,0.014615641058050095
1772699628288402400,6.91540234375,0.08205401383042335,0.011437677742214873,0.004475476330064703
1772699628298359300,6.925359375,0.07531973713934421,-0.006819269827101379,0.001863690392227727
1772699628308316400,6.93531640625,0.07337503281235694,0.005164862816734239,-0.018983220583829095
1772699628318273500,6.9452734375,0.0666413406431675,-0.0006386403968324884,-0.011941958019521552
1772699628328230400,6.95523046875,0.07457154912054538,-0.010136554848658852,0.00971509401659714
1772699628338187500,6.9651875,0.06664017159938812,-0.0065472799187293275,0.012335368650744203
1772699628348144600,6.97514453125,0.07965922764837742,0.008364795935782604,0.004636659953612252
1772699628358102500,6.9851025390625,0.07906009271144866,0.00944473209301941,0.0080661372161936
1772699628368059400,6.995059326171875,0.08354805178046226,0.004793951711687259,0.010397578121733385
1772699628378016500,7.0050166015625,0.07023030504584311,0.013871951117855497,0.016141277439461553
1772699628387973600,7.0149736328125,0.08384674246609211,0.000909895086265169,-0.004557434975495562
1772699628397930500,7.024930419921875,0.07816109804511069,0.003398958255909383,-0.015551129526586736
1772699628407887400,7.034887451171875,0.07756254763007163,0.00017734759459272026,-0.009010620700294384
1772699628417844500,7.044844482421875,0.06858487592637538,-0.01099301184779033,0.016522495309391524
1772699628427801600,7.054801513671875,0.06514321103990077,0.008985357253230176,0.00867018807354616
1772699628437758500,7.064758544921875,0.07322247259914874,0.006258370841597207,0.0029311580810695887
1772699628447715600,7.074715576171875,0.07771160071194172,0.017584089809050782,0.003873711044632364
1772699628457672700,7.084672607421875,0.06813420954942703,-0.003341570079443045,-0.017951712978468277
1772699628467630300,7.09463037109375,0.0808534058690071,0.011413196321506985,0.026636623697110916
1772699628477587500,7.10458740234375,0.07890753249824047,0.005557707192376256,0.005089757462131092
1772699628487544600,7.114544677734375,0.07890753249824047,0.005875422238884494,-0.00989479225683608
1772699628497501700,7.124501708984375,0.07082651737332343,-0.002772492354060523,0.009291068480579997
1772699628507458600,7.13445849609375,0.06903145065009593,0.0006602129078237339,0.013328133414604235
1772699628517415400,7.14441552734375,0.07411854465603827,-0.005335643673222512,-0.01607752573757898
1772699628527372500,7.15437255859375,0.07740998741686343,-0.002608328468026593,-0.009249902499018935
1772699628537329400,7.164329345703125,0.06005144085884094,-0.00510720064563211,0.010846498924522894
1772699628547286500,7.17428662109375,0.08444237027168273,0.0029308429872384294,-0.004193144265835872
1772699628557243600,7.18424365234375,0.07860767276883125,0.006770361784612759,-0.004186906892116531
1772699628567201300,7.194201171875,0.07307049690783024,-0.00033449721795041114,0.010398522261582548
1772699628577158400,7.204158447265625,0.07127484566271304,0.0055238186225062234,0.010044867110368795
1772699628587115500,7.214115478515625,0.06693593967556953,-0.008245617402368224,0.0022381931102921954
1772699628597072600,7.22407275390625,0.0801040488064289,-0.0024500463335076347,0.004794605873880209
1772699628607029500,7.234029541015625,0.07815817543566227,-0.002137719848169945,0.011842569890321465
1772699628616986600,7.243986572265625,0.07037760456204414,0.012056403295602649,-0.006864940166310407
1772699628626943500,7.253943603515625,0.06723521488308906,-0.000989919786225073,0.0034486591703753217
1772699628636900400,7.263900390625,0.07980535812079906,0.005646714349812828,0.011940304918552282
1772699628646857500,7.273857421875,0.08758709803819656,0.012691920153587125,-0.015690174954384566
1772699628656814600,7.283814697265625,0.08205050669908523,0.012607484139990991,-0.001375891463086009
1772699628666771500,7.293771484375,0.07696165912747382,-0.015699422273342496,-0.01800649592260597
1772699628676729300,7.303729248046875,0.06828267810940743,0.007358413638523779,-0.019772827458404935
1772699628686686700,7.313686767578125,0.07292144382596015,-0.010542112575401552,0.004951188100012951
1772699628696643800,7.323643798828125,0.07426759773790836,0.01111301236511208,0.003550614286819473
1772699628706601000,7.33360107421875,0.07247136197090148,0.007272584818862378,0.0028296881634596502
1772699628716557800,7.343557861328125,0.08474164547920227,0.013571200905879958,0.0010805360913247568
1772699628726515000,7.353514892578125,0.07262041505277156,0.0010227854427881538,0.009256336806382751
1772699628736471800,7.363471923828125,0.06020049394071102,0.0011981831088894977,0.0177619214608334
1772699628746428700,7.3734287109375,0.0610989040851593,0.005888962140469811,0.0028603447382716694
1772699628756385800,7.3833857421875,0.06693418610990047,0.014827740305615587,0.007780553178131231
1772699628766343000,7.393343017578125,0.07172317395210266,0.0020723036288749427,0.003113132760074222
1772699628776300500,7.403300537109375,0.07396832253038883,-0.008037276447890327,0.000017476862008334138
1772699628786257700,7.413257568359375,0.07890636345446109,-0.00905063190863002,0.0068599397642072285
1772699628796214800,7.42321484375,0.07950549839138984,0.003123351618344895,-0.011367446067195851
1772699628806172000,7.433171875,0.06618716713488101,0.006299255407834425,-0.013265487966063664
1772699628816128800,7.443128662109375,0.07127484566271304,0.002404613456316292,-0.002467682454898022
1772699628826086000,7.4530859375,0.07366963184475898,0.00665964968544431,-0.0027851372065022585
1772699628836043000,7.46304296875,0.09192541950345039,-0.011600425989297218,0.010225299427902792
1772699628845999600,7.47299951171875,0.06843290023505687,0.010731200840137898,0.016503217503475023
1772699628855956700,7.482956787109375,0.048531098935008045,0.017855111603043042,-0.00776747792578244
1772699628865913900,7.492913818359375,0.08055471518337726,0.0030636938529787585,-0.01110613395810942
1772699628875870700,7.50287060546875,0.06409457876980304,0.008038600755296646,0.0004002724843827309
1772699628885828600,7.51282861328125,0.07217559389472007,0.0013891391037264837,-0.008267310356834786
1772699628895785700,7.52278564453125,0.0790583391457796,0.011809310366469435,-0.0001705947684647981
1772699628905742800,7.532742919921875,0.06783551886379718,-0.004032337955734692,-0.01848878128052456
1772699628915699700,7.54269970703125,0.08594225344061851,0.0002622950648423284,0.007147500559402396
1772699628925656800,7.55265673828125,0.08549275610744952,0.014726905713067388,0.005248543061793316
1772699628935614000,7.562614013671875,0.08429507075548172,-0.0073369507253868505,-0.010377662136644357
1772699628945570800,7.57257080078125,0.06334639075100422,0.0006871420139446854,-0.008285922584115177
1772699628955527700,7.582527587890625,0.0703793581277132,-0.00026279282176401467,0.007132789330749074
1772699628965484800,7.59248486328125,0.07157587443590163,0.00468293821841944,0.014163364962616469
1772699628975441700,7.602441650390625,0.08504325877428054,0.00122683838121593,0.0176806466603477
1772699628985399800,7.61239990234375,0.05706102687120437,-0.005745046458020806,0.011609426713082939
1772699628995356700,7.622356689453125,0.05586392604112625,-0.0025477254211669787,0.0006616365382855292
1772699629005313800,7.632313720703125,0.07007949839830398,0.0006267901288345456,-0.024142898052081
1772699629015270700,7.642270751953125,0.07082710189521313,-0.00786991139119491,0.0005671569088211982
1772699629025227800,7.652227783203125,0.05975391921699047,-0.004557608505431562,0.011063133924955035
1772699629035185000,7.662184814453125,0.06888181304633617,0.004369310258561745,0.004009392046631546
1772699629045141800,7.672141845703125,0.06394318760037422,-0.009657429562206379,0.00154764442970918
1772699629055099000,7.682098876953125,0.0714250677883625,-0.00471765790535137,-0.014864254657411946
1772699629065055700,7.6920556640625,0.07142448326647281,0.0016952002450590952,-0.008356168529688148
1772699629075012600,7.7020126953125,0.082796941152215,0.0027988004056736827,0.017735535777406768
1772699629084970800,7.711970703125,0.07381926944851874,-0.0065190402049338445,0.0067731445426325075
1772699629094928000,7.721927978515625,0.07905658558011054,-0.012314679772453381,0.010025600720895454
1772699629104884700,7.731884765625,0.06603869857490062,-0.011873082617949693,0.016006688991072587
1772699629114841600,7.741841552734375,0.08115209655463695,0.016467091310746036,0.005929125187499449
1772699629124798700,7.751798828125,0.06903261969387531,0.010355800789641215,0.010595559795689768
1772699629134755800,7.761755859375,0.0765144998818636,0.015216356030711904,-0.0007617650238244095
1772699629144712700,7.771712646484375,0.0494306781232357,-0.005365664352150633,0.014165559202991425
1772699629154669800,7.781669921875,0.06484335131049156,-0.005766701167402789,0.016795738743222318
1772699629164627000,7.791626953125,0.0772632724225521,0.002732091845013201,0.010967002906987908
1772699629174583600,7.80158349609375,0.08040683114528656,0.00004152388705406338,0.004489645848490181
1772699629184540700,7.811540771484375,0.07322539520859718,-0.0013472727233776822,0.0018990979198599232
1772699629194498800,7.821498779296875,0.07681669769883155,0.022060399539466015,-0.0028833231842378152
1772699629204456000,7.8314560546875,0.08549509419500827,0.007435944987297989,-0.0014035649213008582
1772699629214412800,7.841412841796875,0.0652946022093296,-0.005445602287142537,-0.012288482460338854
1772699629224369700,7.85136962890625,0.08070785991847515,0.008979379603592678,0.023957221020560245
1772699629234326800,7.861326904296875,0.08010930950343609,0.008571333092241548,0.01500801393458969
1772699629244283600,7.87128369140625,0.07966039669215678,0.0003269577988889068,0.01532807848509983
1772699629254240800,7.88124072265625,0.09297755890488624,0.009358254819386638,0.001849788018572144
1772699629264198000,7.891197998046875,0.0744224960386753,0.008918657825724222,-0.0009501192112657008
1772699629274155000,7.901155029296875,0.05422141953110694,-0.011168615009868517,-0.00400767558440275
1772699629284111600,7.911111572265625,0.06544307076931,-0.0019150626739719882,-0.0011258553749066778
1772699629294068700,7.92106884765625,0.07202654081285,-0.0035610626155976204,0.008250282161042559
1772699629304027000,7.93102685546875,0.06693886228501797,0.007401038070698268,0.010710379531106446
1772699629313983700,7.940983642578125,0.06693827776312827,-0.013621634185174479,0.005991115332202752
1772699629323940900,7.95094091796875,0.08190203813910484,0.00016300397540908306,0.004753993589812307
1772699629333897700,7.960897705078125,0.07307341951727866,0.0017818738815141841,-0.00006988461514702067
1772699629343854800,7.970854736328125,0.07292319739162921,0.005267469241260551,-0.0012679187394533072
1772699629353811700,7.980811767578125,0.07322188807725906,0.0047667623106623066,0.01484430328134913
1772699629363768800,7.990768798828125,0.07277180622220039,0.009028109549568035,0.01915163138671778
1772699629373726000,8.000725830078125,0.08175006244778632,0.0066481145112775265,0.0028648062842577928
1772699629383682800,8.010682861328124,0.07606383350491523,-0.005928061174997128,0.002304018038252252
1772699629393639700,8.0206396484375,0.07950549839138984,-0.008757233886048198,0.004620291057412396
1772699629403597800,8.030597900390624,0.07426876678168773,0.0024172902747988697,0.017315979208063798
1772699629413554700,8.0405546875,0.07591536494493484,-0.0038061827833531423,0.0008112650088907685
1772699629423511800,8.05051171875,0.07097673949897289,-0.011740400715568103,0.013367616041621658
1772699629433469000,8.060468994140624,0.07800970687568187,-0.006727773885056376,-0.0025792542122362646
1772699629443425800,8.07042578125,0.09611702597439288,0.011943914797878824,-0.006587657024068176
1772699629453382700,8.080382568359376,0.07741232550442219,0.003024754648655653,-0.009115742738070549
1772699629463339800,8.09033984375,0.07232464697659015,0.0067174945196369655,0.005641283547802595
1772699629473297000,8.100296875,0.08100421251654624,-0.010866485691559501,-0.009586129308107774
1772699629483253800,8.110253662109375,0.09596855741441249,0.006611298765381798,-0.0014006811277591622
1772699629493211000,8.1202109375,0.07142857491970062,0.009146424999879672,-0.005540486058694659
1772699629503167700,8.130167724609375,0.06334755979478358,0.000612437376496382,-0.0054675709487113635
1772699629513126000,8.1401259765625,0.07082943998277187,0.00950454968858976,-0.0005134374063636641
1772699629523082800,8.150082763671875,0.06798515646755694,0.005810540309129282,0.003313517595315352
1772699629533039900,8.160039794921875,0.07352057876288891,0.006253489170502871,0.005853228673385456
1772699629542997000,8.1699970703125,0.07037760456204414,0.013943746845587156,-0.0034571547165513036
1772699629552953600,8.17995361328125,0.07546586761176585,-0.0013813393897609784,-0.002845813318598084
1772699629562910700,8.18991064453125,0.07232406245470047,0.00021891258084215222,-0.00011806771349511109
1772699629572867800,8.199867919921875,0.08339724513292313,0.012509238796751015,-0.017883398124255472
1772699629582824700,8.20982470703125,0.07606500254869461,0.005823650952451862,-0.007304570838480139
1772699629592781800,8.21978173828125,0.07801087591946125,0.004979683542135171,0.0024018232776084913
1772699629602739000,8.229739013671875,0.06858370688259602,-0.008213117071986197,-0.007248194729699753
1772699629612696800,8.23969677734375,0.062298927524685854,-0.0031723509923787785,-0.0032894660036923594
1772699629622653700,8.24965380859375,0.0730722504734993,-0.009349395659496076,0.009113771118337171
1772699629632610800,8.25961083984375,0.0787578948944807,0.002355171124287881,0.00919413374501455
1772699629642568000,8.26956787109375,0.06903086612820625,-0.013868832145584747,0.004885617758735316
1772699629652524800,8.27952490234375,0.06678630207180976,-0.014200973009667358,0.008485430636521778
1772699629662481700,8.289481689453124,0.06663724898993968,-0.016348629729961976,0.020429336872068233
1772699629672438800,8.299438720703124,0.06214812087714672,0.0015181814440293237,0.000484637716031284
1772699629682395600,8.309395751953126,0.07367021636664867,-0.004110243763844482,-0.0023021685744606655
1772699629692352000,8.31935205078125,0.08519231185615062,0.0013499670039629564,0.006809069235139759
1772699629702309000,8.32930908203125,0.06798398742377758,-0.004018556025554426,-0.0020176085913495624
1772699629712266200,8.339266357421875,0.07890870154201984,-0.0007364245157688856,-0.006030354218158754
1772699629722224000,8.34922412109375,0.07920680770576,-0.0076138725372031325,0.007244616245591896
1772699629732181000,8.359180908203125,0.07681319056749343,0.0050821347030345345,-0.002632993693469325
1772699629742138000,8.36913818359375,0.06933247942328452,0.01570211655392777,-0.0013703955873497762
1772699629752095200,8.37909521484375,0.08324877657294273,0.0046247189248912034,0.009851675775961485
1772699629762052000,8.389052001953125,0.08115385012030601,0.011573382718744687,-0.007581847130856476
1772699629772009200,8.39900927734375,0.06663900255560874,0.0052202006000094114,-0.003673055068866233
1772699629781966300,8.40896630859375,0.06529167959988116,0.0022102781943045555,-0.00949576816051267
1772699629791923000,8.4189228515625,0.07172609656155109,0.004105005899723619,0.007674085141706746
1772699629801880000,8.428880126953125,0.07860884181261062,0.006495462966524064,0.002627053718094248
1772699629811837200,8.438837158203125,0.0717255120396614,0.003407502321968786,0.01066934769275249
1772699629821794000,8.4487939453125,0.0687321754425764,-0.004468377585709095,0.0033320293578959536
1772699629831752000,8.458751953125,0.07741057193875313,-0.0060451847486430775,-0.003016215149173513
1772699629841709000,8.468708984375,0.0784574506431818,0.003636539004603401,0.000532108428326319
1772699629851666200,8.478666259765625,0.08459259239733219,0.00155214764571283,-0.01722490909934859
1772699629861623000,8.488623046875,0.0736690473228693,0.002945551932603121,0.0032479118630639276
1772699629871580200,8.498580078125,0.07172375847399234,-0.005201559831621125,-0.005308073533818242
1772699629881537300,8.508537353515624,0.06858078427314758,-0.005026568590896204,-0.0017571441531676099
1772699629891494100,8.518494140625,0.07232113984525203,0.0022381023495690894,0.009834996352507732
1772699629901451000,8.528450927734376,0.07366787827908992,0.002486419121408835,0.018881833435432052
1772699629911408000,8.538408203125,0.08369359773099422,0.010446333183883688,-0.0039746455310581946
1772699629921365000,8.548364990234376,0.07561258260607719,0.012778826685482636,0.005612259524362162
1772699629931322000,8.558322021484376,0.062145198267698286,0.0006425767864333466,0.016119682095583992
1772699629941280000,8.568280029296876,0.06708265466988086,0.011922908542468212,-0.005766966599706211
1772699629951237000,8.578237060546876,0.07935352270007133,0.01651103091717232,-0.001109834109400981
1772699629961194000,8.588194091796876,0.07486439458727837,-0.005174032503878698,0.0314936512572458
1772699629971151000,8.598151123046875,0.07875438776314259,0.0019025274193845687,0.009628354164771735
1772699629981108200,8.608108154296875,0.0747147569835186,0.0033907201505266127,0.007564314899098826
1772699629991065000,8.618065185546875,0.05556055918037891,-0.0008754859265871346,-0.00039384559770696794
1772699630001022200,8.628022216796875,0.07965221338570118,0.002236376183363609,-0.002930474236124428
1772699630010979000,8.63797900390625,0.0842915636241436,-0.009523195023555309,0.008143898035475286
1772699630020936000,8.64793603515625,0.06139642572700977,-0.007270680556143634,-0.006322594613404362
1772699630030893000,8.65789306640625,0.06842880858182906,0.005066147116036154,0.011826042305561713
1772699630040850200,8.66785009765625,0.07411503752470017,-0.0018847634338308124,0.003140815922265756
1772699630050808000,8.67780810546875,0.08294365614652634,0.006358474781783297,0.009297043846928863
1772699630060765000,8.687764892578125,0.08069909209012985,0.003522406539064832,0.013763419559330213
1772699630070722000,8.69772216796875,0.07845452803373336,-0.014851363209798,0.012442918395157902
1772699630080679200,8.70767919921875,0.08159750223457812,-0.010464791289181447,0.004022750426770653
1772699630090636000,8.717635986328125,0.07531330739855766,0.004099183513713069,0.014687541817058808
1772699630100593200,8.72759326171875,0.0811497584670782,-0.004488813018961809,0.011502488890022504
1772699630110550300,8.73755029296875,0.08100012086331844,-0.00556612339427229,0.011952079838025383
1772699630120507000,8.7475068359375,0.07292027478218079,0.011638826337503268,0.009535205121757461
1772699630130464000,8.757464111328124,0.08399345746040343,0.004892955106752924,0.006106706248354748
1772699630140421000,8.767421142578126,0.09252280087471008,-0.0037280258134938776,0.006020975610104506
1772699630150379300,8.777379150390624,0.08025310188829898,-0.004816341640008613,0.002289168670636718
1772699630160336100,8.787336181640624,0.06319499958157539,-0.006047267107875086,-0.004510548214268055
1772699630170293000,8.79729296875,0.06499065082669257,0.014567408868996426,0.016140527379146077
1772699630180250000,8.80725,0.07501578575670718,-0.008382016498642042,0.013493948118318803
1772699630190207000,8.81720703125,0.07726034981310367,0.0021686264430871233,0.000059264468899345953
1772699630200164000,8.8271640625,0.07591361137926578,-0.005413494682405143,0.004667628197322483
1772699630210121200,8.837121337890625,0.07636310871243476,0.0007492291984148323,0.013744614394160453
1772699630220078300,8.847078369140625,0.06574000788927079,0.015297928800364024,0.01080003970909165
1772699630230035000,8.857034912109375,0.08025427093207836,0.013987928480608388,0.012637310739385428
1772699630239992000,8.866991943359375,0.07127543018460274,0.0037385335077764464,-0.018977747540979178
1772699630249949200,8.87694921875,0.082796941152215,0.004670722624240443,-0.013213285138079662
1772699630259907000,8.886906982421875,0.0862386060386896,0.014221956432191655,-0.006629924121571821
1772699630269864200,8.8968642578125,0.07696107460558414,0.0023048794088885187,0.011505224269803146
1772699630279821000,8.906821044921875,0.06858136879503726,0.006900162176741287,0.008012749361409804
1772699630289778200,8.916778076171875,0.08264671902656555,-0.0011778618400683626,0.004734800836397335
1772699630299735000,8.926735107421875,0.08713467809557915,0.010941144663235172,0.005046678655518917
1772699630309692200,8.936692138671875,0.07815583734810352,-0.00884247361724265,0.0006557981692545581
1772699630319649300,8.946649169921875,0.0651373658210039,-0.011038307727663777,0.0015168314496258972
1772699630329606100,8.956606201171875,0.08264554998278617,0.006268508643121458,-0.004216762032618862
1772699630339563000,8.96656298828125,0.08474047643542289,0.003994106570887379,-0.002090188628726173
1772699630349520100,8.97652001953125,0.08848083200752735,0.004607352231559343,0.0057566444226249585
1772699630359477000,8.98647705078125,0.07725859624743461,-0.000030856362567283214,-0.00537524160631583
1772699630369435100,8.99643505859375,0.07875555680692195,-0.002701212649559602,-0.021337505792127922
1772699630379392300,9.006392333984374,0.06798223385810852,-0.0063071647196542464,-0.0020109545174549566
1772699630389349000,9.01634912109375,0.07905541653633118,0.007942867029551416,0.014443759656441396
1772699630399306000,9.026305908203126,0.06917991921007632,-0.015208455852046608,-0.0010835774317820323
1772699630409263000,9.03626318359375,0.07292202834784985,0.006935470952140167,-0.007505044151155743
1772699630419220200,9.04622021484375,0.07517536023259162,0.0026220099335070696,0.002338281067457865
1772699630429177000,9.056177001953126,0.056470075240731235,-0.010450141709321178,-0.013294206028827466
1772699630439134200,9.06613427734375,0.09746785606145858,0.009027219067001714,0.024926132268086074
1772699630449091000,9.076091064453125,0.08983224661648273,0.006584040865697897,0.008723577069974271
1772699630459048000,9.0860478515625,0.08010229524075985,-0.018577439094800502,-0.013565746129339095
1772699630469005000,9.096005126953125,0.07157061373889446,-0.009386097240960225,-0.011123905935173388
1772699630478963200,9.105963134765625,0.0709714788019657,0.00047222518820781256,0.004182370568427723
