time,seconds_elapsed,z,y,x
1772699621477742300,0.104742431640625,-0.000894264318048954,0.001388701144605875,-0.002891744952648878
1772699621487699500,0.114699462890625,-0.0017257031286135316,0.0009876289404928684,0.0005101771093904972
1772699621497656600,0.124656494140625,-0.0007049136329442263,0.00016338098794221878,0.0004441309720277786
1772699621507613400,0.134613525390625,-0.002834151964634657,0.000609230250120163,-0.00044005410745739937
1772699621517570600,0.144570556640625,-0.0011097552487626672,0.00020922347903251648,-0.0022608572617173195
1772699621527527700,0.154527587890625,0.0016064441297203302,0.0012432928197085857,0.0026063513942062855
1772699621537485600,0.164485595703125,-0.0003962530754506588,0.0014715255238115788,-0.0001364382915198803
1772699621547442400,0.1744423828125,0.0009638068731874228,-0.0008739056065678596,0.00030020764097571373
1772699621557399600,0.184399658203125,-0.00031158095225691795,0.001372204627841711,0.0013596131466329098
1772699621567356700,0.194356689453125,0.0005680487956851721,-0.0000342000275850296,0.0023206626065075397
1772699621577313500,0.2043134765625,-0.0004484797827899456,0.0007405132055282593,0.0014301016926765442
1772699621587270400,0.2142705078125,-0.0005105235613882542,-0.0013186498545110226,-0.0022766957990825176
1772699621597227500,0.2242275390625,0.0009363719727844,0.001657166052609682,0.0008256202563643456
1772699621607184400,0.234184326171875,-0.00003589061088860035,0.0009963847696781158,0.00021109217777848244
1772699621617141500,0.2441416015625,-0.0004087332636117935,-0.0001474427990615368,0.000023871660232543945
1772699621627099400,0.254099365234375,-0.00029617175459861755,-0.0010243426077067852,0.0020576403476297855
1772699621637056500,0.264056396484375,-0.0012013802770525217,0.000550384633243084,-0.00036876555532217026
1772699621647013400,0.274013427734375,0.002609603339806199,-0.0011092973873019218,-0.0005250934045761824
1772699621656970500,0.283970458984375,0.0003560362383723259,0.0019570658914744854,-0.0007653103675693274
1772699621666927600,0.293927734375,-0.0017905381973832846,-0.0023031369782984257,0.0013879407197237015
1772699621676884500,0.303884521484375,0.0008614377584308386,-0.0007441225461661816,-0.0009284769184887409
1772699621686841600,0.313841552734375,-0.0011212354293093085,0.0008420157246291637,-0.0014178974088281393
1772699621696798200,0.323798095703125,0.0008127521723508835,0.0022676060907542706,0.003409348428249359
1772699621706755300,0.33375537109375,-0.0015294488985091448,-0.002354352967813611,0.0022605317644774914
1772699621716712400,0.34371240234375,-0.0020466349087655544,-0.0018917620182037354,0.00009671319276094437
1772699621726670600,0.353670654296875,-0.0032339212484657764,0.0005967384204268456,0.0005648261867463589
1772699621736627500,0.36362744140625,-0.0015396180097013712,0.0009176493622362614,-0.0009124292992055416
1772699621746584300,0.373584228515625,-0.0004959213547408581,-0.0002799783833324909,-0.0013041519559919834
1772699621756541400,0.38354150390625,-0.0005353360902518034,-0.004623593762516975,-0.001710284035652876
1772699621766498300,0.393498291015625,-0.0006509048398584127,0.0041067698039114475,-0.0009775643702596426
1772699621776455400,0.403455322265625,-0.00037819729186594486,-0.0002261931076645851,0.0012538982555270195
1772699621786412500,0.41341259765625,-0.0020642359741032124,0.0015690373256802559,-0.0002536606043577194
1772699621796369400,0.423369384765625,-0.0012549011735245585,0.003388775046914816,0.0007857708260416985
1772699621806326300,0.433326171875,0.001187237910926342,-0.0008624470792710781,0.0001771128736436367
1772699621816284400,0.443284423828125,0.0006370288319885731,0.00029096798971295357,0.0009451685473322868
1772699621826241500,0.453241455078125,0.001443949993699789,-0.0024392902851104736,-0.00044884253293275833
1772699621836198400,0.463198486328125,-0.000009070849046111107,-0.0020310278050601482,0.00030030449852347374
1772699621846155500,0.473155517578125,-0.0006628725677728653,-0.0008872030302882195,0.0017381738871335983
1772699621856112400,0.4831123046875,-0.002107903826981783,0.00007473072037100792,-0.0010352421086281538
1772699621866069200,0.4930693359375,0.0001185114961117506,0.00007152371108531952,-0.00041304389014840126
1772699621876026400,0.5030263671875,-0.0011054774513468146,-0.0023098750971257687,0.004632581025362015
1772699621885983500,0.5129833984375,0.0005459156818687916,0.002270790282636881,0.001496750395745039
1772699621895940400,0.5229404296875,-0.0010192240588366985,0.0013277651742100716,0.0005872808396816254
1772699621905898200,0.532898193359375,0.0005576335825026035,0.0015317630022764206,-0.002287068637087941
1772699621915855400,0.54285546875,-0.000651974231004715,-0.0005945046432316303,0.0006890138611197472
1772699621925812500,0.5528125,0.00017547397874295712,0.0025791809894144535,-0.000500059686601162
1772699621935769300,0.562769287109375,0.0010985257104039192,-0.001594525296241045,-0.0017983505968004465
1772699621945726500,0.5727265625,0.0012021679431200027,-0.0015210607089102268,0.00011757109314203262
1772699621955683600,0.58268359375,-0.001320111914537847,0.00007949909195303917,-0.0009391710627824068
1772699621965640200,0.59264013671875,0.001156889833509922,-0.0013863015919923782,0.00251332251355052
1772699621975597300,0.602597412109375,-0.00033954018726944923,-0.00029387278482317924,0.0015836129896342754
1772699621985554400,0.612554443359375,-0.0003368810284882784,-0.0001545855775475502,0.0019766674377024174
1772699621995512600,0.6225126953125,-0.00022129970602691174,0.00042438553646206856,0.0017036935314536095
1772699622005469400,0.632469482421875,0.0007970556616783142,0.0020529399625957012,0.0015313997864723206
1772699622015426300,0.64242626953125,0.0019579275976866484,-0.001073610968887806,0.00023950031027197838
1772699622025383400,0.652383544921875,-0.0008842140669003129,0.0021986295469105244,-0.0016985945403575897
1772699622035340300,0.66234033203125,0.002931030234321952,-0.0012874477542936802,0.0036487667821347713
1772699622045297400,0.67229736328125,0.0003882399760186672,0.00037330249324440956,0.002365095540881157
1772699622055254500,0.682254638671875,0.00020794407464563847,0.0003583887591958046,0.001266275066882372
1772699622065211400,0.69221142578125,-0.001653564046137035,-0.00024005910381674767,-0.00046556396409869194
1772699622075168300,0.702168212890625,0.00015472224913537502,-0.0008674999698996544,0.0014188885688781738
1772699622085126400,0.71212646484375,-0.00021385098807513714,0.0006488971412181854,-0.001515059731900692
1772699622095083500,0.72208349609375,-0.0011773827718570828,-0.00033753784373402596,0.001156623475253582
1772699622105040400,0.732040283203125,0.0004457684699445963,0.00006277486681938171,-0.0005094930529594421
1772699622114997500,0.74199755859375,0.00008917134255170822,0.0009019370190799236,-0.0005070962943136692
1772699622124954400,0.751954345703125,0.000877508195117116,-0.0004813447594642639,-0.0014551670756191015
1772699622134911200,0.7619111328125,0.0014306465163826942,0.00044303853064775467,0.0001858728937804699
1772699622144868400,0.771868408203125,0.001531640999019146,-0.0009341873228549957,0.0001954697072505951
1772699622154825500,0.781825439453125,0.0003313543274998665,-0.00138000026345253,0.0010391590185463428
1772699622164782600,0.791782470703125,-0.002534961560741067,0.0023678625002503395,0.0007150955498218536
1772699622174740200,0.801740234375,-0.0003575610462576151,0.0014000697992742062,-0.002664189785718918
1772699622184697300,0.811697265625,0.00042874948121607304,0.003104160074144602,0.0002659093588590622
1772699622194654500,0.821654541015625,-0.0017672930844128132,-0.0013268073089420795,-0.003155187238007784
1772699622204611300,0.831611328125,-0.0021883209701627493,0.003013173583894968,-0.001456085592508316
1772699622214568400,0.841568359375,0.0003041315358132124,0.0025891982950270176,-0.0003173178993165493
1772699622224525600,0.851525634765625,0.0008964198641479015,-0.000351867638528347,0.0005372161976993084
1772699622234482400,0.861482421875,0.0012591423001140356,0.001298227347433567,-0.0011038235388696194
1772699622244439300,0.871439208984375,-0.0008578258566558361,-0.0010263272561132908,-0.0016033202409744263
1772699622254396400,0.881396484375,-0.0007206730078905821,-0.0003624013625085354,0.0004417211748659611
1772699622264354600,0.8913544921875,-0.00012625684030354023,-0.00047616567462682724,0.0020181438885629177
1772699622274311400,0.9013115234375,0.003008017549291253,-0.0014623343013226986,0.0024490435607731342
1772699622284268300,0.911268310546875,-0.0015959804877638817,0.0006502661854028702,0.00009629689157009125
1772699622294225400,0.921225341796875,0.00012362259440124035,0.0004246961325407028,0.0021836827509105206
1772699622304182500,0.9311826171875,0.0003287913277745247,-0.0015566833317279816,-0.0018777947407215834
1772699622314139400,0.941139404296875,0.0009511720854789019,-0.0008094003424048424,0.0027973842807114124
1772699622324096500,0.951096435546875,0.0011375059839338064,-0.0011628223583102226,-0.0014661119785159826
1772699622334053600,0.9610537109375,-0.0011546766618266702,0.000057172030210494995,-0.00038140639662742615
1772699622344011300,0.97101123046875,-0.0001408015377819538,0.0000683879479765892,0.00020710378885269165
1772699622353968400,0.980968505859375,0.0006120740436017513,0.00011978717520833015,-0.00036520930007100105
1772699622363925500,0.990925537109375,0.0017010511364787817,-0.0005113133229315281,0.0012594601139426231
1772699622373882400,1.00088232421875,0.0014278108719736338,-0.00007508741691708565,-0.0009610834531486034
1772699622383839500,1.010839599609375,-0.0015937379794195294,-0.0014412002637982368,0.00038213515654206276
1772699622393796400,1.02079638671875,0.000353032723069191,-0.0005069635808467865,0.0031816503033041954
1772699622403753500,1.03075341796875,0.0011873806361109018,-0.0000843023881316185,-0.00017247581854462624
1772699622413710300,1.04071044921875,0.0006475578993558884,0.0012523378245532513,-0.002457468071952462
1772699622423667500,1.05066748046875,0.0006121834740042686,-0.001427170354872942,0.0012107626534998417
1772699622433625300,1.060625244140625,0.0018140680622309446,0.002251986414194107,0.0016086390241980553
1772699622443582200,1.070582275390625,-0.0009135210420936346,0.001267214771360159,-0.004297732841223478
1772699622453539300,1.080539306640625,-0.0024309903383255005,0.0016262088902294636,0.00047225458547472954
1772699622463496400,1.090496337890625,0.0007072316948324442,-0.002340127481147647,-0.0014473865740001202
1772699622473453600,1.10045361328125,-0.0005812058225274086,-0.002331605413928628,0.000007764436304569244
1772699622483410400,1.110410400390625,-0.0019030515104532242,-0.0013428893871605396,0.002817898988723755
1772699622493367600,1.120367431640625,-0.0008955777157098055,-0.0014576716348528862,0.0029465295374393463
1772699622503324400,1.130324462890625,-0.0030449535697698593,0.001117195002734661,-0.00013085315003991127
1772699622513281300,1.14028125,-0.0026313646230846643,0.002389120403677225,0.000012158416211605072
1772699622523239400,1.150239501953125,-0.0004327676724642515,0.0012142034247517586,0.00230924179777503
1772699622533196500,1.160196533203125,0.00016138353385031223,0.0028041107580065727,-0.00006310176104307175
1772699622543153400,1.1701533203125,-0.0012218994088470936,0.0015383418649435043,0.0010090991854667664
1772699622553110300,1.1801103515625,-0.0013140448136255145,-0.0019834223203361034,0.0005638189613819122
1772699622563067400,1.1900673828125,0.00029784347862005234,-0.0021084845066070557,0.0017391331493854523
1772699622573024500,1.2000244140625,0.001981760375201702,-0.0004480038769543171,-0.0017184487078338861
1772699622582981400,1.2099814453125,0.00230287853628397,-0.000335856806486845,0.0011987476609647274
1772699622592938500,1.2199384765625,0.0004860700573772192,-0.0011531813070178032,0.0016727903857827187
1772699622602895600,1.2298955078125,-0.00012759072706103325,-0.0019430946558713913,-0.00005842512473464012
1772699622612853500,1.239853515625,-0.0011971162166446447,0.0010175411589443684,-0.0013841467443853617
1772699622622810400,1.249810302734375,-0.0021403704304248095,0.0003227740526199341,0.0016917753964662552
1772699622632767500,1.259767578125,-0.0009549973765388131,0.0016072168946266174,0.0009381012059748173
1772699622642724600,1.269724609375,-0.0011184634640812874,-0.0022422722540795803,0.0030548064969480038
1772699622652681500,1.279681396484375,-0.0009120684117078781,-0.00033970968797802925,0.0003903140313923359
1772699622662638300,1.289638427734375,0.0008144010789692402,-0.000569482333958149,0.0010885722003877163
1772699622672595500,1.299595458984375,0.000629844143986702,0.00018073013052344322,-0.0016587446443736553
1772699622682552000,1.309552001953125,0.0014352286234498024,-0.0010334267280995846,0.004314035177230835
1772699622692509000,1.319509033203125,-0.000022053252905607224,0.001706699375063181,-0.0040709273889660835
1772699622702467000,1.329467041015625,-0.0020029873121529818,-0.0017731087282299995,-0.001967271324247122
1772699622712424000,1.339423828125,-0.0007909827399998903,0.00048045814037323,-0.00031318189576268196
1772699622722380800,1.349380859375,-0.002348493319004774,0.0011242073960602283,-0.000332709401845932
1772699622732338000,1.359337890625,0.0009002967271953821,0.0016427244991064072,-0.0015561655163764954
1772699622742295000,1.369294921875,0.0031002028845250607,0.0011422629468142986,-0.0009947360958904028
1772699622752252200,1.379252197265625,-0.0003858748823404312,-0.0014465958811342716,-0.0003281468525528908
1772699622762209000,1.389208984375,0.00009084353223443031,0.00016030436381697655,0.002289146650582552
1772699622772166000,1.399165771484375,-0.0019134514732286334,0.00046070897951722145,-0.0010025203227996826
1772699622782123000,1.409123046875,0.0004871315322816372,-0.0025949564296752214,-0.00035560596734285355
1772699622792081000,1.419080810546875,-0.00012379768304526806,0.00020082993432879448,-0.0025487190578132868
1772699622802038000,1.4290380859375,-0.00025037210434675217,0.0006689787842333317,0.002220775466412306
1772699622811995100,1.4389951171875,-0.0008019126253202558,0.0008311653509736061,0.0003863903693854809
1772699622821952000,1.448951904296875,-0.0018789377063512802,0.0014990190975368023,0.0002118595875799656
1772699622831908900,1.458908935546875,-0.0010408408707007766,0.001880650408565998,-0.0030486483592540026
1772699622841866000,1.468865966796875,0.0016129233408719301,0.002299658488482237,-0.00030990131199359894
1772699622851823000,1.478822998046875,-0.001805243780836463,-0.0007712324149906635,-0.0008305495139211416
1772699622861780000,1.488780029296875,-0.00019319378770887852,0.0008105211891233921,-0.004773012362420559
1772699622871737000,1.498737060546875,0.0008502327837049961,0.001403341069817543,0.0017093876376748085
1772699622881695000,1.508695068359375,0.00016196724027395248,-7.031485438346863e-7,-0.0016408641822636127
1772699622891652000,1.518652099609375,0.0015489414799958467,-0.0022438839077949524,-0.0006352544296532869
1772699622901609000,1.52860888671875,0.00013591651804745197,0.0019758460111916065,-0.00196937657892704
1772699622911566000,1.538566162109375,0.0006634886376559734,0.00007088715210556984,-0.0023163864389061928
1772699622921523200,1.548523193359375,0.0016295139212161303,0.001953834667801857,0.00008810870349407196
1772699622931479800,1.558479736328125,-0.0010783883044496179,-0.0004965402185916901,0.0015509831719100475
1772699622941437000,1.56843701171875,-0.00043058209121227264,0.0003538113087415695,0.002353364136070013
1772699622951394000,1.57839404296875,-0.001743254135362804,-0.0022172043099999428,0.0029621627181768417
1772699622961351000,1.588350830078125,-0.0007300556171685457,-0.0007296483963727951,0.0028648050501942635
1772699622971309000,1.59830908203125,-0.00043524359352886677,0.0014397627674043179,0.001399800181388855
1772699622981266000,1.608265869140625,0.0002162712626159191,-0.00011172937229275703,-0.0023156520910561085
1772699622991223000,1.61822314453125,0.0018059120047837496,-0.00004035653546452522,-0.00013345805928111076
1772699623001180000,1.628179931640625,-0.0015633238945156336,-0.00027646543458104134,0.0015502944588661194
1772699623011137000,1.638136962890625,-0.002079977188259363,-0.0008218809962272644,0.000041880179196596146
1772699623021094100,1.64809423828125,-0.0012654847232624888,-0.00037871720269322395,0.0007823980413377285
1772699623031051000,1.658051025390625,-0.00209639105014503,0.0005137082189321518,0.0017368746921420097
1772699623041007900,1.6680078125,-0.0020715976133942604,-0.001318005844950676,-0.0004951460286974907
1772699623050965000,1.677965087890625,0.001493309624493122,0.0006431457586586475,-0.0021572245750576258
1772699623060923100,1.687923095703125,-0.0015990666579455137,-0.0012258742935955524,-0.0015293662436306477
1772699623070880000,1.6978798828125,0.0006502391770482063,-0.00010068854317069054,-0.0008033884223550558
1772699623080837000,1.707837158203125,0.0026397453621029854,0.00004030345007777214,0.001582710538059473
1772699623090794000,1.7177939453125,-0.0012545951176434755,-0.00034558866173028946,0.001317725982517004
1772699623100750800,1.727750732421875,-0.0010110191069543362,-0.0013898233883082867,-0.0005592391826212406
1772699623110708000,1.7377080078125,0.0009756991639733315,0.0006301845423877239,-0.0023859015200287104
1772699623120665000,1.7476650390625,0.0008618829306215048,-0.000042695552110672,-0.0007421846967190504
1772699623130622000,1.7576220703125,0.0009843884035944939,-0.0010632192716002464,-0.0019469987601041794
1772699623140579000,1.7675791015625,-0.000800231471657753,0.0005915253423154354,-0.0001585441641509533
1772699623150536000,1.777535888671875,0.0015864935703575611,0.0015795580111443996,-0.004162074066698551
1772699623160494000,1.787494140625,-0.00028922175988554955,0.00021459674462676048,0.001681013498455286
1772699623170451000,1.797450927734375,0.0030778124928474426,-0.0014062030240893364,-0.0014623156748712063
1772699623180408000,1.807407958984375,0.0002823744434863329,0.0011911755427718163,0.0007541775703430176
1772699623190365200,1.817365234375,-0.0006547919474542141,0.0021866648457944393,-0.0019473331049084663
1772699623200321800,1.82732177734375,-0.0019433065317571163,0.0002508261241018772,0.0013131871819496155
1772699623210279000,1.83727880859375,0.0008370336145162582,-0.0005862056277692318,-0.0014205477200448513
1772699623220236000,1.847236083984375,-0.001277420436963439,-0.0011148974299430847,-0.0004337369464337826
1772699623230193000,1.85719287109375,-0.00008086208254098892,0.001365570817142725,-0.0008925998117774725
1772699623240150000,1.86714990234375,0.0005591108929365873,-0.0006195376627147198,0.0011549759656190872
1772699623250108000,1.87710791015625,0.0008925385773181915,0.00023480458185076714,0.00027879606932401657
1772699623260065000,1.88706494140625,0.0009338469244539738,0.0021910215727984905,-0.001841875957325101
1772699623270022000,1.89702197265625,0.0005077412351965904,-0.00044683925807476044,-0.0010352043900638819
1772699623279979000,1.90697900390625,0.0011486751027405262,-0.0003160480409860611,0.00045575201511383057
1772699623289936100,1.91693603515625,-0.0008050198666751385,-0.00026171980425715446,-0.00009685428813099861
1772699623299893000,1.92689306640625,0.001113604987040162,-0.0008093193173408508,-0.002223765943199396
1772699623309849900,1.936849853515625,0.0002816335763782263,0.0010381154716014862,-0.0006365219596773386
1772699623319807000,1.946806884765625,0.0017760531045496464,-0.0013508587144315243,-0.000029171351343393326
1772699623329763800,1.956763916015625,0.000033813295885920525,0.00036102114245295525,-0.0019280051346868277
1772699623339722000,1.966721923828125,0.001365963602438569,0.0035729273222386837,-0.001012924825772643
1772699623349679000,1.97667919921875,-0.0005794756580144167,-0.0006681568920612335,0.0002534082159399986
1772699623359636000,1.986635986328125,0.0023200977593660355,-0.0004414524883031845,0.002293091733008623
1772699623369592800,1.9965927734375,-0.0010533281601965427,-0.0003794007934629917,-0.0009037666022777557
1772699623379550000,2.006550048828125,-0.0007489880081266165,0.001616847701370716,-0.0013479203917086124
1772699623389507000,2.016507080078125,0.0007437136955559254,-0.0014505814760923386,0.0007234863005578518
1772699623399464000,2.0264638671875,0.0012959225568920374,-0.0023770364932715893,-0.000195386353880167
1772699623409421000,2.036421142578125,0.0010495802853256464,-0.00009310944005846977,0.0031199827790260315
1772699623419378000,2.0463779296875,-0.0011619605356827378,-0.00020785769447684288,0.000797708984464407
1772699623429336000,2.056336181640625,-0.0007526326226070523,-0.0019040252082049847,-0.0008595760446041822
1772699623439293000,2.06629296875,0.00014794361777603626,0.002588822040706873,0.001468178816139698
1772699623449250000,2.07625,-0.0002182412426918745,-0.00002001039683818817,-0.002916183089837432
1772699623459207200,2.086207275390625,0.00002524745650589466,-0.0005553960800170898,0.000034335535019636154
1772699623469163800,2.096163818359375,-0.0013089963467791677,-0.0023208055645227432,0.0015398203395307064
1772699623479121000,2.106120849609375,-0.0010504883248358965,0.0013978742063045502,-0.0009874417446553707
1772699623489078000,2.116078125,0.0011333038564771414,-0.000042895786464214325,-0.0010462976060807705
1772699623499035000,2.126034912109375,0.001793998060747981,0.0015309425070881844,-0.000012227334082126617
1772699623508992000,2.135991943359375,0.00086215790361166,0.00048298854380846024,0.0013771438971161842
1772699623518950000,2.145949951171875,0.0009708763100206852,0.0019053518772125244,0.00041064992547035217
1772699623528907000,2.155906982421875,0.0007852541748434305,-0.0011676698923110962,-0.00009401887655258179
1772699623538863900,2.16586376953125,0.0004009541589766741,-0.0009366758167743683,-0.0014063955750316381
1772699623548821000,2.175821044921875,-0.0020158644765615463,-0.0004162942059338093,-0.003654635976999998
1772699623558778000,2.185778076171875,0.002515936503186822,-0.0024501774460077286,0.0017130281776189804
1772699623568735000,2.19573486328125,-0.000863881316035986,-0.0014014248736202717,-0.0015554693527519703
1772699623578691800,2.20569189453125,0.002083812141790986,-0.0000336342491209507,-0.0027710082940757275
1772699623588649000,2.21564892578125,-0.000424086581915617,0.0006462708115577698,-0.0025742007419466972
1772699623598606000,2.225606201171875,0.00020545301958918571,0.00176628353074193,0.003563191741704941
1772699623608563000,2.23556298828125,0.0010097275953739882,-0.0010848967358469963,0.0012102886103093624
1772699623618521000,2.24552099609375,0.002054274780675769,0.00003701820969581604,-0.001706784125417471
1772699623628478000,2.25547802734375,0.0017679848242551088,0.00021092267706990242,0.0034211319871246815
1772699623638434800,2.265434814453125,0.0004382147453725338,0.0006483551114797592,-0.0004398077726364136
1772699623648392000,2.275391845703125,-0.0008851098828017712,-0.0013908273540437222,0.0012161456979811192
1772699623658349000,2.28534912109375,-0.00002947612665593624,-0.0005195746198296547,-0.0023178395349532366
1772699623668306200,2.29530615234375,-0.0009613160509616137,-0.0028951142448931932,0.00043214065954089165
1772699623678263000,2.305262939453125,0.00020482251420617104,-0.0010167923755943775,-0.0012538975570350885
1772699623688220000,2.315219970703125,-0.002169385552406311,-0.0005091940984129906,0.0020582759752869606
1772699623698177000,2.325177001953125,-0.0003111623227596283,-0.0016321539878845215,0.0005738828331232071
1772699623708135000,2.335135009765625,-0.0010049159172922373,0.00006614392623305321,-0.0024884860031306744
1772699623718092000,2.345092041015625,-0.0032400733325630426,0.0004182928241789341,-0.0020788495894521475
1772699623728049200,2.355049072265625,-0.0018698768690228462,0.0007139034569263458,-0.0030280002392828465
1772699623738005800,2.365005859375,-0.0009939480805769563,-0.00002917042002081871,0.00106904748827219
1772699623747963000,2.374962890625,0.002697991905733943,-0.0023903287947177887,-0.002694531809538603
1772699623757920000,2.384919921875,0.0008225867059081793,0.00041328882798552513,-0.0038035213947296143
1772699623767877000,2.394877197265625,-0.00029194634407758713,-0.0013550501316785812,-0.0010636614169925451
1772699623777834000,2.404833984375,0.0017244264017790556,-0.0011551529169082642,-0.00012528849765658379
1772699623787791000,2.414791015625,-0.0022503414656966925,0.0013839048333466053,-0.0018222546204924583
1772699623797749000,2.4247490234375,0.003019393887370825,-0.001383241731673479,-0.0005478288512676954
1772699623807705900,2.434705810546875,-0.00243928749114275,-0.0008295704610645771,-0.0003494233824312687
1772699623817663000,2.4446630859375,-0.0010345877381041646,0.00008238805457949638,-0.0015222658403217793
1772699623827620000,2.4546201171875,0.0003364074509590864,-0.0016782274469733238,-0.00035553472116589546
1772699623837577200,2.4645771484375,0.002639060840010643,-0.0017466875724494457,0.0022133570164442062
1772699623847533800,2.474533935546875,-0.0022022996563464403,0.0010427073575556278,-0.0014394347090274096
1772699623857491000,2.484490966796875,-0.002549875294789672,0.0008813478052616119,-0.00046440865844488144
1772699623867448000,2.494447998046875,0.001249124063178897,0.001702666748315096,0.00007647927850484848
1772699623877405000,2.504405029296875,-0.003106476040557027,0.000857912003993988,-0.0008942431304603815
1772699623887363000,2.514363037109375,-0.002841757843270898,-0.00025768624618649483,0.0008874116465449333
1772699623897320000,2.52431982421875,0.00006880471482872963,0.0031911288388073444,-0.0019505484960973263
1772699623907277000,2.534277099609375,-0.0008622363675385714,0.00033595412969589233,-0.0004245573654770851
1772699623917234000,2.54423388671875,0.0010190010070800781,0.0009315977804362774,0.0003117048181593418
1772699623927191000,2.55419091796875,-0.002435651607811451,0.00261578056961298,0.00017987843602895737
1772699623937148200,2.564148193359375,0.0006680230144411325,-0.0003296635113656521,0.0022013462148606777
1772699623947105000,2.57410498046875,0.0005484470166265965,0.0001406506635248661,0.003619479015469551
1772699623957062000,2.584061767578125,-0.001951295416802168,0.0018402226269245148,-0.0012271206360310316
1772699623967019000,2.59401904296875,-0.00073822564445436,-0.0010679494589567184,-0.0014020903035998344
1772699623976976000,2.603975830078125,-0.0014416769845411181,0.001340316142886877,0.00019876845180988312
1772699623986934000,2.61393408203125,0.0012055051047354937,0.002281744033098221,0.00038838572800159454
1772699623996891100,2.62389111328125,0.001238557742908597,0.002813465427607298,-0.0005748781841248274
1772699624006848000,2.633847900390625,-0.0011774621671065688,0.0023900228552520275,-0.0027381638064980507
1772699624016804900,2.643804931640625,-0.001093850820325315,-0.0006475024856626987,0.002437463030219078
1772699624026762000,2.653761962890625,-0.0004006300587207079,-0.00022166315466165543,-0.0045972769148647785
1772699624036719000,2.663718994140625,-0.0004916200414299965,0.0006636674515902996,0.005290389060974121
1772699624046676000,2.673676025390625,-0.0009171931305900216,-0.0009677852503955364,0.0009531648829579353
1772699624056633000,2.683633056640625,-0.0014818398049101233,-0.0009265998378396034,-0.00008468469604849815
1772699624066590000,2.69358984375,0.0014079564716666937,-0.00039529940113425255,0.002536664716899395
1772699624076548000,2.703548095703125,-0.0021597661543637514,-0.0015421160496771336,-0.0010782312601804733
1772699624086505000,2.7135048828125,-0.0008755899034440517,-0.0034484067000448704,-0.004259110894054174
1772699624096462000,2.723462158203125,-0.00040604756213724613,0.0011711372062563896,-0.0009028417989611626
1772699624106419200,2.733419189453125,0.00073644844815135,0.0018776743672788143,-0.002566518262028694
1772699624116375800,2.743375732421875,0.001748264767229557,0.000825902447104454,-0.002057419391348958
1772699624126333000,2.7533330078125,0.002062251791357994,-0.0004015485756099224,0.002011091448366642
1772699624136290000,2.7632900390625,-0.0007287263870239258,0.002297661267220974,0.0009750090539455414
1772699624146247000,2.773246826171875,0.0008076513186097145,0.00036607030779123306,0.0008764723315834999
1772699624156204000,2.7832041015625,0.0026318905875086784,0.0004557529464364052,0.0007795053534209728
1772699624166162000,2.793161865234375,0.0011754080187529325,0.0013745436444878578,-0.0026061716489493847
1772699624176119000,2.803119140625,0.00025212159380316734,-0.0016838498413562775,-0.00020597642287611961
1772699624186076000,2.813075927734375,0.0002683668863028288,0.0005393568426370621,0.0013730116188526154
1772699624196033000,2.823032958984375,-0.0008358153281733394,-0.00045010773465037346,0.0000214441679418087
1772699624205990100,2.832990234375,0.0015682200901210308,-0.0018075206317007542,-0.0008142557926476002
1772699624215947000,2.842947021484375,0.003054568776860833,0.0003610355779528618,-0.00045344000682234764
1772699624225903900,2.85290380859375,0.0010875577572733164,-0.002294935053214431,0.0008882605470716953
1772699624235861000,2.862861083984375,0.0016509306151419878,0.001028250902891159,-0.0018010619096457958
1772699624245817900,2.87281787109375,0.0008461233228445053,0.000775516964495182,-0.002616788260638714
1772699624255775000,2.88277490234375,0.0017290497198700905,0.0005951137281954288,0.0026718387380242348
1772699624265733000,2.892733154296875,-0.0012062863679602742,0.0009746141731739044,0.0016193571500480175
1772699624275690000,2.90268994140625,0.0006817460525780916,0.001382103655487299,-0.0002390388399362564
1772699624285646800,2.912646728515625,0.002363798674196005,-0.0011377795599400997,0.000014760531485080719
1772699624295604000,2.92260400390625,-0.00001112581230700016,-0.0007379860617220402,0.004013518802821636
1772699624305561000,2.93256103515625,-0.00044974847696721554,0.0025542136281728745,-0.000027295667678117752
1772699624315518000,2.94251806640625,0.0009682588279247284,0.00024756090715527534,0.0005545113235712051
1772699624325475000,2.95247509765625,-0.0008980844868347049,0.001792727503925562,0.002141222357749939
1772699624335432000,2.962431884765625,-0.002347698900848627,-0.0004757666029036045,0.0009704921394586563
1772699624345388800,2.972388916015625,0.0007074794266372919,-0.0023386478424072266,0.00022880174219608307
1772699624355347000,2.982346923828125,0.00036843400448560715,0.0006429580971598625,0.0022730249911546707
1772699624365304000,2.992303955078125,-0.0008912411285564303,0.0013795886188745499,-0.0006524575874209404
1772699624375261200,3.00226123046875,-0.00006511155515909195,-0.000676499679684639,0.001217832788825035
1772699624385217800,3.0122177734375,-0.0001292938832193613,0.0018284698016941547,0.0013216962106525898
1772699624395175000,3.0221748046875,0.002702575409784913,-0.0009333537891507149,0.0018912702798843384
1772699624405132000,3.032132080078125,0.00014088070020079613,-0.0005264226347208023,0.0024199075996875763
1772699624415089000,3.0420888671875,0.0004849086981266737,0.0006700535304844379,-0.0014012106694281101
1772699624425046000,3.0520458984375,0.0002875684294849634,0.0033473288640379906,0.0016891215927898884
1772699624435003100,3.062003173828125,0.0016316052060574293,-0.0007862239144742489,0.001690092496573925
1772699624444960000,3.0719599609375,-0.0009519275045022368,0.001623404212296009,-0.0002172635868191719
1772699624454918000,3.08191796875,-0.00020921183750033379,0.0005550184287130833,-0.0023382457438856363
1772699624464875000,3.091875,0.00023526977747678757,-0.001995757222175598,0.0013257311657071114
1772699624474832100,3.10183203125,0.0004849005490541458,-0.002026371657848358,-0.0021589112002402544
1772699624484789000,3.1117890625,-0.0016877062153071165,-0.0003720158711075783,-0.001969293924048543
1772699624494745900,3.121745849609375,0.0010837458539754152,0.0018069567158818245,0.00015798723325133324
1772699624504703000,3.131702880859375,0.00012713856995105743,-0.000525173731148243,-0.0000052647665143013
1772699624514659800,3.141659912109375,0.0010100952349603176,-0.00028328271582722664,-0.0013633251655846834
1772699624524617000,3.151616943359375,0.00024576811119914055,0.0022906623780727386,-0.0009164467919617891
1772699624534574000,3.161573974609375,-0.0007703168084844947,-0.0008924780413508415,0.0009810463525354862
1772699624544532000,3.171531982421875,0.0008728534448891878,0.0009613484144210815,0.0024247458204627037
1772699624554488800,3.18148876953125,-0.0005688134115189314,0.001664267387241125,-0.004361276980489492
1772699624564446000,3.191446044921875,0.004132464993745089,0.0005992692895233631,0.0020047430880367756
1772699624574403000,3.201403076171875,0.002711294684559107,-0.0020344676449894905,0.000235747080296278
1772699624584360000,3.21135986328125,-0.0016893127467483282,-0.0019247452728450298,0.002115406095981598
1772699624594317000,3.221317138671875,-0.0006469255313277245,-0.0010242187418043613,0.0004516802728176117
1772699624604274000,3.23127392578125,0.0006210054270923138,-0.0005171527154743671,0.00046739261597394943
1772699624614231000,3.24123095703125,0.0021739224903285503,-0.000543567817658186,0.001348244957625866
1772699624624188000,3.25118798828125,0.0016431543044745922,-0.0023782197386026382,-0.0005063803400844336
1772699624634146000,3.26114599609375,-0.0004643234424293041,0.0015246039256453514,0.0013594971969723701
1772699624644103200,3.271103271484375,0.0009301076643168926,0.0020742807537317276,0.000323261134326458
1772699624654059800,3.281059814453125,0.004098597913980484,-0.0007489840500056744,0.0020559998229146004
1772699624664017000,3.291016845703125,-8.058268576860428e-7,0.0011519803665578365,0.0015127151273190975
1772699624673974000,3.30097412109375,0.000658383360132575,0.0021666833199560642,-0.003682186361402273
1772699624683930600,3.3109306640625,0.0014549349434673786,-0.0008898265659809113,0.002044941298663616
1772699624693887700,3.3208876953125,-0.001397537300363183,-0.0008442508988082409,0.0006118612363934517
1772699624703844900,3.330844970703125,0.0004895785823464394,-0.00010762084275484085,-0.002968758810311556
1772699624713802000,3.340802001953125,-0.0010097636841237545,-0.0013737361878156662,-0.0008348661940544844
1772699624723758600,3.350758544921875,-0.0008537024259567261,0.00008967099711298943,-0.0031448921654373407
1772699624733716700,3.360716796875,0.002108659129589796,0.00004596728831529617,-0.00004697078838944435
1772699624743673900,3.370673828125,-0.0006596969906240702,0.0030180546455085278,-0.0010003824718296528
1772699624753630700,3.380630615234375,-0.0008149874629452825,-0.001141219399869442,0.0026125386357307434
1772699624763587800,3.390587890625,0.001262278063222766,-0.001655209343880415,0.00006256159394979477
1772699624773544700,3.400544677734375,-0.0009821993298828602,0.0013128952123224735,0.0008760625496506691
1772699624783501800,3.410501708984375,-0.0011025741696357727,0.003263127524405718,0.00033197877928614616
1772699624793458700,3.420458740234375,0.0013951689470559359,-0.0001577320508658886,0.0013968907296657562
1772699624803415800,3.430415771484375,0.0020934499334543943,-0.001129519660025835,-0.002090784953907132
1772699624813373000,3.440373046875,0.0007534490432590246,-0.000029150862246751785,0.0029591270722448826
1772699624823330600,3.45033056640625,-0.002658859360963106,-0.001618791837245226,0.0019841440953314304
1772699624833287700,3.46028759765625,0.0022179423831403255,0.00004319706931710243,-0.0001800605095922947
1772699624843244800,3.470244873046875,-0.0019096906762570143,-0.000642034225165844,0.0007259468547999859
1772699624853201700,3.48020166015625,-0.000755965942516923,-0.000774796586483717,-0.001075261039659381
1772699624863158800,3.49015869140625,-0.0009397240355610847,-0.00029995525255799294,-0.0002946886233985424
1772699624873116000,3.500115966796875,0.0004929946735501289,0.0010253931395709515,0.00399950984865427
1772699624883072800,3.51007275390625,-0.0005546929314732552,0.0005295122973620892,-0.0003387792967259884
1772699624893029600,3.520029541015625,0.000274282181635499,0.0014694994315505028,-0.0009935218840837479
1772699624902986800,3.52998681640625,0.0001328682992607355,0.001385609619319439,-0.0011354682501405478
1772699624912943900,3.53994384765625,0.0004920740611851215,-0.0014789039269089699,-0.00018145842477679253
1772699624922901500,3.549901611328125,-0.0008213968249037862,-0.0011342912912368774,-0.001640604343265295
1772699624932858600,3.559858642578125,-0.0012874944368377328,0.0005920492112636566,0.00009686360135674477
1772699624942815700,3.569815673828125,-0.0007455411832779646,-0.00210999371483922,-0.0000687846913933754
1772699624952772900,3.57977294921875,-0.0018341878894716501,0.0009121070615947247,-0.0025885128416121006
1772699624962729700,3.589729736328125,0.00010699033737182617,0.00046922359615564346,-0.0018873026128858328
1772699624972686800,3.599686767578125,-0.002110541332513094,0.0027778171934187412,-0.0026562591083347797
1772699624982644000,3.60964404296875,0.0017526403535157442,0.0008880384266376495,-0.0011670193634927273
1772699624992600600,3.6196005859375,-0.0013557015918195248,0.0032337787561118603,-0.0012937176506966352
1772699625002557700,3.6295576171875,0.0007777567952871323,-0.0003305962309241295,0.001990758813917637
1772699625012514800,3.639514892578125,-0.0020011726301163435,-0.0004964582622051239,-0.0019995260518044233
1772699625022473000,3.649472900390625,0.0008838297799229622,0.002148060593754053,-0.002260249573737383
1772699625032429600,3.6594296875,0.0007761812303215265,-0.0008763819932937622,0.0026778988540172577
1772699625042386700,3.66938671875,0.0024843330029398203,0.00024134665727615356,-0.0009940676391124725
1772699625052343800,3.67934375,-0.0013430868275463581,0.00036746030673384666,-0.0008609476499259472
1772699625062300700,3.68930078125,0.0017536371015012264,-0.0006535956636071205,0.0005284235812723637
1772699625072257800,3.6992578125,0.00014301692135632038,-0.002279525389894843,0.00036252522841095924
1772699625082215000,3.70921484375,-0.0021089520305395126,-0.00142571609467268,-0.00041751470416784286
1772699625092171800,3.719171875,-0.0014128099428489804,-0.0005870060995221138,-0.0021047485060989857
1772699625102128600,3.729128662109375,0.0001339539885520935,0.00024443259462714195,-0.0009276312775909901
1772699625112086800,3.739086669921875,0.00037190387956798077,-0.0009957603178918362,0.0001720772124826908
1772699625122044000,3.7490439453125,-0.000045679742470383644,0.0026722117327153683,-0.0019331513904035091
1772699625132000800,3.759000732421875,-0.0012204204685986042,-0.00008531706407666206,-0.0006762880366295576
1772699625141957600,3.76895751953125,-0.0008979116100817919,0.00020416872575879097,-0.00033220788463950157
1772699625151914800,3.778914794921875,-0.0004893301520496607,-0.0033175882417708635,-0.0005387894343584776
1772699625161871600,3.78887158203125,-0.002093351911753416,-0.0007484368979930878,-0.0008482488337904215
1772699625171828700,3.798828857421875,0.003232496790587902,-0.0016802488826215267,-0.0010475267190486193
1772699625181785900,3.808785888671875,-0.0013286990579217672,-0.001546557992696762,0.002785028424113989
1772699625191742700,3.81874267578125,-0.0009078590665012598,-0.0002633766271173954,-0.0005608880892395973
1772699625201700600,3.82870068359375,-0.0020322457421571016,0.0006942963227629662,0.0021323668770492077
1772699625211657700,3.83865771484375,-0.0020508351735770702,-0.0005485429428517818,-0.001962639857083559
1772699625221614800,3.84861474609375,0.0022685457952320576,-0.0028476498555392027,0.004723226185888052
1772699625231571700,3.85857177734375,-0.0011066317092627287,0.0005767066031694412,-0.0005252906121313572
1772699625241528800,3.86852880859375,-0.0006509649101644754,0.0011290465481579304,0.0030124527402222157
1772699625251486000,3.87848583984375,0.0027340524829924107,0.00015139998868107796,-0.0008227897342294455
1772699625261442600,3.888442626953125,-0.0010012970305979252,-0.0004997430369257927,-0.0006411622744053602
1772699625271399700,3.898399658203125,-0.0008850739104673266,0.000003201887011528015,0.00045397598296403885
1772699625281356800,3.908356689453125,0.0014531814958900213,0.0007267827168107033,-0.0015346063300967216
1772699625291313700,3.918313720703125,0.0013804133050143719,0.001327749341726303,-0.0011928004678338766
1772699625301271600,3.928271484375,-0.00045556994155049324,0.0019397442229092121,0.0030677244067192078
1772699625311228700,3.938228759765625,0.00015256251208484173,-0.00150320865213871,-0.0015325210988521576
1772699625321185800,3.948185791015625,-0.0009494535624980927,0.001432660035789013,-0.0018779330421239138
1772699625331142700,3.958142578125,-0.00037077744491398335,-0.0012529948726296425,0.0012177764438092709
1772699625341099800,3.968099853515625,0.0009040776640176773,-0.0002809413708746433,0.00046836305409669876
1772699625351057000,3.978056884765625,0.000187380937859416,-0.0007190392352640629,-0.0034632524475455284
1772699625361013800,3.988013671875,-0.00045071239583194256,-0.0024482295848429203,-0.0002608015201985836
1772699625370970600,3.997970703125,-0.0008226463105529547,-0.0017228485085070133,0.00120197469368577
1772699625380927700,4.007927734375,-0.0026972454506903887,-0.00022135814651846886,0.001013423316180706
1772699625390884600,4.017884521484375,-0.0013078548945486546,0.002339038997888565,0.0022743158042430878
1772699625400842800,4.0278427734375,-0.000021281884983181953,0.00039200158789753914,-0.00009722914546728134
1772699625410799600,4.037799560546875,0.00012324494309723377,-0.0032667506020516157,-0.002309679053723812
1772699625420756700,4.0477568359375,0.0003746473230421543,-0.0016041393391788006,-0.0006952707190066576
1772699625430713600,4.057713623046875,0.00022489135153591633,0.0000820038840174675,0.0035873865708708763
1772699625440670700,4.067670654296875,0.00010238587856292725,-0.0015414594672620296,0.00012847315520048141
1772699625450627800,4.0776279296875,-0.001682416652329266,0.002517472952604294,-0.0004064571112394333
1772699625460584700,4.087584716796875,-0.0007071669679135084,0.0006543248891830444,-0.002374533098191023
1772699625470541800,4.097541748046875,0.0006740919779986143,0.00011620810255408287,-0.0019652002956718206
1772699625480498700,4.107498779296875,0.0013558613136410713,0.00022406643256545067,-0.00037422776222229004
1772699625490456800,4.117456787109375,0.0007948749698698521,0.00037542684003710747,0.0015046796761453152
1772699625500413700,4.12741357421875,-0.0031452716793864965,0.002549897413700819,0.0002687065862119198
1772699625510370800,4.137370849609375,0.0006400924175977707,0.0006452524103224277,-0.0019184511620551348
1772699625520327700,4.14732763671875,-0.0008022754918783903,-0.00042906682938337326,-0.0016271013300865889
1772699625530284500,4.157284423828125,-0.0015673467423766851,-0.00041194166988134384,-0.002360602607950568
1772699625540241700,4.16724169921875,-0.0019015735015273094,-0.000032973941415548325,-0.002155006630346179
1772699625550198800,4.17719873046875,0.0012540924362838268,0.0009490563534200191,-0.0015370661858469248
1772699625560155600,4.18715576171875,-0.0018740566447377205,0.00010217074304819107,-0.00027952156960964203
1772699625570112800,4.19711279296875,0.0003777323290705681,-0.00027252640575170517,0.001455842051655054
1772699625580070000,4.20706982421875,0.00018598465248942375,-0.00004855496808886528,-0.0005678939633071423
1772699625590027800,4.21702783203125,0.0006913130637258291,-0.0008862032555043697,-0.0006478393916040659
1772699625599984600,4.226984619140625,0.0008252700790762901,0.000060284044593572617,-0.001361566362902522
1772699625609941800,4.236941650390625,-0.0007502647349610925,-0.0009752316400408745,-0.002366745611652732
1772699625619899000,4.24689892578125,-0.0008243005722761154,0.002109508030116558,-0.0011044072452932596
1772699625629855700,4.256855712890625,0.0008796043694019318,-0.0004999637603759766,0.0015490246005356312
1772699625639812600,4.2668125,0.00018025818280875683,0.0012936750426888466,0.0011498169042170048
1772699625649769700,4.276769775390625,-0.0014866940909996629,0.00047314492985606194,-0.0004109283909201622
1772699625659726800,4.286726806640625,0.0005471620243042707,-0.0003915834240615368,-0.002023739041760564
1772699625669683700,4.29668359375,0.0013911251444369555,0.0013078791089355946,-0.0008229275699704885
1772699625679641600,4.3066416015625,-0.0018930851947516203,0.0016740639694035053,0.00045032985508441925
1772699625689600500,4.3166005859375,0.0019568700809031725,0.002134377136826515,0.0008810623548924923
1772699625699557400,4.326557373046875,0.002538504311814904,0.0022939005866646767,0.00030102580785751343
1772699625709514500,4.336514404296875,0.003856832394376397,-0.0009095920249819756,0.0013476796448230743
1772699625719471400,4.346471435546875,-0.0006002341397106647,0.0014190762303769588,-0.0029711686074733734
1772699625729428200,4.35642822265625,-0.001047721947543323,-0.00007512141019105911,-0.002609357237815857
1772699625739385300,4.36638525390625,-0.00208582216873765,-0.00007485505193471909,0.0034418771974742413
1772699625749342500,4.376342529296875,0.0014025396667420864,0.0005348986014723778,0.0026059644296765327
1772699625759299300,4.38629931640625,0.0012960131280124187,0.002817493863403797,-0.0011466958094388247
1772699625769256400,4.39625634765625,-0.0003004733007401228,0.0017418833449482918,0.00022419122979044914
1772699625779214300,4.40621435546875,-0.0014815853210166097,0.0022486820816993713,-0.000933218514546752
1772699625789171500,4.41617138671875,-0.0014405209803953767,0.0009787618182599545,-0.000664855120703578
1772699625799128300,4.42612841796875,-0.0013217440573498607,0.002431249711662531,0.0013921703211963177
1772699625809085400,4.43608544921875,0.0004711973015218973,-0.0019516590982675552,0.00038091791793704033
1772699625819042600,4.44604248046875,-0.001121905748732388,0.002487830352038145,-0.0003812788054347038
1772699625828999200,4.455999267578125,0.0006277468055486679,0.0007012290880084038,0.0006705252453684807
1772699625838956300,4.465956298828125,0.0016235026996582747,-0.0003411322832107544,0.001395171508193016
1772699625848913400,4.475913330078125,0.001332171494141221,-0.00009399931877851486,0.0009922613389790058
1772699625858870300,4.485870361328125,-0.001810092362575233,0.0007230588234961033,0.0032258545979857445
1772699625868827400,4.495827392578125,-0.00018940377049148083,0.000490015372633934,0.0012604626826941967
1772699625878785300,4.505785400390625,-0.0010496048489585519,0.0009784391149878502,-0.0000530085526406765
1772699625888742400,4.515742431640625,-0.00021372362971305847,0.002410330343991518,-0.001633504405617714
1772699625898699300,4.52569921875,0.00006111455149948597,-0.0008717491291463375,0.0005103400908410549
1772699625908656400,4.535656494140625,-0.0004277171101421118,-0.002246126066893339,-0.000003708992153406143
1772699625918613500,4.545613525390625,-0.0001683251466602087,-0.0015891240909695625,0.0006421073339879513
1772699625928570400,4.5555703125,0.0003928577061742544,-0.0009392942301928997,0.0014013857580721378
1772699625938527200,4.56552734375,0.0010930027347058058,-0.0009574037976562977,0.004407029133290052
1772699625948484400,4.575484375,-0.0003638302441686392,0.0013457373715937138,-0.001981996465474367
1772699625958441200,4.585441162109375,-0.000973427901044488,-0.00007665716111660004,0.0017549511976540089
1772699625968398300,4.5953984375,0.000642130384221673,-0.00042252661660313606,0.001367348711937666
1772699625978356500,4.6053564453125,0.0011819531209766865,-0.00014635687693953514,0.000795567873865366
1772699625988313300,4.615313232421875,0.0008089612238109112,-0.0019471123814582825,-0.00032516149803996086
1772699625998270200,4.625270263671875,-0.0007484554080292583,-0.0015918463468551636,-0.00042076921090483665
1772699626008227300,4.635227294921875,0.0009332788176834583,0.001903243362903595,-0.0006194526795297861
1772699626018184400,4.645184326171875,0.0005553762894123793,0.0003926982171833515,-0.002629340160638094
1772699626028141300,4.655141357421875,-0.0009878581622615457,-0.0013578576035797596,0.001176580786705017
1772699626038098400,4.665098388671875,0.001378892920911312,-0.0009426707401871681,0.00092278141528368
1772699626048055300,4.67505517578125,0.0011856292840093374,-0.0002082614228129387,-0.0006370032206177711
1772699626058012400,4.685012451171875,0.0021675366442650557,0.00024021463468670845,0.0010362607426941395
1772699626067970300,4.69497021484375,0.0019236314110457897,0.0011804909445345402,0.0007419637404382229
1772699626077927400,4.704927490234375,-0.0035904436372220516,0.0005519851110875607,-0.00016937032341957092
1772699626087884500,4.714884521484375,-0.0006224246462807059,0.0010301549918949604,0.001190385315567255
1772699626097841200,4.724841064453125,-0.0001718178391456604,0.0004029804840683937,-0.0004980589728802443
1772699626107798300,4.73479833984375,0.00033830897882580757,-0.0002841600216925144,0.0010835397988557816
1772699626117755400,4.74475537109375,-0.000009233597666025162,0.0025808685459196568,-0.0024342299439013004
1772699626127712500,4.75471240234375,-0.0015310115413740277,0.0023128162138164043,-0.0018948640208691359
1772699626137669400,4.76466943359375,0.00028393277898430824,0.0016909684054553509,-0.0009864596650004387
1772699626147626500,4.77462646484375,-0.0015557141741737723,-0.00004683667793869972,0.0005797478370368481
1772699626157583400,4.784583251953125,0.00012633833102881908,-0.0035395724698901176,-0.00008417805656790733
1772699626167541200,4.794541259765625,-0.0018244287930428982,-0.0004133046604692936,0.00013986602425575256
1772699626177498400,4.804498291015625,-0.0031994187738746405,0.0010234708897769451,-0.00048597692511975765
1772699626187455500,4.81445556640625,-0.0019706119783222675,0.0011115665547549725,-0.0008690140675753355
1772699626197412400,4.824412353515625,-0.0007657980313524604,-0.0010985909029841423,-0.0015792790800333023
1772699626207369200,4.834369140625,0.0010908141266554594,0.0002957410179078579,0.0012594806030392647
1772699626217326300,4.844326416015625,-0.0003630055580288172,-0.00008349306881427765,-0.0016087437979876995
1772699626227283500,4.854283447265625,0.00044430862180888653,0.0010251724161207676,-0.0004417351447045803
1772699626237240300,4.864240234375,0.0007204783614724874,0.001425179187208414,0.0020302110351622105
1772699626247197400,4.874197509765625,-0.0001598387025296688,0.002682644873857498,-0.002992738503962755
1772699626257154600,4.884154541015625,-0.0009385469602420926,0.00018992647528648376,-0.001748509705066681
1772699626267112200,4.8941123046875,0.00029600970447063446,-0.0003891242668032646,0.003278371412307024
1772699626277069300,4.9040693359375,-0.0012238562339916825,0.0007592304609715939,-0.00002607842907309532
1772699626287026400,4.9140263671875,-0.0007578966906294227,-0.0012509538792073727,-0.0012361174449324608
1772699626296983600,4.923983642578125,0.0007052440196275711,0.0011320426128804684,-0.0014734051655977964
1772699626306940400,4.9339404296875,-0.0005787122063338757,-0.002029064577072859,0.0005003614351153374
1772699626316897300,4.943897216796875,-0.00009987573139369488,0.000985900405794382,0.0032330313697457314
1772699626326854400,4.9538544921875,0.00047673447988927364,-0.0010952972806990147,-0.00043346919119358063
1772699626336811300,4.963811279296875,0.0010935226455330849,-0.001993847545236349,0.0022129137068986893
1772699626346768400,4.973768310546875,0.00017915619537234306,-0.0010646623559296131,0.0007465165108442307
1772699626356726500,4.9837265625,-0.0030978634022176266,-0.0020465697161853313,0.0023183138109743595
1772699626366683400,4.993683349609375,-0.00033093057572841644,0.0012943833135068417,0.00013910653069615364
1772699626376640300,5.00364013671875,0.00036628497764468193,0.00006213877350091934,0.0001111435703933239
1772699626386597400,5.013597412109375,-0.0019196164794266224,-0.0001399712637066841,0.0016282210126519203
1772699626396554500,5.023554443359375,0.00014806189574301243,0.0010041231289505959,-0.0003094952553510666
1772699626406511400,5.033511474609375,-0.0022413998376578093,-0.0008275923319160938,0.0007352204993367195
1772699626416468500,5.043468505859375,-0.0019825405906885862,-0.000052080024033784866,-0.000897297402843833
1772699626426425300,5.05342529296875,0.0009342995472252369,-0.0013815434649586678,0.0011777873151004314
1772699626436382200,5.06338232421875,-0.00044868001714348793,0.0009338092058897018,-0.0016369074583053589
1772699626446339300,5.07333935546875,0.002207546727731824,-0.00148741714656353,-0.00016395468264818192
1772699626456296400,5.08329638671875,0.0016011449042707682,-0.0013017947785556316,-0.00016715051606297493
1772699626466254600,5.093254638671875,-0.000364543404430151,0.0007039159536361694,-0.00030635809525847435
1772699626476211200,5.103211181640625,0.0011659753508865833,-0.000024458393454551697,0.0010918010957539082
1772699626486168300,5.113168212890625,0.002846031216904521,-0.0008061430417001247,0.0008953805081546307
1772699626496125400,5.12312548828125,0.00256852968595922,-0.0022780722938477993,0.002482092007994652
1772699626506082300,5.133082275390625,-0.0010093144373968244,-0.0017971820197999477,-0.00023391097784042358
1772699626516039400,5.143039306640625,0.0009976436849683523,-0.0018403250724077225,0.000999931711703539
1772699626525996500,5.15299658203125,-0.00016596424393355846,-0.0005186246708035469,0.002184642944484949
1772699626535953400,5.162953369140625,-0.0006216310430318117,0.00016420986503362656,-0.0016596298664808273
1772699626545910300,5.17291015625,0.0006012578960508108,0.0008715586736798286,0.0006155306473374367
1772699626555868400,5.182868408203125,0.00018287519924342632,-0.0006938474252820015,-0.0014462885446846485
1772699626565825500,5.192825439453125,0.0003136405721306801,0.0012149671092629433,-0.0009626222308725119
1772699626575782400,5.202782470703125,0.0005618471186608076,-0.0003672167658805847,0.001309586688876152
1772699626585739300,5.2127392578125,-0.000021508196368813515,-0.0005148928612470627,0.0006530322134494781
1772699626595696400,5.2226962890625,0.00007276772521436214,-0.0008754846639931202,0.0024232352152466774
1772699626605653200,5.2326533203125,0.0003021268639713526,0.0002773888409137726,-0.0005786349065601826
1772699626615610400,5.2426103515625,-0.0003719192463904619,-0.002157805487513542,0.0005060704424977303
1772699626625567500,5.2525673828125,0.0013015747535973787,-0.0021087932400405407,0.002287867944687605
1772699626635524400,5.2625244140625,0.001001969212666154,-0.0032036188058555126,0.004962214268743992
1772699626645481500,5.2724814453125,-0.0018915054388344288,0.0030831429176032543,-0.002321115229278803
1772699626655439400,5.282439453125,0.0019298645202070475,-0.0012194598093628883,-0.002104067476466298
1772699626665396500,5.292396484375,-0.0019967062398791313,-0.0009515606798231602,0.0006453478708863258
1772699626675353300,5.302353271484375,0.0006744442507624626,0.0025345170870423317,0.0012208567932248116
1772699626685309700,5.312309814453125,0.0012183545622974634,-0.0007582437247037888,-0.0017965235747396946
1772699626695266600,5.3222666015625,0.0019200975075364113,0.0016545802354812622,0.001817918848246336
1772699626705223700,5.3322236328125,-0.0009933855617418885,-0.00036658812314271927,0.003628220409154892
1772699626715180500,5.3421806640625,0.0012378108222037554,-0.0023716820869594812,-0.0009673298336565495
1772699626725137400,5.352137451171875,-0.00113092758692801,0.00243036774918437,0.00006232736632227898
1772699626735094500,5.362094482421875,-0.001006025355309248,0.0011248858645558357,0.000010662246495485306
1772699626745051600,5.3720517578125,0.0015263466630131006,0.0005171103402972221,0.0011618109419941902
1772699626755009500,5.382009521484375,-0.0005903337150812149,0.0012556049041450024,-0.0013250489719212055
1772699626764966400,5.39196630859375,0.0004022689536213875,0.000622075516730547,0.00035558920353651047
1772699626774923500,5.401923583984375,-0.0006238471250981092,0.000924078281968832,0.0010757078416645527
1772699626784880600,5.411880615234375,-0.0013982808450236917,0.00229434622451663,-0.0027988883666694164
1772699626794837500,5.42183740234375,0.0007122743409126997,-0.0035350474063307047,0.0023167775943875313
1772699626804794600,5.431794677734375,0.000660404097288847,-0.0020182430744171143,0.0001616920344531536
1772699626814751700,5.441751708984375,-0.0002328201662749052,-0.00004510721191763878,0.0014506620354950428
1772699626824708400,5.451708251953125,0.0011067281011492014,0.001446227077394724,-0.0005921360570937395
1772699626834665500,5.46166552734375,0.0004643735010176897,-0.0025154913309961557,0.0006462340243160725
1772699626844622600,5.47162255859375,-0.0015907391207292676,-0.0022666119039058685,0.0004323674365878105
1772699626854580700,5.481580810546875,0.000985070364549756,-0.00028335582464933395,0.0018246681429445744
1772699626864537600,5.49153759765625,-0.0011859770165756345,0.0005460977554321289,0.0019093048758804798
1772699626874494500,5.501494384765625,-0.0014797237236052752,0.0003911019302904606,-0.00013573653995990753
1772699626884451600,5.51145166015625,0.001265485305339098,0.00017200177535414696,-0.0015229107812047005
1772699626894408400,5.521408447265625,-0.0011774323647841811,0.0008178181014955044,0.00038870610296726227
1772699626904365600,5.531365478515625,0.000050990842282772064,-0.000725465826690197,0.0016244491562247276
1772699626914322700,5.54132275390625,-0.0013916435418650508,0.00014165928587317467,-0.003265380859375
1772699626924279600,5.551279541015625,-0.0017962490674108267,0.00022614188492298126,-0.0024216696619987488
1772699626934236400,5.561236328125,0.001359064131975174,0.0020272377878427505,0.0004217876121401787
1772699626944193500,5.571193603515625,-0.0030048033222556114,-0.0032149532344192266,-0.0011761386413127184
1772699626954151700,5.581151611328125,0.0014895475469529629,-0.002237573266029358,0.0024167317897081375
1772699626964108500,5.591108642578125,0.0014905957505106926,0.000556006096303463,-0.0002577202394604683
1772699626974065700,5.601065673828125,-0.0017731080297380686,0.004236760549247265,-0.0009022050071507692
1772699626984022500,5.6110224609375,0.0015608402900397778,0.0014656437560915947,-0.0010755860712379217
1772699626993979400,5.6209794921875,0.00023511890321969986,-0.0013493173755705357,0.0008261771872639656
1772699627003936500,5.6309365234375,-0.0006525188218802214,0.0013735839165747166,-0.0003401157446205616
1772699627013893600,5.6408935546875,0.0016902638599276543,0.0005994029343128204,0.0012418022379279137
1772699627023850500,5.6508505859375,-0.0002208456862717867,-0.0006682081148028374,-0.0006922038737684488
1772699627033807600,5.6608076171875,-0.0008030127501115203,0.0014737723395228386,0.00004202965646982193
1772699627043764500,5.670764404296875,-0.00033203186467289925,-0.0005164854228496552,-0.0017778812907636166
1772699627053722600,5.68072265625,0.0009894287213683128,0.00005582813173532486,0.0006250888109207153
1772699627063679500,5.690679443359375,-0.0019448858220130205,0.0011802003718912601,-0.003982466645538807
1772699627073636600,5.70063671875,0.0006202710792422295,0.00006034085527062416,-0.000636204844340682
1772699627083593700,5.71059375,-0.0015289295697584748,0.00030506914481520653,-0.0005045467987656593
1772699627093550300,5.72055029296875,0.0003853505477309227,0.0012512900866568089,-0.00014022598043084145
1772699627103507500,5.730507568359375,0.0008458972442895174,0.00145011767745018,-0.0014806268736720085
1772699627113464600,5.740464599609375,0.0006216589827090502,-0.000467891339212656,-0.002714203204959631
1772699627123421400,5.75042138671875,0.002453909255564213,-0.0024491329677402973,0.000490404199808836
1772699627133378600,5.760378662109375,0.0005761145148426294,0.0010614460334181786,-0.0002291821874678135
1772699627143335700,5.770335693359375,0.004908147733658552,-0.0016723661683499813,-0.0006382046267390251
1772699627153293600,5.78029345703125,-0.0006807621102780104,0.0003609573468565941,-0.0017008059658110142
1772699627163250400,5.79025048828125,-7.35744833946228e-7,0.0006297538056969643,-0.0010413064155727625
1772699627173207600,5.80020751953125,-0.002097442513331771,0.0005424018017947674,-0.002619229257106781
1772699627183164700,5.81016455078125,0.0021329978480935097,-0.0008347784169018269,-0.002229077275842428
1772699627193121500,5.82012158203125,0.0005225841887295246,0.00031197909265756607,0.0010809656232595444
1772699627203078400,5.830078369140625,0.002904546447098255,-0.0014310916885733604,0.00037191715091466904
1772699627213035500,5.840035400390625,-0.0009871310321614146,-0.0032995655201375484,-0.0006158493924885988
1772699627222992400,5.849992431640625,0.0010431220289319754,0.0014617769047617912,0.0019125794060528278
1772699627232949500,5.859949462890625,-0.0014578525442630053,0.00017999717965722084,0.0012609036639332771
1772699627242906600,5.86990673828125,0.00015226565301418304,-0.0009160353802144527,0.002076494973152876
1772699627252864500,5.879864501953125,-0.0037711032200604677,-0.0007093744352459908,0.0007422510534524918
1772699627262821400,5.8898212890625,-0.00001646275632083416,-0.0001840316690504551,-0.001425255322828889
1772699627272778500,5.899778564453125,0.0012195103336125612,-0.00045114709064364433,-0.003799463389441371
1772699627282735600,5.909735595703125,-0.000960327684879303,0.0011360840871930122,-0.0024529609363526106
1772699627292692500,5.9196923828125,0.0001326336059719324,0.0023691277019679546,0.002310102805495262
1772699627302649600,5.929649658203125,0.0005030648317188025,0.0008583324961364269,0.0009515983983874321
1772699627312606500,5.9396064453125,0.0007600598037242889,0.00006764009594917297,0.004050984978675842
1772699627322563600,5.9495634765625,-0.0016858596354722977,-0.00046693673357367516,-0.0021839160472154617
1772699627332520400,5.9595205078125,-0.0014578929403796792,-0.0027061225846409798,0.0019343961030244827
1772699627342477600,5.9694775390625,-0.000345021253451705,-0.00015097064897418022,-0.00185773940756917
1772699627352435700,5.979435791015625,-0.0018702136585488915,0.0010554413311183453,0.0006586816161870956
1772699627362392300,5.989392333984375,0.0006615393795073032,-0.002588212490081787,0.002032484393566847
1772699627372349400,5.999349365234375,-0.00006204145029187202,-0.0014158892445266247,-0.0009443971794098616
1772699627382306600,6.009306640625,-0.0010814648121595383,0.0008864249102771282,-0.0026043790858238935
1772699627392263700,6.019263671875,-0.0002345796674489975,0.001490429975092411,0.0013213865458965302
1772699627402220500,6.029220458984375,-0.005032995715737343,0.0026755640283226967,-0.0008506467565894127
1772699627412177700,6.039177734375,-0.0012579651083797216,0.0025304220616817474,-0.0036293889861553907
1772699627422134500,6.049134521484375,-0.001483500120230019,0.0002882862463593483,-0.0009992236737161875
1772699627432091400,6.05909130859375,0.0016971130389720201,0.0012566116638481617,0.003517497330904007
1772699627442048500,6.069048583984375,0.0009306569118052721,0.0006467853672802448,0.0015244008973240852
1772699627452006700,6.079006591796875,0.00009282655082643032,0.0018225712701678276,0.0012865806929767132
1772699627461963800,6.0889638671875,-0.0003444643225520849,-0.001439772080630064,-0.002614573109894991
1772699627471920400,6.09892041015625,0.0004014871083199978,-0.0007100659422576427,0.0007495321333408356
1772699627481877500,6.10887744140625,0.0020164651796221733,-0.0006644520908594131,0.00025665154680609703
1772699627491834600,6.118834716796875,0.0023269900120794773,0.0018682139925658703,-0.000003539491444826126
1772699627501791500,6.12879150390625,0.0009651537984609604,-0.0008634207770228386,-0.00008031493052840233
1772699627511748600,6.13874853515625,0.0006692768074572086,-0.00017286324873566628,0.0001593693159520626
1772699627521705700,6.148705810546875,0.00036873738281428814,-0.002994987415149808,0.00032747257500886917
1772699627531662600,6.15866259765625,-0.00017614546231925488,0.0009459583088755608,-0.0009425890166312456
1772699627541619500,6.168619384765625,-0.0002315628807991743,0.0008249115198850632,0.0006682449020445347
1772699627551577600,6.17857763671875,0.0015863107983022928,-0.00029920879751443863,0.00038461852818727493
1772699627561534700,6.18853466796875,-0.0006991912377998233,-0.0007399222813546658,0.0008720015175640583
1772699627571491600,6.19849169921875,-0.0010898768668994308,0.0005453191697597504,-0.0008417426142841578
1772699627581448400,6.208448486328125,0.0013212459161877632,-0.00003390200436115265,0.001554011832922697
1772699627591405600,6.218405517578125,-0.0007645419100299478,-0.002129277214407921,0.004392941482365131
1772699627601362400,6.228362548828125,-0.0007764967158436775,-0.0013381065800786018,0.000006971880793571472
1772699627611319600,6.238319580078125,-0.00022682035341858864,-0.0016353153623640537,-0.0017075713258236647
1772699627621276700,6.248276611328125,0.0018106356728821993,-0.00004932191222906113,0.0014283517375588417
1772699627631233500,6.258233642578125,0.0032008059788495302,0.0004878374747931957,-0.001518435776233673
1772699627641190700,6.268190673828125,0.0009658441413193941,-0.002523543778806925,0.002048604656010866
1772699627651148500,6.2781484375,0.0007048542611300945,-0.0010135313495993614,0.0002365894615650177
1772699627661105700,6.288105712890625,0.0009611311834305525,0.0014828769490122795,0.0006904192268848419
1772699627671062500,6.2980625,-0.001060740789398551,-0.00039411894977092743,0.0028734123334288597
1772699627681019600,6.30801953125,0.004343428649008274,-0.0006988788954913616,0.0005734278820455074
1772699627690976300,6.317976318359375,-0.0006151109701022506,-0.003432081313803792,0.0009579886682331562
1772699627700933400,6.327933349609375,-0.0009665288962423801,-0.0020701452158391476,0.0016551450826227665
1772699627710890500,6.337890380859375,-0.0007012780988588929,-0.00044295378029346466,0.0023979004472494125
1772699627720847600,6.34784765625,-0.0030715842731297016,-0.0004049353301525116,0.002115469891577959
1772699627730804500,6.357804443359375,-0.0006640865467488766,0.00029094843193888664,0.0008331579156219959
1772699627740761600,6.36776171875,-0.00043926527723670006,0.0009015714749693871,0.0006444067694246769
1772699627750719500,6.377719482421875,0.0001253248192369938,0.002223031595349312,-0.0013518985360860825
1772699627760676400,6.38767626953125,-0.003189291339367628,-0.002187658566981554,-0.0014424852561205626
1772699627770633500,6.397633544921875,-0.0018931309459730983,-0.00024727964773774147,0.0018771449103951454
1772699627780590600,6.407590576171875,0.0012424250598996878,0.002051158342510462,-0.0011303657665848732
1772699627790547700,6.417547607421875,0.0017369738779962063,0.00020665256306529045,0.0011426424607634544
1772699627800504300,6.42750439453125,-0.0030951625667512417,0.0002238512970507145,0.0017153280787169933
1772699627810461400,6.43746142578125,-0.001965982373803854,0.0005117394030094147,0.0005059866234660149
1772699627820418600,6.44741845703125,-0.001360936090350151,-0.0011760126799345016,0.004651308059692383
1772699627830375400,6.45737548828125,0.001815682277083397,-0.002133951522409916,0.0009641619399189949
1772699627840332500,6.46733251953125,0.0017647764179855585,-0.0022732079960405827,-0.0004984443075954914
1772699627850290400,6.47729052734375,0.0013040495105087757,-0.0012279171496629715,0.0022219745442271233
1772699627860247600,6.48724755859375,-0.001213389914482832,0.0005589551292359829,0.0012181475758552551
1772699627870204400,6.497204345703125,0.00022871186956763268,0.0008292659185826778,-0.0006194335874170065
1772699627880161500,6.50716162109375,-0.00014503207057714462,0.00137709965929389,-0.004080636892467737
1772699627890118700,6.51711865234375,0.0000216818880289793,0.001096402294933796,-0.00023769540712237358
1772699627900075500,6.527075439453125,0.0018397378735244274,-0.0029962342232465744,-0.0013634487986564636
1772699627910032400,6.537032470703125,-0.00043327012099325657,-0.00117969186976552,0.0005476353690028191
1772699627919989500,6.546989501953125,0.0016540649812668562,0.0016448982059955597,0.003504757769405842
1772699627929946400,6.5569462890625,0.0003445886541157961,-0.0013277223333716393,0.000005097594112157822
1772699627939903500,6.566903564453125,0.0020032962784171104,-0.0003850744105875492,0.0003024195320904255
1772699627949860600,6.576860595703125,-0.000911000999622047,-0.0024929665960371494,0.00020627956837415695
1772699627959818500,6.586818603515625,0.00011464208364486694,0.0007881335914134979,-0.0013973766472190619
1772699627969775400,6.596775390625,-0.000020646490156650543,0.0019977414049208164,0.00038907164707779884
1772699627979732500,6.606732421875,0.0016522530931979418,0.0009868261404335499,0.0017520245164632797
1772699627989689600,6.616689697265625,0.0022104515228420496,0.0003569885157048702,-0.00013375980779528618
1772699627999646500,6.626646484375,-0.0005398297216743231,0.0003546173684298992,-0.0026462124660611153
1772699628009603600,6.636603515625,0.0014167947228997946,0.0002262527123093605,0.003442839253693819
1772699628019560400,6.646560546875,-0.0011959108524024487,0.0010876921005547047,-0.0000066231004893779755
1772699628029517300,6.656517333984375,0.0003013182431459427,-0.000871861819177866,0.0009222873486578465
1772699628039474400,6.666474365234375,0.0007823107298463583,0.0007398654706776142,0.0022178865037858486
1772699628049431600,6.676431640625,0.0018299983348697424,0.00028419867157936096,-0.00052650086581707
1772699628059389700,6.6863896484375,0.00022995099425315857,-0.0014482280239462852,0.0034938519820570946
1772699628069346300,6.69634619140625,-0.0012885835021734238,0.0007281070575118065,0.0008775624446570873
1772699628079303400,6.706303466796875,0.0006038229912519455,0.0005012098699808121,0.0012311246246099472
1772699628089260500,6.716260498046875,-0.0005131065845489502,0.00160269346088171,0.001223667524755001
1772699628099217400,6.726217529296875,-0.00012605846859514713,-0.0012648054398596287,0.0018076216802001
1772699628109174500,6.736174560546875,-0.00044244201853871346,0.0013277819380164146,0.0012739240191876888
1772699628119131600,6.746131591796875,-0.0015474573010578752,-0.00021841982379555702,-0.001996380975469947
1772699628129088500,6.756088623046875,0.0026550106704235077,0.0012282091192901134,-0.0023907951544970274
1772699628139045400,6.76604541015625,0.000636586919426918,0.00044141337275505066,0.002177110407501459
1772699628149002500,6.77600244140625,-0.0020532056223601103,0.0003814925439655781,0.0026812469586730003
1772699628158960600,6.785960693359375,0.001702653942629695,0.00025081122294068336,0.004852447658777237
1772699628168917500,6.79591748046875,-0.0018244365928694606,-0.00016304384917020798,-0.0011279473546892405
1772699628178874400,6.805874267578125,-0.0010766269406303763,0.002391117624938488,-0.0021844797302037477
1772699628188831500,6.81583154296875,0.0005004971753805876,0.0004398198798298836,-0.003069981001317501
1772699628198788400,6.825788330078125,-0.0009731746977195144,0.0010413299314677715,0.0023803310468792915
1772699628208745500,6.835745361328125,0.00036932481452822685,-0.00030969129875302315,0.002046104520559311
1772699628218702600,6.84570263671875,-0.00005343696102499962,-0.00017592310905456543,-0.0005791354924440384
1772699628228659500,6.855659423828125,0.0003588201943784952,-0.001316022127866745,0.000925017986446619
1772699628238616600,6.865616455078125,-0.0005537434481084347,0.00034349225461483,0.00022058002650737762
1772699628248573400,6.875573486328125,-0.002967366250231862,-0.0003875456750392914,0.0021891887299716473
1772699628258531600,6.885531494140625,0.003610698040574789,-0.00021227309480309486,-0.00030581653118133545
1772699628268488400,6.895488525390625,0.0010122519452124834,-0.00039123743772506714,0.0022793137468397617
1772699628278445600,6.905445556640625,0.0020672273822128773,0.0009765722788870335,-0.0019161407835781574
1772699628288402400,6.91540234375,-0.0005879441741853952,0.001636770088225603,-0.0037225629203021526
1772699628298359300,6.925359375,0.003021202515810728,0.000026885420083999634,-0.001042715273797512
1772699628308316400,6.93531640625,-0.0017882001120597124,0.001229302491992712,0.0012947414070367813
1772699628318273500,6.9452734375,0.0016813515685498714,0.0016869297251105309,-0.0016405594069510698
1772699628328230400,6.95523046875,-0.001378886983729899,0.0007550898008048534,-0.002431251807138324
1772699628338187500,6.9651875,0.0009610941633582115,-0.001162167638540268,-0.0010266720782965422
1772699628348144600,6.97514453125,0.002244737697765231,-0.0014623058959841728,0.004554514307528734
1772699628358102500,6.9851025390625,-0.001801415579393506,0.0008235224522650242,-0.001866285689175129
1772699628368059400,6.995059326171875,0.0019403258338570595,-0.0020516258664429188,-0.0005621355958282948
1772699628378016500,7.0050166015625,0.0010287798941135406,-0.0012845071032643318,-0.0030003460124135017
1772699628387973600,7.0149736328125,-0.0007720496505498886,0.0007424247451126575,-0.00024823518469929695
1772699628397930500,7.024930419921875,0.0010890853591263294,0.0033018612302839756,-0.0012694038450717926
1772699628407887400,7.034887451171875,0.0036300071515142918,0.0010400386527180672,0.003096848726272583
1772699628417844500,7.044844482421875,0.001583669101819396,-0.0022995024919509888,0.0023412909358739853
1772699628427801600,7.054801513671875,0.0011391877196729183,-0.00044194795191287994,-0.001326148398220539
1772699628437758500,7.064758544921875,0.0005098930560052395,0.00028449296951293945,-0.000750434584915638
1772699628447715600,7.074715576171875,0.00018711783923208714,0.00044215191155672073,0.00007754238322377205
1772699628457672700,7.084672607421875,0.000315558398142457,0.0023218579590320587,-0.0003635687753558159
1772699628467630300,7.09463037109375,0.00042181857861578465,0.0012243692763149738,-0.0010322886519134045
1772699628477587500,7.10458740234375,-0.0003397474065423012,0.0015509468503296375,-0.001735983183607459
1772699628487544600,7.114544677734375,-0.0007930173305794597,-0.0008363104425370693,-0.001640109345316887
1772699628497501700,7.124501708984375,0.001365170581266284,-0.00010406086221337318,-0.0003497549332678318
1772699628507458600,7.13445849609375,-0.0007797394646331668,-0.0010569398291409016,0.000811117235571146
1772699628517415400,7.14441552734375,0.0005242582410573959,0.0009476765990257263,-0.0010200254619121552
1772699628527372500,7.15437255859375,0.0006603456567972898,0.00046431319788098335,-0.002668255940079689
1772699628537329400,7.164329345703125,-0.0005113442894071341,-0.00010936660692095757,0.0023195757530629635
1772699628547286500,7.17428662109375,0.00029266392812132835,-0.0010079173371195793,0.0015102410688996315
1772699628557243600,7.18424365234375,0.0013138174545019865,-0.0003498145379126072,0.0015933150425553322
1772699628567201300,7.194201171875,-0.00027102953754365444,0.00046431366354227066,-0.0009180458728224039
1772699628577158400,7.204158447265625,0.002659587888047099,-0.0020116278901696205,0.004461108241230249
1772699628587115500,7.214115478515625,0.0012033716775476933,-0.0022718184627592564,0.0021870355121791363
1772699628597072600,7.22407275390625,0.001587855163961649,0.00038828980177640915,-0.0018002388533204794
1772699628607029500,7.234029541015625,0.00006825546734035015,-0.00033369334414601326,0.0006546629592776299
1772699628616986600,7.243986572265625,0.0003624195232987404,-0.0007822872139513493,-0.0023012973833829165
1772699628626943500,7.253943603515625,0.0008505769073963165,0.00007578311488032341,0.0002750447019934654
1772699628636900400,7.263900390625,0.0016089370474219322,-0.001570225227624178,0.00393966818228364
1772699628646857500,7.273857421875,0.0007170445751398802,0.0005267476662993431,0.0001172330230474472
1772699628656814600,7.283814697265625,0.0005154628306627274,0.0012720921076834202,-0.0015840898267924786
1772699628666771500,7.293771484375,0.001695509534329176,0.0021405485458672047,0.001178939826786518
1772699628676729300,7.303729248046875,0.0006542815826833248,-0.0011166473850607872,0.002174453344196081
1772699628686686700,7.313686767578125,0.0003347021993249655,-0.002449026796966791,-0.0002607414498925209
1772699628696643800,7.323643798828125,0.0011336705647408962,0.0012732497416436672,0.00020075170323252678
1772699628706601000,7.33360107421875,0.0005682813934981823,-0.0019403868354856968,-0.0007987325079739094
1772699628716557800,7.343557861328125,0.0011083546560257673,-0.000803324393928051,-0.0015587909147143364
1772699628726515000,7.353514892578125,-0.00032202922739088535,0.00020388327538967133,-0.0004908633418381214
1772699628736471800,7.363471923828125,0.0005275567527860403,-0.00021106749773025513,-0.00040086498484015465
1772699628746428700,7.3734287109375,-0.0025957985781133175,0.0019586095586419106,0.00008516199886798859
1772699628756385800,7.3833857421875,0.0010955838952213526,0.0014110836200416088,0.0006338725797832012
1772699628766343000,7.393343017578125,0.0006393843796104193,0.00015007704496383667,0.0011198995634913445
1772699628776300500,7.403300537109375,-0.0017963468562811613,0.00144197978079319,0.0005480912514030933
1772699628786257700,7.413257568359375,0.0020306154619902372,0.0004318426363170147,0.00010813726112246513
1772699628796214800,7.42321484375,0.00041250837966799736,-0.0005101407878100872,-0.0008730432018637657
1772699628806172000,7.433171875,0.000003712950274348259,0.0017013484612107277,0.0012164730578660965
1772699628816128800,7.443128662109375,-0.001964430557563901,0.0010249591432511806,-0.0006734845228493214
1772699628826086000,7.4530859375,0.0005743608344346285,-0.0015862705186009407,0.0031255148351192474
1772699628836043000,7.46304296875,-0.00019789673388004303,0.0011692559346556664,0.0012616906315088272
1772699628845999600,7.47299951171875,-0.0007590246386826038,-0.0014467672444880009,-0.000040594954043626785
1772699628855956700,7.482956787109375,0.001981089124456048,-0.0009679212234914303,-0.00024387752637267113
1772699628865913900,7.492913818359375,0.00010782177560031414,-0.0011543426662683487,0.0024744109250605106
1772699628875870700,7.50287060546875,-0.002410497050732374,0.0007767421193420887,0.0023607383482158184
1772699628885828600,7.51282861328125,0.00039727380499243736,0.00007792841643095016,-0.001652911538258195
1772699628895785700,7.52278564453125,0.0004681600257754326,0.0013716560788452625,0.0023549185134470463
1772699628905742800,7.532742919921875,0.003131853649392724,-0.004214058164507151,0.0007495647296309471
1772699628915699700,7.54269970703125,0.0003107755910605192,0.0005953377112746239,-0.0026781337801367044
1772699628925656800,7.55265673828125,-0.002989147324115038,-0.00023184018209576607,-0.001180371968075633
1772699628935614000,7.562614013671875,0.0003360037226229906,0.0015243045054376125,0.00008362485095858574
1772699628945570800,7.57257080078125,-0.0012312664184719324,0.00021216506138443947,0.000837565865367651
1772699628955527700,7.582527587890625,0.0028695196378976107,-0.0014925641007721424,0.00045759882777929306
1772699628965484800,7.59248486328125,0.00024231127463281155,-0.0012203888036310673,0.0009620017372071743
1772699628975441700,7.602441650390625,-0.001160071580670774,0.0020728465169668198,0.0008645146153867245
1772699628985399800,7.61239990234375,-0.0008287742966786027,-0.0005706073716282845,-0.0018950530793517828
1772699628995356700,7.622356689453125,-0.00030517461709678173,-0.0017228410579264164,0.00011042552068829536
1772699629005313800,7.632313720703125,-0.0018370246980339289,0.0010100947692990303,0.00033519603312015533
1772699629015270700,7.642270751953125,0.0010319601278752089,0.00024196738377213478,-0.0009976904839277267
1772699629025227800,7.652227783203125,0.0018681925721466541,-0.001450737938284874,-0.0003364277072250843
1772699629035185000,7.662184814453125,-0.0016902590868994594,0.00004822900518774986,0.00028837844729423523
1772699629045141800,7.672141845703125,0.0015870267525315285,-0.0025092046707868576,0.0017840098589658737
1772699629055099000,7.682098876953125,-0.0005094574298709631,0.0006648027338087559,-0.0014045981224626303
1772699629065055700,7.6920556640625,-0.00035179825499653816,-0.0011394885368645191,0.0009304615668952465
1772699629075012600,7.7020126953125,-0.00007775495760142803,0.0004802425391972065,-0.0005102809518575668
1772699629084970800,7.711970703125,-0.0027952445670962334,-0.0006910157389938831,0.0004106401465833187
1772699629094928000,7.721927978515625,-0.0009543136693537235,0.0013971766456961632,0.0010327016934752464
1772699629104884700,7.731884765625,0.001993539510294795,-0.0022185971029102802,0.0006018020212650299
1772699629114841600,7.741841552734375,-0.0027721202932298183,-0.0012666410766541958,0.001522153615951538
1772699629124798700,7.751798828125,-0.0010280160931870341,0.0005986369214951992,0.00035302573814988136
1772699629134755800,7.761755859375,0.00005992571823298931,0.0010033589787781239,0.0010277265682816505
1772699629144712700,7.771712646484375,-0.00015632295981049538,0.00047498755156993866,0.002020020503550768
1772699629154669800,7.781669921875,-0.0008351803990080953,0.0006183362565934658,-0.0015870393253862858
1772699629164627000,7.791626953125,-0.001780336257070303,0.0012977086007595062,-0.0008762415964156389
1772699629174583600,7.80158349609375,0.0010640467517077923,-0.0004887334071099758,0.004362110979855061
1772699629184540700,7.811540771484375,-0.0005748625844717026,0.000337379053235054,0.002167666330933571
1772699629194498800,7.821498779296875,0.0016930648125708103,0.0006024348549544811,0.001121331937611103
1772699629204456000,7.8314560546875,-0.0006670287111774087,-0.00035949889570474625,0.001202558632940054
1772699629214412800,7.841412841796875,-0.000664381543174386,0.0004851524718105793,0.0015691276639699936
1772699629224369700,7.85136962890625,-0.0010257724206894636,-0.0002578697167336941,0.0005768341943621635
1772699629234326800,7.861326904296875,-0.0014495888026431203,-0.0010489658452570438,-0.0004591047763824463
1772699629244283600,7.87128369140625,-0.002147070597857237,0.0012054000981152058,-0.0006207586266100407
1772699629254240800,7.88124072265625,-0.0007031697314232588,0.0011486108414828777,-0.0026542742270976305
1772699629264198000,7.891197998046875,-0.002519445726647973,-0.001296170987188816,-0.0015477307606488466
1772699629274155000,7.901155029296875,0.002118027536198497,-0.0011239824816584587,-0.0020993961952626705
1772699629284111600,7.911111572265625,-0.00020211865194141865,-0.0020459690131247044,-0.0004274635575711727
1772699629294068700,7.92106884765625,0.00021934206597507,0.001297366339713335,-0.0009172153659164906
1772699629304027000,7.93102685546875,-0.0006664253305643797,0.0006432938389480114,-0.002671173308044672
1772699629313983700,7.940983642578125,0.0008203424513339996,-0.00205820519477129,-0.0016125773545354605
1772699629323940900,7.95094091796875,0.0012951840180903673,0.00007205735892057419,-0.00007460173219442368
1772699629333897700,7.960897705078125,0.0003886129707098007,0.0021547451615333557,0.0010835849680006504
1772699629343854800,7.970854736328125,0.00034360564313828945,0.0016301022842526436,-0.003519955091178417
1772699629353811700,7.980811767578125,0.0006785481236875057,-0.0012387530878186226,-0.0026569950859993696
1772699629363768800,7.990768798828125,-0.00046261632815003395,0.003192747011780739,0.001061576884239912
1772699629373726000,8.000725830078125,0.0001898561604321003,-0.0026589157059788704,0.0006907302886247635
1772699629383682800,8.010682861328124,-0.00046501518227159977,-0.0006756596267223358,-0.0020243623293936253
1772699629393639700,8.0206396484375,0.001399678410962224,0.00011098245158791542,0.001149030402302742
1772699629403597800,8.030597900390624,0.00027902028523385525,-0.0002448158338665962,0.0020257430151104927
1772699629413554700,8.0405546875,-0.0019076259341090918,0.0006931205280125141,-0.001898780930787325
1772699629423511800,8.05051171875,0.00016138399951159954,-0.0023631229996681213,-0.0020077042281627655
1772699629433469000,8.060468994140624,-0.0018534219125285745,-0.0037623357493430376,0.001312803477048874
1772699629443425800,8.07042578125,0.0032185681629925966,-0.00013058306649327278,0.0014923005364835262
1772699629453382700,8.080382568359376,-0.0022614949848502874,-0.00006355857476592064,0.0006455141119658947
1772699629463339800,8.09033984375,-0.00034401891753077507,0.0005297940224409103,-0.0017603856977075338
1772699629473297000,8.100296875,-0.0003767132293432951,0.0009475112892687321,0.0008398178033530712
1772699629483253800,8.110253662109375,-0.0031147091649472713,0.0007371213287115097,0.0028664832934737206
1772699629493211000,8.1202109375,0.001486482797190547,0.001429971307516098,-0.00034047896042466164
1772699629503167700,8.130167724609375,-0.00022806040942668915,0.001469918992370367,-0.0005817613564431667
1772699629513126000,8.1401259765625,0.00014705117791891098,0.0023277518339455128,-0.002116038464009762
1772699629523082800,8.150082763671875,0.00006103096529841423,-0.0011271671392023563,-0.000471536535769701
1772699629533039900,8.160039794921875,0.0022111667785793543,-0.0013237865641713142,-0.002092379378154874
1772699629542997000,8.1699970703125,-0.00029380270279943943,-0.003474022727459669,-0.0018915769178420305
1772699629552953600,8.17995361328125,-0.0030149288941174746,-0.0011018184013664722,0.0023031746968626976
1772699629562910700,8.18991064453125,-0.0009712190367281437,0.00127425417304039,0.0010512229055166245
1772699629572867800,8.199867919921875,-0.0008563078008592129,0.0006805965676903725,0.0010302816517651081
1772699629582824700,8.20982470703125,-0.0008027782896533608,0.00035542435944080353,-0.00045789266005158424
1772699629592781800,8.21978173828125,0.0005585046019405127,0.0006228066049516201,-0.0008691290859133005
1772699629602739000,8.229739013671875,0.001371034886687994,0.0017250888049602509,0.0001130448654294014
1772699629612696800,8.23969677734375,-0.00044809048995375633,-0.00190665852278471,-0.002985337283462286
1772699629622653700,8.24965380859375,0.0005705687217414379,-0.0012254221364855766,0.0016490956768393517
1772699629632610800,8.25961083984375,-0.0008122139843180776,-0.001100282184779644,-0.0012352687772363424
1772699629642568000,8.26956787109375,-0.00006599631160497665,-0.00024114642292261124,-0.0018214306328445673
1772699629652524800,8.27952490234375,0.00025632348842918873,-0.0023076178040355444,0.004234525375068188
1772699629662481700,8.289481689453124,0.0026020356453955173,0.0009667389094829559,0.0011340733617544174
1772699629672438800,8.299438720703124,-0.000005935784429311752,-0.0012357314117252827,-0.0011572751682251692
1772699629682395600,8.309395751953126,0.000859591644257307,0.0010766913183033466,-0.0007303701713681221
1772699629692352000,8.31935205078125,-0.0003334623761475086,0.0002759112976491451,0.0006654942408204079
1772699629702309000,8.32930908203125,-0.0020205748733133078,0.0009997584857046604,0.00007453886792063713
1772699629712266200,8.339266357421875,-0.00023066462017595768,0.00015609711408615112,0.0006155450828373432
1772699629722224000,8.34922412109375,0.0011509833857417107,-0.0009565711952745914,0.0002967650070786476
1772699629732181000,8.359180908203125,-0.0018849277403205633,0.0015880712307989597,0.004141055978834629
1772699629742138000,8.36913818359375,-0.0014084882568567991,-0.0007597715593874454,0.0029160017147660255
1772699629752095200,8.37909521484375,-0.0010518957860767841,-0.0003122934140264988,0.0008057090453803539
1772699629762052000,8.389052001953125,0.0007614505011588335,0.0000451025553047657,-0.0010198878590017557
1772699629772009200,8.39900927734375,-0.0012174694566056132,0.0021374812349677086,-0.0047013298608362675
1772699629781966300,8.40896630859375,0.0008973467629402876,-0.002556605963036418,0.003396010957658291
1772699629791923000,8.4189228515625,-0.0008209735387936234,-0.0017397007904946804,-0.0012714171316474676
1772699629801880000,8.428880126953125,0.0003865037579089403,-0.001353542786091566,0.00004391837865114212
1772699629811837200,8.438837158203125,0.00018236320465803146,-0.0018327031284570694,-0.0016727633774280548
1772699629821794000,8.4487939453125,-0.00095853500533849,-0.00007208716124296188,-0.0002053617499768734
1772699629831752000,8.458751953125,-0.00009404122829437256,0.0010507148690521717,-0.0007628975436091423
1772699629841709000,8.468708984375,-0.0012202919460833073,-0.0007895296439528465,-0.0022148529533296824
1772699629851666200,8.478666259765625,-0.0007870721165090799,0.0007290951907634735,0.0023012924939393997
1772699629861623000,8.488623046875,-0.0017966765444725752,0.0003554536961019039,0.0024067535996437073
1772699629871580200,8.498580078125,-0.0009562382474541664,0.0008331765420734882,-0.001103904563933611
1772699629881537300,8.508537353515624,0.00022274325601756573,0.00007284432649612427,0.0013342192396521568
1772699629891494100,8.518494140625,0.001842450350522995,0.0014884541742503643,-0.0033178445883095264
1772699629901451000,8.528450927734376,-0.001222315477207303,0.0008857804350554943,-0.00048397481441497803
1772699629911408000,8.538408203125,0.0022593734320253134,-0.001043232623487711,-0.0008601818699389696
1772699629921365000,8.548364990234376,0.002133406000211835,-0.0008139344863593578,-0.0016559343785047531
1772699629931322000,8.558322021484376,-0.0013903009239584208,-0.0007832394912838936,0.0009827190078794956
1772699629941280000,8.568280029296876,0.002803645096719265,-0.0015217340551316738,-0.00031131086871027946
1772699629951237000,8.578237060546876,-0.0007172594778239727,0.00020759552717208862,0.0009013921953737736
1772699629961194000,8.588194091796876,-0.0005406918935477734,-0.00037750089541077614,0.0012119165621697903
1772699629971151000,8.598151123046875,-0.00016579777002334595,0.000346155371516943,-0.0003430275246500969
1772699629981108200,8.608108154296875,0.000536211533471942,-0.001488229725509882,0.0007651136256754398
1772699629991065000,8.618065185546875,0.00012256111949682236,-0.0006458447314798832,-0.0004036473110318184
1772699630001022200,8.628022216796875,-0.0002678581513464451,0.00021435599774122238,0.0011596279218792915
1772699630010979000,8.63797900390625,0.00048123719170689583,-0.001276929397135973,-0.0006807935424149036
1772699630020936000,8.64793603515625,-0.00016644364222884178,0.002025923226028681,-0.002746607642620802
1772699630030893000,8.65789306640625,0.00041478080675005913,-0.0013547660782933235,-0.00038371793925762177
1772699630040850200,8.66785009765625,0.0018494254909455776,0.0005802866071462631,-0.0025699068792164326
1772699630050808000,8.67780810546875,0.00000546150840818882,-0.00002628052607178688,-0.0007959636859595776
1772699630060765000,8.687764892578125,-0.002838261891156435,0.001774015836417675,0.00015638256445527077
1772699630070722000,8.69772216796875,-0.0009725234704092145,-0.000034310389310121536,0.0006020828150212765
1772699630080679200,8.70767919921875,-0.0015227325493469834,-0.00008650822564959526,0.003150195349007845
1772699630090636000,8.717635986328125,-0.0012176847085356712,0.001489817164838314,0.00038766441866755486
1772699630100593200,8.72759326171875,0.0010278928093612194,-0.000039103906601667404,-0.0005993028171360493
1772699630110550300,8.73755029296875,0.0006081098690629005,-0.0010683168657124043,-0.0001415354199707508
1772699630120507000,8.7475068359375,0.0005322096403688192,0.0007436978630721569,0.002070486079901457
1772699630130464000,8.757464111328124,0.000019022729247808456,-0.00111013138666749,0.0011839475482702255
1772699630140421000,8.767421142578126,0.0006683014798909426,0.0014158766716718674,-0.0005918480455875397
1772699630150379300,8.777379150390624,0.002010323805734515,0.0005038962699472904,0.002195956651121378
1772699630160336100,8.787336181640624,0.001498197903856635,-0.0018079937435686588,-0.00002032611519098282
1772699630170293000,8.79729296875,-0.0023465726990252733,0.00009322306141257286,0.00000871904194355011
1772699630180250000,8.80725,0.0007336393464356661,0.000016523990780115128,0.0007490776479244232
1772699630190207000,8.81720703125,0.0011618495918810368,-0.002404486993327737,-0.00032017379999160767
1772699630200164000,8.8271640625,0.00009099254384636879,-0.0011085928417742252,0.0013035554438829422
1772699630210121200,8.837121337890625,0.0045575592666864395,0.0004115551710128784,0.0021696481853723526
1772699630220078300,8.847078369140625,0.0004570898599922657,0.00039264699444174767,-0.0008154888637363911
1772699630230035000,8.857034912109375,-0.0009549845708534122,0.00039691803976893425,-0.0029446803964674473
1772699630239992000,8.866991943359375,-0.0017701782053336501,0.003220135346055031,-0.0005795271135866642
1772699630249949200,8.87694921875,-0.0000912665855139494,0.00009593786671757698,-0.0016524209640920162
1772699630259907000,8.886906982421875,0.003843820421025157,-0.0000433456152677536,0.0015218006446957588
1772699630269864200,8.8968642578125,-0.00032919575460255146,0.0015251128934323788,-0.00015474110841751099
1772699630279821000,8.906821044921875,-0.0021622495260089636,0.0013149892911314964,0.00015684869140386581
1772699630289778200,8.916778076171875,-0.0024009549524635077,0.0017030667513608932,-0.0022175221238285303
1772699630299735000,8.926735107421875,0.0007535594049841166,-0.001859975978732109,-0.0008830120787024498
1772699630309692200,8.936692138671875,0.0012869727797806263,-0.002155825961381197,0.0015118438750505447
1772699630319649300,8.946649169921875,-0.001296826172620058,0.0004980140365660191,0.0012053139507770538
1772699630329606100,8.956606201171875,0.0019444208592176437,-0.00013919314369559288,0.003258954267948866
1772699630339563000,8.96656298828125,-0.00012059416621923447,0.0003705359995365143,-0.0029427490662783384
1772699630349520100,8.97652001953125,-0.00176511169411242,-0.0012177559547126293,0.0006771259941160679
1772699630359477000,8.98647705078125,0.0004498395137488842,-0.0014121667481958866,-0.0007641767151653767
1772699630369435100,8.99643505859375,-0.00045085884630680084,-0.0003582942299544811,0.001011562068015337
1772699630379392300,9.006392333984374,0.0011747346725314856,-0.0018877480179071426,0.0004376508295536041
1772699630389349000,9.01634912109375,0.0014847195707261562,-0.001334927510470152,0.001757434569299221
1772699630399306000,9.026305908203126,0.000980050303041935,0.002329049166291952,-0.0028929775580763817
1772699630409263000,9.03626318359375,-0.0005764004308730364,0.014500414952635765,0.007868952117860317
1772699630419220200,9.04622021484375,0.0001184181310236454,-0.0021752333268523216,0.0030504949390888214
1772699630429177000,9.056177001953126,0.000842914218083024,-0.00078154681250453,-0.00513955345377326
1772699630439134200,9.06613427734375,-0.0018471447983756661,-0.008060764521360397,-0.007264755666255951
1772699630449091000,9.076091064453125,-0.0002335868775844574,-0.011542923748493195,-0.0064691212028265
1772699630459048000,9.0860478515625,-0.0009518414735794067,-0.0065178051590919495,-0.007456088438630104
1772699630469005000,9.096005126953125,-0.005330885760486126,-0.0024005796294659376,-0.006127777509391308
1772699630478963200,9.105963134765625,0.0013765515759587288,0.0014974894002079964,-6.430782377719879e-7
