time,seconds_elapsed,z,y,x
1772700370133646600,0.101646484375,0.09228606950938702,-0.007424523977562785,-0.015837764448241795
1772700370143603200,0.111603271484375,0.08001578600108623,0.000045400911150500175,-0.005671065623068716
1772700370153560300,0.121560302734375,0.08166238416433334,0.00038853352670557796,0.008149787778500468
1772700370163518500,0.1315185546875,0.08525368665456771,0.016852843791898338,-0.008821713957004249
1772700370173475600,0.1414755859375,0.07238426820933819,0.014910093959979711,-0.0008312357929069549
1772700370183432400,0.151432373046875,0.10216156683564186,0.005112283246126025,-0.00495408445164212
1772700370193390300,0.161390380859375,0.07792027502655982,-0.0022860377111006526,-0.015925502097199205
1772700370203347500,0.171347412109375,0.09752104755342006,0.000630087197618559,-0.009969073344243224
1772700370213304600,0.1813046875,0.07866612495779991,-0.0074491743616294116,-0.006223023250291589
1772700370223262200,0.19126220703125,0.07462474061250686,0.0022476053968537597,0.004827551445545396
1772700370233219300,0.20121923828125,0.08495090431571006,0.00450149440402165,0.010806786826997995
1772700370243176400,0.211176513671875,0.0704360567510128,0.005356220670370385,-0.006621752231559366
1772700370253134600,0.221134521484375,0.08614625158011913,0.007395973736513406,0.005244330965090194
1772700370263091200,0.23109130859375,0.09078384825289249,-0.003745461005484685,-0.000785428456380032
1772700370273048300,0.24104833984375,0.08734159884452819,0.008587110616685822,0.012125574383052298
1772700370283006500,0.25100634765625,0.07955868988335132,-0.0001553366921842098,0.00399024381734489
1772700370292963600,0.260963623046875,0.09332534942924976,0.005415887568891048,-0.0004987079114012886
1772700370302920400,0.27092041015625,0.08387363047301769,-0.003969095427216962,-0.005165260108956135
1772700370312878300,0.28087841796875,0.09433248064517974,-0.017698665232583878,-0.019898682327778076
1772700370322835500,0.29083544921875,0.08131517816185951,0.00010069302865304052,-0.004548181948316051
1772700370332792600,0.30079248046875,0.07906067723333834,-0.01160055842003785,0.010223440830956679
1772700370342750200,0.310750244140625,0.07009703405499458,-0.016202937648957593,0.005608835733059095
1772700370352707300,0.320707275390625,0.07831658086776733,-0.004952891433332115,0.002446046011825092
1772700370362664400,0.33066455078125,0.0822130037844181,0.004940653006266802,0.008007057122851257
1772700370372622600,0.34062255859375,0.07383095988631248,0.0031229908587411042,0.007440657695033587
1772700370382579200,0.3505791015625,0.08161737597882747,0.005792721524648368,-0.002042414239043137
1772700370392536300,0.360536376953125,0.08672200564146042,0.004082501806970685,0.017090926864091305
1772700370402494200,0.370494140625,0.09001052579283714,-0.01983087322199717,-0.0013067717496305703
1772700370412451300,0.380451416015625,0.08627367735207081,-0.010686503181885926,0.0011698292306624352
1772700370422408400,0.390408447265625,0.08388941256403923,-0.00047795624267309904,-0.0012992608716769609
1772700370432366300,0.400366455078125,0.07835223670303822,-0.0033928116429131475,0.004787314191635232
1772700370442323200,0.4103232421875,0.0843307265907526,-0.012975226040417327,-0.00354557164387661
1772700370452280300,0.4202802734375,0.07444996856749057,-0.0116711029055994,-0.0018746176407963503
1772700370462238200,0.43023828125,0.07788695727884769,-0.00715503198695369,0.006251333746034652
1772700370472195300,0.4401953125,0.07563771704733371,-0.004896667734067887,-0.01246872183998348
1772700370482152200,0.450152099609375,0.07759352729022502,-0.00923039522259496,-0.0028440083789348135
1772700370492110300,0.4601103515625,0.08687690394222736,0.0008960355242714286,-0.002428496655402705
1772700370502067200,0.470067138671875,0.09196516699194908,-0.006063291227491572,0.018728317665931533
1772700370512024300,0.4800244140625,0.08014496533870696,-0.008496710653183982,0.024635444509109948
1772700370521982200,0.489982177734375,0.0816466020733118,-0.00950916649820283,-0.00505967170947697
1772700370531939300,0.499939208984375,0.0925742388010025,-0.004836078386940062,-0.0034770330273779107
1772700370541896400,0.509896484375,0.07895897042453288,0.004057668759813532,-0.015786301405774427
1772700370551854300,0.519854248046875,0.08659107273817061,-0.019915902890637514,-0.0021824757302820216
1772700370561811200,0.529811279296875,0.07537175958752632,-0.016552353874826804,-0.007748977008822839
1772700370571768300,0.539768310546875,0.08150631681978703,-0.003312622546171769,0.005107941572793061
1772700370581726200,0.549726318359375,0.09078384825289249,0.003271057559922337,-0.002025578410318121
1772700370591683300,0.559683349609375,0.09213175573050975,0.004830032238643616,0.014979392911592731
1772700370601640200,0.56964013671875,0.10141220977306366,0.00010530527168884873,0.009646984658361179
1772700370611598300,0.579598388671875,0.09767302324473857,0.006129597929352894,0.00738877681074664
1772700370621555500,0.589555419921875,0.07103752977550029,-0.004328201930038631,-0.00204807565320516
1772700370631512300,0.59951220703125,0.09139116649627685,-0.010085349817806854,0.0026693653397262093
1772700370641470200,0.60947021484375,0.07149345684945584,-0.007582445352477952,0.013888711598055669
1772700370651427300,0.61942724609375,0.0755336721509695,-0.00452839154410176,-0.0029293839658028446
1772700370661384400,0.629384521484375,0.08166706033945083,-0.010277995446231215,-0.019730271524889393
1772700370671342300,0.63934228515625,0.07448270179331302,-0.020009143265197052,-0.006614872112090234
1772700370681299200,0.64929931640625,0.07044248649179935,0.005631247352622449,-0.002338946075271815
1772700370691256300,0.65925634765625,0.09468260925710201,0.006415712261199951,-0.004288641671207733
1772700370701214200,0.669214111328125,0.08121580944061278,-0.0025395649475976824,-0.003776141554827336
1772700370711171300,0.67917138671875,0.0794201581954956,0.007984422882646322,-0.01289957497983123
1772700370721128200,0.689128173828125,0.0861561884522438,0.015421614545537157,-0.01309939812606899
1772700370731086300,0.69908642578125,0.06910042423307895,0.010985677924705669,-0.009920419888437027
1772700370741043500,0.70904345703125,0.10052665911018847,-0.0052633547551464285,-0.005279383441340178
1772700370751001300,0.71900146484375,0.09559154079556464,0.013012498444039374,0.010644757815834599
1772700370760958200,0.728958251953125,0.07224749008715152,-0.007365816060267388,0.009344339316821423
1772700370770915300,0.738915283203125,0.0767360336780548,-0.008375879018800332,-0.007752438474388327
1772700370780872400,0.74887255859375,0.07748422169685364,-0.0028540103247854855,-0.005037083135044668
1772700370790830300,0.758830322265625,0.08062485781013966,0.0027660854461602864,-0.0005200132776226383
1772700370800787200,0.768787109375,0.08556056064665317,0.012869345379993319,0.013550539427052716
1772700370810745300,0.778745361328125,0.08690437647104263,0.010863741178624332,0.014103597599396016
1772700370820702200,0.7887021484375,0.08855155915617942,0.012386977823683991,0.005615651349624386
1772700370830659300,0.798659423828125,0.09079436964690685,0.011449011986982076,0.009679182452999521
1772700370840617200,0.8086171875,0.06296235986948014,-0.00019737660246901213,0.011404858893068739
1772700370850574300,0.81857421875,0.07568214071094989,0.004234367900434881,-0.0027147342848358675
1772700370860531500,0.828531494140625,0.07463526200652122,-0.001359406119165942,-0.0016552575353824066
1772700370870489300,0.8384892578125,0.0839127934396267,-0.0075695767377503215,-0.012909334897086955
1772700370880446200,0.8484462890625,0.08061901259124278,-0.009811656576115638,0.00440811132392264
1772700370890403300,0.8584033203125,0.08061784354746342,-0.004407779105426743,0.006085450543661136
1772700370900361200,0.868361328125,0.06969254490733147,-0.013877170715667306,-0.004544947669969406
1772700370910318300,0.878318359375,0.09602759412527084,-0.009609019276639446,-0.019856256541714537
1772700370920275200,0.888275146484375,0.08016600812673569,0.0023710217139683663,-0.010642833003518171
1772700370930233300,0.8982333984375,0.07043897936046123,-0.004484150543576106,0.01594340193842654
1772700370940190200,0.908190185546875,0.08525368665456771,0.005754344009328633,-0.0031341698398813602
1772700370950147300,0.918147216796875,0.09273732040822505,0.0053586957552470265,0.0002828629288356751
1772700370960105200,0.928105224609375,0.08705226050913334,0.0029395514500793066,-0.00005423723815474659
1772700370970062300,0.938062255859375,0.08765139544606208,-0.011681131109269336,-0.005212491075944853
1772700370980019500,0.94801953125,0.08331482754647732,-0.01700717583708465,0.007592910805920837
1772700370989977300,0.957977294921875,0.08406418460905551,-0.012549420110089703,-0.002219431898428593
1772700370999934200,0.967934326171875,0.06655600044727325,0.0015335571096744386,-0.01280997302570613
1772700371009891300,0.977891357421875,0.08600947345793247,-0.003865890781069174,-0.011528965904994401
1772700371019849200,0.98784912109375,0.0872065742880106,0.002073408740572631,0.003426346303045284
1772700371029806300,0.997806396484375,0.07897650608122349,0.003576908638700843,-0.0057344793982338155
1772700371039763200,1.00776318359375,0.0963338835954666,0.0052206024588085705,0.007687428680469747
1772700371049721300,1.017721435546875,0.08256897761523724,-0.003463483992638066,0.008902361994760575
1772700371059678200,1.02767822265625,0.07748363717496394,0.0011759667105041443,-0.0038369832053489514
1772700371069635300,1.03763525390625,0.0753898797661066,-0.0016252539811190216,-0.012147531628177966
1772700371079593200,1.04759326171875,0.08257190022468566,0.0034653197566978633,-0.011481996374554
1772700371089550300,1.05755029296875,0.09843290170133114,-0.009194958583032712,-0.010569353350420715
1772700371099507500,1.067507568359375,0.0794289260238409,-0.012877419088594615,-0.010707423813972855
1772700371109465300,1.07746533203125,0.08541443017423152,0.00023501433227211235,0.002915542670118157
1772700371119422200,1.087422119140625,0.08541326113045215,-0.004335106594860553,0.013004914500849554
1772700371129379300,1.09737939453125,0.07897942869067191,-0.0004931812112685292,0.011353344476607161
1772700371139337200,1.107337158203125,0.08391922318041324,0.010746087882015854,0.007056495524413185
1772700371149294300,1.11729443359375,0.07643851203620433,0.00590094940578565,0.013872785659850341
1772700371159251200,1.127251220703125,0.09170154761970042,-0.010648545791674405,0.011785737694636918
1772700371169209300,1.137209228515625,0.07584113066494465,-0.004421031312644481,0.011283683623746037
1772700371179166200,1.147166259765625,0.06836100404262542,-0.007198341405717655,0.0027535650329489725
1772700371189123300,1.157123291015625,0.07344809804856776,-0.008818900945410131,-0.0012441525589092634
1772700371199081200,1.167081298828125,0.08631693197190761,-0.014024789892276748,-0.011163020952721125
1772700371209038300,1.177038330078125,0.07958265528082847,-0.011662417275644838,-0.006659232985269045
1772700371218995500,1.186995361328125,0.08272446043789386,-0.01742777586933225,0.0028924483472539575
1772700371228953300,1.196953369140625,0.07299743167161941,0.01121588821769692,-0.002199485088943038
1772700371238910200,1.20691015625,0.0716518622815609,0.009778238363703713,-0.004332190835278016
1772700371248867300,1.216867431640625,0.07898527390956878,0.014524181648623197,0.005910491268977057
1772700371258825200,1.2268251953125,0.08616846341192722,0.015517430469673126,0.00955309354654164
1772700371268782300,1.2367822265625,0.09185469235479832,0.003829011103091761,0.006886554918141337
1772700371278739200,1.2467392578125,0.0722527507841587,0.010792493440164252,0.010714511141885303
1772700371288697300,1.256697265625,0.07704173862636089,0.006925241819070652,-0.002045836888701888
1772700371298654200,1.266654296875,0.10053659598231315,-0.009439836722193284,0.01447189890553709
1772700371308612400,1.2766123046875,0.0872194337695837,-0.012388320397399365,-0.01154646046248963
1772700371318569200,1.2865693359375,0.08347790915369988,-0.012045069050835445,0.00009832183340913616
1772700371328526300,1.2965263671875,0.07973580001592635,-0.006154796302691102,0.007581462396722053
1772700371338484200,1.306484130859375,0.08033318138718605,-0.0030266908774152397,-0.004228086573409382
1772700371348441300,1.31644140625,0.06955927391648292,-0.0019639935493469237,0.005832498695899266
1772700371358398200,1.326398193359375,0.07958323980271816,0.024126935581257565,0.005525474006764125
1772700371368356400,1.3363564453125,0.07195289105474949,0.01756020660996437,-0.002704822528886143
1772700371378313200,1.346313232421875,0.07000935577154159,-0.011865977023728191,0.015679881889233364
1772700371388270300,1.356270263671875,0.06582125643193722,-0.0009483593665529042,0.011566474628989817
1772700371398228700,1.366228759765625,0.080038582354784,-0.0005643558844923973,-0.006942939589254092
1772700371408185600,1.376185546875,0.08138590531051158,-0.010243161594867706,-0.014425746792426797
1772700371418142700,1.386142822265625,0.0926093101143837,-0.008810745038418099,-0.013349137386726214
1772700371428100900,1.396100830078125,0.08497662327885627,0.002446050578402355,-0.02723573580115335
1772700371438057700,1.4060576171875,0.08093582345545292,-0.0011229122158605605,-0.009348635324381757
1772700371448014800,1.416014892578125,0.09036182344853877,-0.001692373533733189,0.008886458318619407
1772700371457972700,1.42597265625,0.08901625405848025,0.011185082087479531,0.006110249341488815
1772700371467929600,1.4359296875,0.08647358383834361,0.015318921356042845,-0.0010461594685097224
1772700371477886700,1.44588671875,0.08048807968795299,-0.0005494323099963366,-0.00962828794940142
1772700371487844600,1.4558447265625,0.08662322144210338,-0.007906042150501162,0.004223986928671365
1772700371497801700,1.4658017578125,0.0813853207886219,-0.007660716486768797,0.01049613399222726
1772700371507758600,1.475758544921875,0.07869125939905643,-0.00015032259034924208,0.0017211441121355163
1772700371517716700,1.485716796875,0.07659750199019909,0.0010780501608271152,-0.0029634386449208247
1772700371527673600,1.495673583984375,0.07794540946781635,-0.012428588475706055,0.01296009012007853
1772700371537630700,1.505630615234375,0.08378244505822659,0.013622931093117222,0.003951965625080629
1772700371547588600,1.515588623046875,0.06492693794071674,0.006933863516943529,-0.007073736066048149
1772700371557545700,1.525545654296875,0.07196165888309479,-0.0006448555084876716,-0.011400129060668404
1772700371567502800,1.5355029296875,0.07974398332238197,0.011186351595958694,0.012328986859018913
1772700371577460700,1.545460693359375,0.07226268765628338,0.010413732388801873,0.007807490275762392
1772700371587417600,1.55541748046875,0.08288754204511642,-0.009857167085120454,0.003732907484588213
1772700371597374700,1.565374755859375,0.08154138813316822,-0.007589697077171877,-0.0025398041220818413
1772700371607332600,1.57533251953125,0.07854980510175227,0.0006524268935900181,0.006829976738317054
1772700371617289700,1.585289794921875,0.07989595901370047,0.002781392613146454,0.006621397180177155
1772700371627246600,1.59524658203125,0.07974632140994072,0.010421787831094115,0.004461186938986066
1772700371637204700,1.605204833984375,0.09620879591107367,0.009040480407373978,0.014179306883842217
1772700371647161600,1.61516162109375,0.06882452990114689,0.012618137964745983,0.002024971626364277
1772700371657118700,1.62511865234375,0.08423720308840274,0.001635948905069381,-0.013138478894287254
1772700371667076600,1.63507666015625,0.08274082705080509,0.007194742942834273,-0.008359840057807742
1772700371677033700,1.64503369140625,0.08169219478070736,0.018752110675117,-0.004449720834300387
1772700371686990800,1.654990966796875,0.07600596583783627,-0.00205763578270562,-0.002118608722323552
1772700371696948700,1.66494873046875,0.0788496648311615,0.0002502027682494372,0.011717893197882221
1772700371706905600,1.674905517578125,0.0644838703483343,0.006939389075431972,0.008387362248150747
1772700371716862700,1.68486279296875,0.08603110076785087,-0.0013855908731929957,0.005464001026935875
1772700371726820600,1.694820556640625,0.08528174370527267,-0.003146718794200569,0.0062970092226431
1772700371736777700,1.70477783203125,0.07929623955488205,-0.00823607782246545,0.0006431087926845066
1772700371746734600,1.714734619140625,0.07420856102705001,-0.012289006475079804,0.011941042420780286
1772700371756692700,1.724692626953125,0.08378478314578533,0.003197407801821828,0.00021216089635854585
1772700371766649600,1.734649658203125,0.06687631844282149,0.019560239587072283,-0.012557333988486788
1772700371776606700,1.744606689453125,0.062088499644398686,0.011424352469760923,-0.00465832665025955
1772700371786564600,1.754564697265625,0.08468436233401298,0.004619759621983394,-0.0048384136203880185
1772700371796521700,1.764521728515625,0.08468377781212329,0.010069786922493948,-0.0009515873658558121
1772700371806478800,1.774478759765625,0.08977379442751407,0.01406399852465838,0.00815346216073085
1772700371816436700,1.784436767578125,0.08513502871096133,-0.011380047537153586,0.0002603205909981625
1772700371826393600,1.7943935546875,0.06388590445518494,-0.01759100360702723,0.010479036726953926
1772700371836350700,1.804350830078125,0.07091887183189392,-0.006203768277261406,-0.0007162944723706459
1772700371846308600,1.81430859375,0.06837327900230884,0.002548533705342561,-0.003398315510159591
1772700371856265700,1.824265625,0.06897124489545822,-0.0028725414953194557,0.006416043908873689
1772700371866223900,1.834223876953125,0.08049334038496017,0.008474672351311892,0.0055454693361331004
1772700371876180700,1.8441806640625,0.08498188397586345,-0.007189984569326043,0.015153140901657753
1772700371886137600,1.8541376953125,0.07226210313439368,0.004724927896354347,-0.000407369516271865
1772700371896095700,1.864095703125,0.08767536084353923,-0.0002691723302006721,0.007241890569787938
1772700371906052600,1.874052490234375,0.06777531310915946,0.006937909504398703,0.0011093312150798737
1772700371916009700,1.884009765625,0.0918681363582611,-0.008715997693361713,-0.01271905475568492
1772700371925967600,1.893967529296875,0.09695581488609313,-0.0010863156656734645,-0.0010176469017227645
1772700371935924700,1.9039248046875,0.09546002337038516,0.008384774711309,-0.005803496934522991
1772700371945881600,1.913881591796875,0.08199322355389595,0.005624123492091894,-0.013899518403148976
1772700371955839700,1.92383984375,0.09486322652101516,-0.00363616454526782,0.013725245256698689
1772700371965796600,1.933796630859375,0.0782522834599018,0.011410890199989079,0.005776437680950039
1772700371975753700,1.943753662109375,0.06942191127240657,-0.004341709865583107,0.014942461859621106
1772700371985711900,1.9537119140625,0.08438508712649345,0.009958179774181918,0.02783965879434254
1772700371995668700,1.963668701171875,0.08034604086875916,0.018309956398187204,0.004036466712402762
1772700372005625600,1.97362548828125,0.06972177100181579,-0.002894954256527126,0.010571952874527777
1772700372015583700,1.983583740234375,0.08648176714479923,-0.0022327914202120154,0.008011417062493274
1772700372025540600,1.99354052734375,0.08259002040326595,-0.004947393274307251,-0.013380722118366975
1772700372035497700,2.003497802734375,0.0665799658447504,-0.008709933278756216,-0.0005637342591624473
1772700372045455600,2.01345556640625,0.08408756548464298,-0.003171223047794774,0.0012630102397175505
1772700372055412700,2.023412841796875,0.06732815386354923,0.009837357272952794,0.004175187913214904
1772700372065369600,2.03336962890625,0.08259177396893501,-0.004759250291064381,-0.0019147224639658816
1772700372075327700,2.04332763671875,0.09980009840130806,0.010690594835113733,0.013510068136057816
1772700372085284600,2.05328466796875,0.06837795517742633,-0.0016946568223647773,0.00973025961968815
1772700372095241700,2.06324169921875,0.07615969509482383,0.0009522774898447096,0.013010327036550733
1772700372105199900,2.073199951171875,0.0867833804398775,0.016447879720199853,0.0003356462829542579
1772700372115156700,2.08315673828125,0.09486498008668422,0.010305440575582907,0.02074530976935057
1772700372125113600,2.093113525390625,0.08079904533326625,-0.000008776961499825119,-0.007811392416033777
1772700372135071700,2.10307177734375,0.09157295280396938,-0.020534911571815608,-0.0004921971138683147
1772700372145028600,2.113028564453125,0.08214578376710414,0.0016167784137185663,0.003974221981017035
1772700372154985700,2.12298583984375,0.07990005066692829,-0.006547704610414803,0.005682133293888182
1772700372164943600,2.132943603515625,0.08304360938966274,-0.011952860722737386,0.006636993753997376
1772700372174900700,2.142900634765625,0.0987573113501072,-0.007133244846831075,-0.0017298000593378674
1772700372184857600,2.152857666015625,0.07167232054769992,0.016798725284752434,0.014866624711011536
1772700372194815700,2.162815673828125,0.07032616663575172,0.015955438294447958,0.004428815043589566
1772700372204772600,2.172772705078125,0.09381985494792461,0.008414146936265752,0.005699266520957462
1772700372214729700,2.182729736328125,0.07556582085490227,-0.006494640982616692,-0.0012263725903350858
1772700372224687900,2.19268798828125,0.07975508923828602,-0.004420309793436899,0.005466808330308413
1772700372234644700,2.202644775390625,0.08499240536987782,-0.0063503645405638956,0.009306926490948535
1772700372244601600,2.2126015625,0.09112813164591789,0.01182790546908509,0.0028181900927331297
1772700372254559700,2.222559814453125,0.08155366309285163,-0.0075428942268015815,-0.00437039196655096
1772700372264516600,2.2325166015625,0.07452069571614266,0.005803800041088834,-0.010197333708743098
1772700372274473700,2.2424736328125,0.08544365626871585,0.01127621270334348,0.0131861745105125
1772700372284431600,2.252431640625,0.09741524909138678,0.006690149854985066,0.0069856519280408974
1772700372294388700,2.262388671875,0.08095452815592288,0.021460807944810947,-0.008386948402086272
1772700372304345600,2.272345703125,0.0773638101875782,0.01552867794947233,-0.004916354819471599
1772700372314303700,2.2823037109375,0.08170388521850108,0.009357615498569793,0.0012699971029302105
1772700372324260600,2.292260498046875,0.09277648337483406,-0.002872751557873562,0.01091437881225138
1772700372334217700,2.3022177734375,0.07900865478515624,0.013016800159821287,0.0022637482474790883
1772700372344175900,2.31217578125,0.07885901718139648,0.00704841610759031,0.0029750554466561876
1772700372354132700,2.3221328125,0.058359249988198275,-0.0071180472776992245,-0.001087072575854836
1772700372364089600,2.332089599609375,0.0839472802311182,-0.0020331406622659414,-0.002080840845068451
1772700372374047700,2.3420478515625,0.08858370786011219,0.0012626129474956542,0.013902430737798567
1772700372384004600,2.352004638671875,0.08738543798625469,0.005934363051620312,0.006155905980966054
1772700372393961700,2.361961669921875,0.0896288329988718,0.024626427802303806,0.001752873832604382
1772700372403919400,2.37191943359375,0.09815700736939907,0.021537503609945996,-0.014728554247459396
1772700372413876500,2.38187646484375,0.07945289142131805,0.009334225489827803,0.0074816975248977536
1772700372423833300,2.391833251953125,0.08079904533326625,-0.005413668212341145,0.010521389447781257
1772700372433791500,2.40179150390625,0.07047463519573212,0.004238075961172581,-0.007355116569739766
1772700372443748400,2.411748291015625,0.06149579444825649,-0.000026440482353791594,0.014394707766768988
1772700372453705500,2.42170556640625,0.083041271302104,-0.003147677775425836,0.005748253336903872
1772700372463663400,2.431663330078125,0.08229074519574642,0.004053759769676253,0.004073026159149594
1772700372473620500,2.441620361328125,0.07555646850466728,0.009662411698000506,-0.011346492327423765
1772700372483577600,2.45157763671875,0.08588029412031173,0.0056376222944818435,-0.0004991337447310798
1772700372493535500,2.461535400390625,0.08587970959842205,0.0030340978657361116,0.007525907701026881
1772700372503492400,2.471492431640625,0.08019289613366126,0.005801662882929668,-0.001933777649240801
1772700372513449500,2.481449462890625,0.07136603107750415,0.005826568995323032,-0.01692699815678643
1772700372523407400,2.491407470703125,0.07046878997683524,-0.006677550668315962,-0.00045743632774101567
1772700372533364500,2.501364501953125,0.090818335044384,-0.008721030061505734,0.01015964917152305
1772700372543322600,2.511322509765625,0.08707564138472079,0.010064608423877507,0.01211508038850152
1772700372553279500,2.521279541015625,0.08049158681929111,-0.016446117021376265,0.008588428074226249
1772700372563236400,2.531236328125,0.0774988347440958,-0.006431731814239174,-0.027874355648388152
1772700372573194500,2.541194580078125,0.07495558000206946,0.008193526455527171,-0.020273025215638334
1772700372583151400,2.5511513671875,0.0827355663537979,0.0032753592757042496,0.00344484322424978
1772700372593108500,2.5611083984375,0.07136193942427635,-0.004669096922734752,0.006383021276217186
1772700372603066400,2.57106640625,0.07166238367557526,-0.0036883513902314004,0.0015752956258598715
1772700372613023500,2.5810234375,0.0836333919763565,0.005799105599662288,0.0066880926119280044
1772700372622980400,2.59098046875,0.06836860282719134,0.013522849985817447,0.017550992398691595
1772700372632938500,2.6009384765625,0.07779694090783595,0.004105718285776674,-0.0046635713642463085
1772700372642895400,2.610895263671875,0.08048983325362205,0.008943787700403482,0.010516734963905764
1772700372652852500,2.6208525390625,0.07345686587691307,0.002067289527039975,0.006146491981938016
1772700372662810600,2.630810546875,0.08587561794519424,-0.013791994916554539,-0.015942920164525275
1772700372672767500,2.640767578125,0.07540157020390033,0.007059627054771408,-0.006984797978092683
1772700372682724400,2.650724365234375,0.0685194094747305,-0.008802123340545222,-0.0035969935871486085
1772700372692682500,2.6606826171875,0.07435644506514072,0.0024231537600047886,-0.013057666459749453
1772700372702639400,2.670639404296875,0.0881213510453701,-0.0040716333530843255,-0.0037518964544928164
1772700372712596500,2.680596435546875,0.0947048210889101,0.006042750762961804,0.01679668288307148
1772700372722554400,2.690554443359375,0.0891664761841297,-0.006718595064757391,0.01745746090483153
1772700372732511500,2.700511474609375,0.07345218970179557,0.009913025458203628,-0.00033284297533682543
1772700372742468400,2.71046826171875,0.0920078370898962,0.007108809091895818,0.004611657372274203
1772700372752426500,2.720426513671875,0.0951490577250719,0.000801863567950204,0.003955366012675222
1772700372762383400,2.73038330078125,0.0592342792570591,-0.0008710289471782743,0.014946578629023861
1772700372772340500,2.740340576171875,0.08093114728033542,-0.0005417969928123057,-0.007431898999842815
1772700372782298600,2.750298583984375,0.09484744442999363,0.0014030808641109615,0.009939605221163947
1772700372792255500,2.76025537109375,0.08422200551927089,-0.002023633048404008,0.011579267895192607
1772700372802212400,2.77021240234375,0.06925707609951495,-0.009628061903826892,0.007480575288535328
1772700372812170500,2.78017041015625,0.0688064097225666,-0.010099889799812809,-0.00738148855343461
1772700372822127400,2.79012744140625,0.07449263866543769,0.0024792861277237533,-0.008516588964010589
1772700372832084500,2.80008447265625,0.08347089489102363,0.005298124674428254,-0.006133228358277119
1772700372842042400,2.81004248046875,0.0837684165328741,0.011696027284301816,-0.008115125173784326
1772700372851999500,2.81999951171875,0.07628712086677551,0.004846955973980948,-0.007342424909881083
1772700372861956400,2.829956298828125,0.08616261819303035,0.008983644786756485,-0.010946608572930562
1772700372871914500,2.83991455078125,0.07254618077278137,-0.012871455138688906,0.0008241575981490313
1772700372881871400,2.849871337890625,0.08496610188484191,-0.000029353958647698162,0.009468018212128664
1772700372891828500,2.859828369140625,0.08616554080247879,-0.0009660502868704497,0.0001625518842600286
1772700372901786600,2.86978662109375,0.09110358172655104,-0.015159246415458618,0.00446578376982361
1772700372911743500,2.879743408203125,0.0761392368286848,0.00523440265529789,-0.002857180671050446
1772700372921700400,2.889700439453125,0.07643734299242497,0.004163238892983645,0.012028501508524641
1772700372931658500,2.899658447265625,0.08541501469612121,-0.001761995570687577,-0.003195593729004031
1772700372941615400,2.909615478515625,0.07030161671638488,0.004981149413436651,0.001055023194977548
1772700372951572500,2.919572509765625,0.08766133231818675,0.0044372152624651785,0.0047173405282315796
1772700372961530400,2.9295302734375,0.07823474780321121,0.0009408884461503475,-0.00715713032920612
1772700372971487500,2.939487548828125,0.07150105563402176,0.0004385740803554654,-0.0012479234100843313
1772700372981444400,2.9494443359375,0.06671440587937831,0.005327752627711743,0.006710565880284411
1772700372991402500,2.959402587890625,0.07150280919969082,-0.0006820000479463487,-0.009961121791583719
1772700373001359400,2.969359375,0.08377367722988129,-0.017092881359159946,0.003612161473528249
1772700373011316500,2.97931640625,0.09230185160040855,-0.012154758236696943,0.003243284778652014
1772700373021274600,2.989274658203125,0.07973170836269855,0.00005141052682884037,0.0033386451867059804
1772700373031231500,2.9992314453125,0.07943243315517902,0.008409352030139415,0.003113117918698117
1772700373041188400,3.009188232421875,0.093048870575428,0.01165905627477914,0.01020236836017575
1772700373051146500,3.019146484375,0.09379764311611652,0.0027032676093280313,0.008137749139190418
1772700373061103400,3.029103271484375,0.08422083647549151,0.00913628719835542,-0.009810319710621842
1772700373071060500,3.039060546875,0.08811082965135573,0.015395119264256208,0.0047231743306852874
1772700373081018400,3.049018310546875,0.07524199572801589,0.0011749894629698246,0.0017075060291390398
1772700373090975500,3.0589755859375,0.07434358558356761,0.009035283642448485,-0.007144195499108172
1772700373100932400,3.068932373046875,0.07763444382250309,-0.004255428954772651,0.007311227195663377
1772700373110890500,3.078890380859375,0.07598843018114566,-0.00844572938461788,0.00005586179801612161
1772700373120847400,3.088847412109375,0.07478957578539848,0.00507177770580165,0.00844090022916207
1772700373130805500,3.098805419921875,0.07299217097461223,0.0008713668738957494,-0.0028640316785895265
1772700373140762600,3.1087626953125,0.0587765986174345,0.0029700561861973254,0.0004400605012546293
1772700373150719500,3.118719482421875,0.08032324451506137,0.006268038285663351,0.025117887413944117
1772700373160676400,3.12867626953125,0.08630757962167263,0.013888614558288827,0.006822130787756759
1772700373170634500,3.138634521484375,0.07643325133919715,-0.008324212763644754,0.004888837195705855
1772700373180591400,3.14859130859375,0.0696995591700077,0.013340104696899651,0.008488568445923737
1772700373190549200,3.15854931640625,0.06984861225187779,0.008044610370974987,0.01891961843735189
1772700373200506400,3.16850634765625,0.08137070774137974,0.002078422842407599,0.004691816786263371
1772700373210463500,3.17846337890625,0.07179331657886505,-0.010849292528163641,-0.012713822599785634
1772700373220421600,3.188421630859375,0.07673018845915794,0.005883788208430633,-0.013196104532771277
1772700373230378500,3.19837841796875,0.08346446515023707,-0.0028246015672106295,-0.0014240106293524149
1772700373240335400,3.20833544921875,0.0734381611764431,0.011429677098849787,0.001409654452081304
1772700373250293500,3.21829345703125,0.09184358643889427,0.013571575365215539,0.005460263283445965
1772700373260250600,3.228250732421875,0.08226619527637959,0.014539762810245155,0.011668131205445388
1772700373270207500,3.23820751953125,0.08211655767261981,0.016347186691546813,0.00754100252217031
1772700373280165400,3.248165283203125,0.07687924154102801,0.002442470381828025,-0.0071509996992303055
1772700373290122500,3.25812255859375,0.06849953573048115,0.0014851696569938213,0.011528825482743558
1772700373300079400,3.268079345703125,0.07717734770476818,0.0014025968069210648,0.002824852728960104
1772700373310037200,3.278037353515625,0.08735328928232193,-0.0012692892834544182,0.0012534135775989852
1772700373319994400,3.287994384765625,0.07223813773691654,-0.013269761140737682,-0.010840517849952448
1772700373329951500,3.297951416015625,0.06445522877573967,-0.004226093262434005,0.0032814077072893266
1772700373339909600,3.30790966796875,0.0845049141138792,0.005179311467194929,0.007684609960654051
1772700373349866500,3.317866455078125,0.07896656920909881,0.003060501815471798,-0.017052266220981254
1772700373359823400,3.3278232421875,0.08510054191946982,0.01009152383026667,-0.011364805443893419
1772700373369781500,3.337781494140625,0.0804617762029171,-0.0029192119149491188,0.000011103632615413517
1772700373379738600,3.347738525390625,0.07238076107800007,0.0047784664481878274,-0.012051219088764628
1772700373389695500,3.357695556640625,0.07537351315319538,0.000009297551307827233,-0.013272786498174536
1772700373399653600,3.367653564453125,0.07372749951183795,-0.012244984670262783,-0.0022593951577029657
1772700373409610800,3.37761083984375,0.08225684292614459,-0.00008287424417212605,-0.007610994451883016
1772700373419567600,3.387567626953125,0.0852501795232296,0.0005619447316974401,0.011627084525715327
1772700373429525500,3.397525390625,0.0759738171339035,0.004306665951665491,0.01372175182509236
1772700373439482600,3.407482666015625,0.07387889068126678,0.0063464372841175645,0.01411080023338436
1772700373449439700,3.417439697265625,0.09063830230236053,-0.01113039275817573,-0.011923360633617265
1772700373459397600,3.427397705078125,0.07672258967459201,-0.007680142706446349,0.003081905363104306
1772700373469354800,3.437354736328125,0.0937812765032053,0.0046012101851403715,-0.006320679505064618
1772700373479311600,3.4473115234375,0.0828577314287424,-0.0008018361684866249,-0.015577423878468107
1772700373489269800,3.457269775390625,0.07747077769339084,-0.004370862894831225,0.0010232044262520504
1772700373499226600,3.4672265625,0.07343114691376686,0.008721249257214366,-0.0005341525424737483
1772700373509183700,3.477183837890625,0.07866729400157928,0.00976209094650112,-0.007823761561373248
1772700373519141600,3.4871416015625,0.07223170799612999,-0.02524214854785241,-0.012590114021726185
1772700373529098800,3.4970986328125,0.08644728035330772,-0.004291669311933219,-0.001488685921486467
1772700373539055600,3.5070556640625,0.08211012793183327,-0.008763252634881064,-0.0020153732517792376
1772700373549013500,3.517013427734375,0.0948310778170824,-0.011134931935975327,-0.0064523921514221
1772700373558970600,3.526970703125,0.0883960763335228,-0.0034104660306125876,0.01634161775057437
1772700373568927700,3.536927734375,0.09303542657196522,0.0002168210884556174,0.007345134031842462
1772700373578885600,3.5468857421875,0.062059858071804044,-0.009412665587477385,0.007291576072055613
1772700373588842800,3.5568427734375,0.06984042894542217,0.007383753575757146,-0.007629703718930249
1772700373598799600,3.566799560546875,0.09243629163503646,0.0001548343686852604,-0.013015158475295174
1772700373608757800,3.5767578125,0.09048983374238014,0.0043701687750872225,-0.009834949545090784
1772700373618714600,3.586714599609375,0.08465396719574927,-0.005404726854059845,-0.0023015572239295577
1772700373628671700,3.596671630859375,0.09123685271739959,-0.01521015461878851,-0.006768818281497806
1772700373638629600,3.606629638671875,0.0830061999887228,-0.002409033903107047,0.006751631967967841
1772700373648586800,3.616586669921875,0.0886918444097042,-0.010762965951580553,-0.02008942141019506
1772700373658543600,3.626543701171875,0.07492518486380577,-0.0013241795421577989,0.0017016379773558581
1772700373668501500,3.63650146484375,0.07821896571218967,-0.0015954798973631112,0.0040351190012879665
1772700373678458600,3.646458740234375,0.07657353659272194,-0.012621919090719892,0.006477195515827042
1772700373688415700,3.656415771484375,0.08031447668671607,0.0024844372268766164,0.015721893258410273
1772700373698373600,3.66637353515625,0.0819604903280735,0.011930548426229506,-0.0027834064737195146
1772700373708330800,3.676330810546875,0.07043897936046123,0.008868603572342544,0.009254289838124532
1772700373718288600,3.68628857421875,0.06161269882619381,-0.0020754819666501134,0.005284694370697252
1772700373728245800,3.696245849609375,0.08151742273569107,-0.010309760557673872,-0.007692963372112717
1772700373738202600,3.70620263671875,0.08540800043344497,-0.012206470157625153,-0.006510830640658969
1772700373748160500,3.716160400390625,0.07209083822071552,-0.004831667073303833,-0.0003163576314167585
1772700373758117600,3.72611767578125,0.08106909444630146,0.00205986427241005,-0.006335601937916362
1772700373768074800,3.73607470703125,0.09423603453338146,-0.0008835870346520096,0.0013188400716928298
1772700373778033000,3.746032958984375,0.08540800043344497,0.004991396812815219,0.006234797028120374
1772700373787989500,3.755989501953125,0.08196692006886006,-0.0021377335479017346,0.009589853351865895
1772700373797946600,3.765946533203125,0.06760287915170192,0.006062633640365675,0.008833435219194507
1772700373807904800,3.77590478515625,0.08241583288013934,0.006550243627373129,-0.0030656220902281345
1772700373817861600,3.785861572265625,0.08196808911263942,0.002632522194366902,0.002772410155669786
1772700373827818800,3.79581884765625,0.0800216312199831,-0.0006049801558256149,-0.0017938748465618117
1772700373837776600,3.805776611328125,0.08630699509978294,-0.006546252438845113,0.007432356799213448
1772700373847733800,3.815733642578125,0.0782265644967556,-0.003011895167082548,-0.004521661550860153
1772700373857690600,3.825690673828125,0.07807575784921646,0.0007187975275330245,-0.006163359776703873
1772700373867648500,3.8356484375,0.07882394586801529,-0.0006170633192639798,0.00005168223817599937
1772700373877605600,3.845605712890625,0.07418459562957286,-0.00634316761479713,0.0014262322691909503
1772700373887562800,3.855562744140625,0.07852350161671638,0.009170125535875559,0.0036094135356601327
1772700373897521000,3.86552099609375,0.07253741294443607,0.0025224128833971917,-0.010556221015856135
1772700373907477500,3.8754775390625,0.0794201581954956,0.006204727258486673,-0.015778229980461765
1772700373917434600,3.8854345703125,0.07403378898203372,0.0021995467377360907,-0.011617429639736655
1772700373927392800,3.895392822265625,0.07747486934661865,0.008726382090058177,-0.0042107187384332065
1772700373937349600,3.905349609375,0.09154080410003662,-0.013733752790139987,0.0005627267580537591
1772700373947306800,3.915306640625,0.07328443191945552,-0.003296621259441599,0.003000554072449449
1772700373957264600,3.9252646484375,0.09243687615692615,-0.022916180685162543,-0.0031546201145101803
1772700373967221800,3.9352216796875,0.09812252057790756,-0.016526433982281014,-0.005766137195110786
1772700373977178600,3.9451787109375,0.08405658582448959,0.00007980550425127149,0.0016222811393206938
1772700373987136500,3.955136474609375,0.08704992242157458,0.005510050392057746,0.0010821851965389215
1772700373997093600,3.96509375,0.0683446374297142,0.0067991312213707715,0.013623215362551854
1772700374007050800,3.97505078125,0.09348141677379608,0.0026403767072595654,-0.005016736750048585
1772700374017009000,3.9850087890625,0.08584931446015834,-0.0024956253411713984,-0.016006781464262165
1772700374026965500,3.994965576171875,0.09318214156627655,0.0013003146093804388,-0.009113095835724378
1772700374036922600,4.004922607421875,0.07911679133474826,0.006020721594244241,-0.0032994513957004526
1772700374046880800,4.014880859375,0.08450666767954826,-0.013097089721262454,-0.004608693663630401
1772700374056837600,4.024837646484375,0.0780740042835474,-0.004367574959201738,-0.0015161105012404732
1772700374066794800,4.034794677734375,0.08151508464813231,-0.005045602084929123,-0.00855714701997349
1772700374076752600,4.044752685546875,0.08301087616384029,-0.00940023536416702,-0.004146113086602418
1772700374086709800,4.054709716796875,0.08660393221974372,-0.002028592351311818,0.007820483900542604
1772700374096666600,4.06466650390625,0.07987082457244396,0.01073026925837621,0.02530203692537034
1772700374106624500,4.07462451171875,0.08600655084848403,0.012481597304577007,0.025934263564436694
1772700374116581600,4.08458154296875,0.07074468430876732,0.0041237653991207475,-0.004167958450585138
1772700374126538800,4.094538818359375,0.08107084801197051,0.0033343685870990156,0.008432234007160878
1772700374136497000,4.104496826171875,0.0702963560193777,-0.008989060747390613,-0.0011228323007584549
1772700374146453500,4.11445361328125,0.0693991149187088,0.002695212167035788,-0.010865048361365915
1772700374156410600,4.12441064453125,0.07089666000008582,0.00616406645453535,-0.015424918464187067
1772700374166368800,4.13436865234375,0.09109773650765418,-0.006439887721231207,-0.01475000231922022
1772700374176325600,4.14432568359375,0.0762830292135477,0.007013404159713536,0.0029511813807243012
1772700374186282800,4.15428271484375,0.09259294350147247,0.00682157138204202,0.00550017973530339
1772700374196240600,4.16424072265625,0.08795242421925067,0.004776091828010976,0.004250257306022104
1772700374206197800,4.17419775390625,0.09274258110523223,0.011422087447438388,0.024028215313982217
1772700374216154600,4.184154541015625,0.08541033852100371,-0.00548823128589429,-0.007249001872231019
1772700374226112500,4.194112548828125,0.0816682293832302,-0.004894156116573139,-0.007409900655521778
1772700374236069600,4.204069580078125,0.06326338864266871,0.0008811850150115787,-0.010517432508582714
1772700374246026800,4.21402685546875,0.08361527179777621,-0.007691266888659447,0.009513511596468743
1772700374255984600,4.223984619140625,0.08361468727588653,0.00003927256446331739,0.01015505633644061
1772700374265941500,4.23394140625,0.08630933318734169,-0.004645716047147289,0.009326953215536195
1772700374275898600,4.243898681640625,0.0792763658106327,-0.008687292188685386,-0.017734416965977287
1772700374285856800,4.253856689453125,0.09139642719328403,0.00008864639783278107,-0.01330221808863571
1772700374295813600,4.263813720703125,0.08645955531299114,0.0002190130455419421,-0.005752855305140837
1772700374305771500,4.273771484375,0.07628478277921676,0.0036889998442027716,-0.0007792042115703225
1772700374315728600,4.283728759765625,0.0872065742880106,0.006820922928070649,0.0063369981689145784
1772700374325685800,4.293685791015625,0.07837854018807411,-0.0008799155065324157,0.009987445826217299
1772700374335643600,4.3036435546875,0.08256956213712692,-0.005818997610220685,0.009864410818304168
1772700374345600500,4.3136005859375,0.051147418913245195,0.00483235205989331,0.006393815523223019
1772700374355557600,4.3235576171875,0.07883096013069152,-0.003944298912677914,0.01136751684914343
1772700374365515800,4.333515869140625,0.07508943551480769,-0.012878323270892724,0.0018001036579487844
1772700374375472600,4.34347265625,0.07883154465258121,-0.009610453181900083,-0.00002429761597304605
1772700374385429500,4.353429443359375,0.07913081986010075,0.0037065263677388428,-0.01006525345291593
1772700374395387600,4.3633876953125,0.08706336642503738,-0.007310085551347583,-0.011832486887724371
1772700374405344500,4.373344482421875,0.08960779021084309,0.012629517875285818,0.01116279719043523
1772700374415301600,4.383301513671875,0.07883388274013996,0.01576979779554531,0.0065055727977625785
1772700374425259500,4.393259521484375,0.09993336939215659,0.022126299815950913,-0.0018203415867348667
1772700374435216400,4.40321630859375,0.07808627924323082,0.007473559884214774,-0.0007638622244325233
1772700374445173500,4.413173583984375,0.07404489489793777,0.0006244337749667466,0.00011842733145458623
1772700374455131600,4.423131591796875,0.08691314429938793,0.0068442490047309545,0.00988964572426048
1772700374465088500,4.433088623046875,0.07254734981656075,-0.009545315523818135,0.0077408844630903325
1772700374475045400,4.44304541015625,0.08945698356330395,-0.012031022259173914,0.008727400436787866
1772700374485003500,4.45300341796875,0.06925649157762527,-0.01678522191578522,0.01543281065134215
1772700374494960600,4.462960693359375,0.06985504199266433,0.0001126757273916155,0.005823041314387228
1772700374504917500,4.47291748046875,0.08122749987840652,0.0020716825743671507,0.0016655391840904483
1772700374514875600,4.482875732421875,0.08586626559495926,0.005965219414187595,0.003334814970026491
1772700374524832500,4.49283251953125,0.0782353323251009,0.0039229547305498266,0.012348893710953416
1772700374534789600,4.50278955078125,0.06820785930752754,0.018855196590255946,-0.009224777190916938
1772700374544747500,4.51274755859375,0.06491641654670238,0.013499094650894402,0.0017264630330028011
1772700374554704400,4.522704345703125,0.0788321291744709,0.0026899971358012404,-0.005699665525645832
1772700374564661500,4.53266162109375,0.07299684714972972,-0.013435290433373302,-0.013267434469622093
1772700374574619600,4.54261962890625,0.09140285693407058,-0.007515252734627574,0.014894188571372069
1772700374584576500,4.552576416015625,0.07359598208665848,-0.0038784032027702775,-0.004503275369154289
1772700374594533400,4.562533447265625,0.06940612918138504,0.0012103439041413367,0.0032359126104827734
1772700374604491500,4.572491455078125,0.08826163629889487,0.0035455088534392413,0.018722590036399197
1772700374614448600,4.58244873046875,0.07793664163947105,-0.0012366930549498646,0.005966801162387128
1772700374624405500,4.592405517578125,0.07973170836269855,0.009176162551017478,0.007408832647264353
1772700374634363600,4.60236376953125,0.06955518226325512,0.006830795868113636,0.014086847393994684
1772700374644320500,4.612320556640625,0.07883446726202964,-0.0023012170139234513,0.01878169296262786
1772700374654277600,4.622277587890625,0.07195113748908043,0.004168326060054824,-0.007738439060965901
1772700374664235500,4.632235595703125,0.07988368405401707,-0.004778356850333511,0.002058836221703677
1772700374674192400,4.6421923828125,0.07195406009852885,-0.005207377651054412,-0.011602928473637438
1772700374684149500,4.6521494140625,0.06237608441412448,-0.0013213665305636822,-0.022649759717762934
1772700374694107600,4.662107666015625,0.057138183760643,0.003138508088281378,-0.02786292322220979
1772700374704064500,4.672064453125,0.0839209767460823,0.0010058434411417691,-0.001552236123147304
1772700374714021400,4.682021484375,0.06910568493008613,-0.006566244914103299,0.021641388676106
1772700374723979500,4.6919794921875,0.07165010871589184,0.010220219110697508,0.014203518876491579
1772700374733936600,4.7019365234375,0.09005611850023269,0.01659460384766571,0.013637322661362122
1772700374743893500,4.7118935546875,0.070305123847723,0.010728059034980832,0.00206432125181891
1772700374753851600,4.7218515625,0.08063011850714683,-0.005729803223116323,0.003593908293385175
1772700374763808500,4.73180859375,0.07135434063971043,-0.0022245350485201923,0.004527857254561968
1772700374773765600,4.741765625,0.08033435043096541,-0.005197404246311634,-0.003980879479844588
1772700374783723500,4.7517236328125,0.08212883263230324,0.010229626259859652,-0.014729399064253083
1772700374793680400,4.761680419921875,0.07060732166469097,-0.002128709991229698,0.008526671966607682
1772700374803638500,4.771638427734375,0.07973463097214699,-0.006516661018179729,-0.007221367229922907
1772700374813595600,4.781595703125,0.07120411851406097,-0.0026416736152023077,-0.001369076417342876
1772700374823552500,4.791552490234375,0.09335048387050628,-0.002631444482132792,-0.007138169329587253
1772700374833510700,4.8015107421875,0.07299976975917816,0.018035221976879984,0.00027639722625317516
1772700374843467500,4.811467529296875,0.07599369087815284,-0.0008224222987890243,-0.0007832701778010232
1772700374853424600,4.821424560546875,0.0813812291353941,0.00856670714947395,0.00701326202499622
1772700374863382500,4.831382568359375,0.07778992664515971,0.006423585040401667,0.014507483958860392
1772700374873339600,4.841339599609375,0.08257774544358253,-0.010798110330197959,0.02035155436154455
1772700374883296500,4.851296630859375,0.08302841182053089,-0.010790009222133084,0.004460254215580062
1772700374893254400,4.86125439453125,0.08123100700974464,-0.0057529009709134694,0.01311031795394956
1772700374903211500,4.87121142578125,0.07300093880295754,-0.013201235082326457,-0.0028304016911570216
1772700374913168400,4.88116845703125,0.07285071667730808,-0.007033241371344774,0.01966092804914806
1772700374923126500,4.89112646484375,0.0688105013757944,-0.007442963816551491,0.010887914355366957
1772700374933083600,4.901083740234375,0.07524491833746433,0.004955722711235284,0.014223111776239238
1772700374943040500,4.91104052734375,0.08527005326747894,0.022240610378002748,0.006787574926784145
1772700374952998700,4.92099853515625,0.07838730801641941,0.010754682180425152,0.009365405508558614
1772700374962955500,4.93095556640625,0.08452478785812854,0.012064687066758051,0.006715779199052485
1772700374972912600,4.94091259765625,0.08063479468226432,0.014274974394217132,0.009061379919041063
1772700374982870500,4.95087060546875,0.06881283946335315,-0.003319627675693482,0.009289027220543356
1772700374992827600,4.96082763671875,0.08048398803472519,-0.016219642188586295,0.018607404974801466
1772700375002784500,4.970784423828125,0.08347615558803081,0.007150456276535987,-0.0012069566454563755
1772700375012742400,4.980742431640625,0.07554419354498386,-0.012286257395567372,0.005903342292271554
1772700375022699500,4.990699462890625,0.07449439223110675,-0.011793112716916947,-0.004851697793646599
1772700375032656400,5.000656494140625,0.0866138690918684,0.004664703875407576,0.0037106922278471754
1772700375042614500,5.010614501953125,0.07389350372850895,-0.00039793154271319504,0.008690275876104716
1772700375052571600,5.020571533203125,0.08077683350145816,0.010495738983293994,0.0013528256813297047
1772700375062528500,5.030528564453125,0.08406827626228332,-0.0009505878562573343,0.007701546254078857
1772700375072486700,5.040486572265625,0.09185001617968082,0.0010959785431623459,0.0009213497745076892
1772700375082443500,5.050443603515625,0.06745850224494934,0.00011727883727289736,-0.013509360316582023
1772700375092400600,5.060400634765625,0.08077800254523754,0.00019619842553511262,0.0017444547765975585
1772700375102358500,5.070358642578125,0.07284837858974934,-0.0184827556818258,0.007286484909229329
1772700375112315600,5.080315673828125,0.0724012193441391,0.0026313166179694233,0.0033862437631643843
1772700375122272500,5.0902724609375,0.08691840499639511,0.005038861816888675,0.0019504302440531318
1772700375132230400,5.10023046875,0.08287877421677112,-0.010619748955452814,0.015255670836014906
1772700375142187500,5.1101875,0.07255377955734729,0.006476493404572829,0.004078122459375299
1772700375152144400,5.120144287109375,0.09080898269414901,0.006234053817670792,0.014802160623075905
1772700375162102500,5.1301025390625,0.08422492812871933,-0.0009560220832005142,0.021934809531574135
1772700375172059600,5.1400595703125,0.06926116775274277,0.011775787122780457,0.006399899916604044
1772700375182016500,5.1500166015625,0.08407470600306988,-0.00388037596414797,0.0021789491909905336
1772700375191974700,5.159974609375,0.07913491151332855,-0.0015425624000374226,-0.0018244966012221993
1772700375201931500,5.169931640625,0.07524374929368495,-0.017168385147629306,-0.01735788326267502
1772700375211888600,5.179888671875,0.07479542100429534,-0.00464508585948497,-0.009163429221141267
1772700375221846500,5.189846435546875,0.0807797561109066,0.007020107895135879,0.0032294314957020103
1772700375231803600,5.1998037109375,0.08167758173346519,-0.006721946932468563,0.00861234438099782
1772700375241760500,5.209760498046875,0.06417173565924167,0.0016968579126056282,0.009267552320141112
1772700375251718400,5.219718505859375,0.0881125832170248,0.01290074516525492,-0.009857477612374349
1772700375261675500,5.229675537109375,0.09604454526007175,0.012307364115677772,0.01509143502638908
1772700375271632400,5.23963232421875,0.09230302064418792,0.0065461154415272175,0.014427820018504279
1772700375281590500,5.249590576171875,0.08751461732387542,0.0007180942746344953,0.006651355068667908
1772700375291547600,5.259547607421875,0.07404723298549652,-0.013180758549878373,0.0212024218701059
1772700375301504500,5.26950439453125,0.07823767041265964,0.0020067275793757286,0.008043429910752456
1772700375311462700,5.279462646484375,0.08123100700974464,-0.005836999057792127,-0.0003013204633112764
1772700375321419500,5.28941943359375,0.08691782047450541,-0.006860871345968917,0.003110227275290526
1772700375331376600,5.299376708984375,0.08093173180222511,-0.01380869945618324,-0.0006175136979465606
1772700375341334500,5.30933447265625,0.07928747172653675,-0.0019203553370200097,-0.0003216080536250956
1772700375351291600,5.319291748046875,0.07135667872726917,-0.0012723580233752728,0.002282449523016112
1772700375361249500,5.32924951171875,0.08093290084600448,0.02005572235328145,0.004183122912031831
1772700375371206400,5.339206298828125,0.08138181365728378,0.006104353890242054,0.012570879598293686
1772700375381163500,5.34916357421875,0.09155658619105815,0.017150000107567755,0.0179720696382632
1772700375391121700,5.35912158203125,0.072104866746068,0.003834436196880415,0.0034607708749215815
1772700375401078800,5.369078857421875,0.06507189936935902,-0.015658766035968438,0.0045497397219849516
1772700375411036000,5.379035888671875,0.08033610399663448,-0.005481628015171736,0.011524136749538592
1772700375420993800,5.388993896484375,0.08288052778244018,0.0000992225907742977,0.005159257913965848
1772700375430951000,5.398950927734375,0.07973813810348511,-0.005377162993699312,0.01764938843898126
1772700375440907800,5.40890771484375,0.07659457938075065,-0.007044813078129664,0.008973304914188338
1772700375450865700,5.41886572265625,0.0873679023295641,0.01281507617579773,0.0009468541085225296
1772700375460822800,5.42882275390625,0.0734510206580162,0.009898814269760622,0.0002516960390144959
1772700375470780000,5.43877978515625,0.07913783412277699,0.017263324288930744,0.0017707645406771916
1772700375480737800,5.44873779296875,0.08512275375127792,0.033833414749847725,0.004998810651001986
1772700375490694700,5.458694580078125,0.08063304111659526,0.03149330876395106,-0.003555402343079913
1772700375500651800,5.46865185546875,0.08856383411586284,0.004121564308879897,-0.0033234521841513922
1772700375510610000,5.47860986328125,0.0839250683993101,-0.010051995537476613,0.00437236529875081
1772700375520566800,5.48856689453125,0.06806348240077495,-0.023822006951086223,-0.00739178961009602
1772700375530524000,5.49852392578125,0.0848228940218687,-0.012904791152710095,0.0018107506328378803
1772700375540481800,5.508481689453125,0.08961071282029151,-0.0041857703852001575,0.011614529863174539
1772700375550439000,5.51843896484375,0.08167875077724457,-0.004443215744988993,0.020478662756376432
1772700375560395800,5.528395751953125,0.06551788957118988,0.0005138130073435604,-0.009187348382023628
1772700375570353700,5.538353759765625,0.07913666507899761,0.025850407506152986,-0.008415853694517864
1772700375580310800,5.548310791015625,0.09020984775722027,0.009826187424967065,0.0015386054608388803
1772700375590268000,5.558267822265625,0.08033376590907573,0.004898658761754632,0.004574056175089208
1772700375600225800,5.568225830078125,0.08811609034836292,0.022137113470910116,-0.005080489593575476
1772700375610182700,5.5781826171875,0.07584639136195183,-0.006248237606650218,-0.014446966535324462
1772700375620139800,5.588139892578125,0.06731704794764519,-0.0031270094467326995,0.005787338671699399
1772700375630098000,5.598097900390625,0.07539689402878284,-0.016624569727666676,-0.0010661428106133826
1772700375640054800,5.6080546875,0.09275544058680533,-0.0007915613696444779,-0.0017865614730748346
1772700375650012000,5.618011962890625,0.07509761882126331,-0.0047690684321802105,-0.0015488448687072376
1772700375659969800,5.6279697265625,0.07898702747523784,-0.003847487474698573,0.0061654215863381975
1772700375669927000,5.637927001953125,0.08302665825486183,-0.004072126543428749,-0.0024008334719866978
1772700375679883800,5.6478837890625,0.0879641146570444,0.017048311565071344,0.012391480468865483
1772700375689841700,5.657841552734375,0.06073007077276706,0.007373159116506576,0.014857073714665601
1772700375699798800,5.667798828125,0.08766425492763519,0.007262036025384441,0.012452110915188677
1772700375709756000,5.677755859375,0.08616787889003753,0.014653762845043092,-0.006362622375582577
1772700375719713800,5.6877138671875,0.07674246341884136,-0.0075071424934081725,0.01272293063813704
1772700375729670700,5.697670654296875,0.0786877522677183,0.007635810374375432,-0.011125320432480656
1772700375739627800,5.707627685546875,0.0951490577250719,-0.015905781333288176,-0.00578981375657604
1772700375749586000,5.7175859375,0.09978899248540402,-0.008879033634811639,0.014409764913649996
1772700375759542800,5.727542724609375,0.07988543761968613,0.009649040759773924,-0.013235817771940491
1772700375769500000,5.7375,0.08437398121058941,0.010004283938230945,-0.0159545957609429
1772700375779457800,5.747457763671875,0.08422375908493995,0.0037818200936540957,0.00763156574080931
1772700375789415000,5.757414794921875,0.08078092515468598,0.0003677282006945461,0.01263064924480277
1772700375799371800,5.767371826171875,0.07464519887864589,-0.0031330555950291454,0.010156350961094721
1772700375809329700,5.77732958984375,0.07913491151332855,-0.002486830113362521,0.022473282056138848
1772700375819286800,5.787286865234375,0.08601765676438808,0.017993903585802763,0.0003121757882880047
1772700375829244000,5.797243896484375,0.08377309270799159,0.003906816446501761,-0.004856253525288776
1772700375839201800,5.807201904296875,0.059981882753968235,-0.006006072014383972,-0.0031025348758907056
1772700375849158700,5.81715869140625,0.06013210487961769,-0.011475918260216713,-0.002706740491336677
1772700375859115800,5.82711572265625,0.07195113748908043,-0.016794775195419786,-0.023433016766654328
1772700375869074000,5.837073974609375,0.06985504199266433,-0.0007826291445177048,-0.013335369156277737
1772700375879030800,5.84703076171875,0.07928221102952956,-0.007359532449953257,0.010003114894451572
1772700375888988000,5.85698779296875,0.08825929821133613,0.005370386193040758,-0.0033704217145917935
1772700375898945800,5.86694580078125,0.09424538688361644,0.009134652363695204,0.0003073477744765114
1772700375908903000,5.87690283203125,0.08511749305427074,0.012304514571465551,0.005913486943661701
1772700375918860800,5.88686083984375,0.08586626559495926,0.004553443786967546,0.01269020882875775
1772700375928817700,5.896817626953125,0.08092880919277667,0.010425916016940026,0.014215296079253311
1772700375938774800,5.90677490234375,0.08841185842454433,-0.004188565130485222,0.016642625974165274
1772700375948733000,5.91673291015625,0.08242635427415371,0.0028572160620242357,0.012105015652213478
1772700375958689800,5.926689697265625,0.06701309656500816,0.0009527341475710272,0.00047556221454287875
1772700375968646700,5.936646728515625,0.06701309656500816,-0.009924825493851677,0.015171282771480036
1772700375978604800,5.946604736328125,0.08556640586555003,0.0018161734433379023,-0.010029365863848942
1772700375988562000,5.95656201171875,0.10307283646166324,0.0037916199684608727,-0.004120823381718946
1772700375998518800,5.966518798828125,0.07269640289843082,0.0004495795315597206,0.008679068924678722
1772700376008476700,5.9764765625,0.0864613088786602,0.010328035999881103,-0.009658412517962279
1772700376018433800,5.986433837890625,0.08242167809903621,0.023090240344125774,0.005755260749714216
1772700376028391000,5.996390869140625,0.07748246813118458,-0.0013160693009383975,0.00887460633815499
1772700376038348800,6.006348876953125,0.0813724613070488,-0.004377228703536093,0.019678559603961185
1772700376048305700,6.0163056640625,0.08466565763354301,0.002352463143970817,0.010216609231370966
1772700376058262800,6.0262626953125,0.08646189340054988,0.00032424525199458,0.008117102501739281
1772700376068221000,6.036220947265625,0.08272095330655574,-0.009513102887803689,-0.0031997664389782584
1772700376078177800,6.046177734375,0.08616320271492003,0.004749560014111921,0.011559303961042313
1772700376088134700,6.056134765625,0.07479074482917786,0.007478309124568477,0.005490182356029981
1772700376098092800,6.0660927734375,0.08646306244432926,-0.0024801720437128095,0.013298242883128114
1772700376108050000,6.0760498046875,0.08302081303596497,0.00025554566364735363,0.014501848802517633
1772700376118006800,6.0860068359375,0.07823299423754215,0.007091474364604801,-0.0018690304335148538
1772700376127964700,6.095964599609375,0.07389467277228831,0.008057917377119883,-0.0010218287448515184
1772700376137921800,6.105921875,0.07329612235724925,0.009750893699051811,0.014976082143076927
1772700376147879000,6.11587890625,0.07299684714972972,-0.004493128434475511,-0.010918484165210974
1772700376157836800,6.1258369140625,0.07149813302457332,0.002855718224681914,-0.0008778103144140914
1772700376167793700,6.135793701171875,0.0607242255538702,-0.006543412027787417,-0.004118643982720095
1772700376177750800,6.145750732421875,0.07718436196744441,0.0001737125990912318,0.0004157126529316883
1772700376187709000,6.155708984375,0.0854155992180109,-0.010491263737576082,0.01704860839259345
1772700376197665800,6.165665771484375,0.08197451885342598,-0.0070631341861095275,-0.0043393889026890975
1772700376207622700,6.17562255859375,0.08332301085293292,-0.012881145415641367,0.002617213885736419
1772700376217580800,6.185580810546875,0.07808511019945144,-0.003789026152575388,0.010274939264397836
1772700376227538000,6.195537841796875,0.07569090853929519,0.0027481935964431613,-0.005218217563832877
1772700376237494800,6.205494873046875,0.06072773268520832,0.002686563069699332,0.006860810838820179
1772700376247452700,6.21545263671875,0.08302548921108245,0.012313127136183901,-0.004419174998987
1772700376257409800,6.225409912109375,0.06566811169683932,0.011835718882782384,0.014266122084192465
1772700376267367000,6.235366943359375,0.08587094177007674,-0.008943111846968532,-0.012362013487430521
1772700376277324800,6.24532470703125,0.09380173476934432,0.0012694354139268398,-0.006224327008100226
1772700376287281700,6.25528173828125,0.08003624426722526,-0.016114209052734075,-0.006616762675077189
1772700376297238800,6.26523876953125,0.07285305476486682,-0.014069487550528718,0.005281783177691977
1772700376307197000,6.275197021484375,0.08063421016037464,-0.0024437855560798197,-0.0015701502349285874
1772700376317153800,6.28515380859375,0.08542261348068714,0.004186400572862476,-0.01484898288139957
1772700376327110700,6.295110595703125,0.08407587504684924,0.001477479540882632,0.009871923979546409
1772700376337068800,6.30506884765625,0.07255436407923697,0.007991893803048879,0.006847151064581703
1772700376347026000,6.31502587890625,0.09395195689499378,0.009748199418466538,-0.0027859968646720516
1772700376356982800,6.324982666015625,0.07599485992193221,0.01774240390961058,-0.0040090312870277554
1772700376366940700,6.334940673828125,0.08422668169438838,-0.0011055226896423845,-0.01093497521735262
1772700376376897800,6.344897705078125,0.08243161497116089,-0.005352521742787212,-0.014409060519107151
1772700376386855000,6.35485498046875,0.07315525258183479,-0.007923961399681866,-0.007528885109402471
1772700376396812800,6.364812744140625,0.07240706456303596,-0.00043615379440598186,0.006078048121917526
1772700376406769000,6.374768798828125,0.07300619949996472,-0.015628224767232312,0.00844236610046355
1772700376416725800,6.384725830078125,0.07255728668868541,-0.004242395943263546,-0.009028788827935931
1772700376426684000,6.394683837890625,0.08003916687667369,0.006187474729586392,-0.005661962151294574
1772700376436640800,6.404640869140625,0.07929097885787487,0.018752549066534265,-0.003918447518791072
1772700376446598000,6.414597900390625,0.07525193260014057,0.019828717797528952,0.02816140384528553
1772700376456555800,6.4245556640625,0.07510171047449112,-0.0026860790125094354,0.004769390375877264
1772700376466512600,6.4345126953125,0.08063888633549213,0.004203123378800228,-0.0018909260298474691
1772700376476469800,6.4444697265625,0.08812076652348041,0.0003091481475625187,0.0013009607800631782
1772700376486428000,6.454427978515625,0.08034019564986228,0.006368466452835128,-0.004600649066959158
1772700376496384800,6.464384765625,0.08273381278812884,-0.0029399076431058345,-0.0015473807098722316
1772700376506343000,6.474343017578125,0.07270809333622455,-0.0055399158073589205,0.0033034226054529424
1772700376516299800,6.4842998046875,0.07794424042403697,0.0018452260078862309,-0.01492350371411303
1772700376526257000,6.4942568359375,0.08602467102706432,0.015009161287127062,-0.0005066217897983734
1772700376536214800,6.50421484375,0.08497837684452533,0.0004807327216491103,-0.006007358076705714
1772700376546172000,6.514171875,0.07330664375126361,0.015016860536392777,-0.012328874977875966
1772700376556128800,6.524128662109375,0.07794657851159573,0.016141334521677344,0.007798441602915408
1772700376566086700,6.534086669921875,0.07899404173791408,0.0034731012043543157,0.003938657477291417
1772700376576043800,6.544043701171875,0.07106441778242588,-0.007635974771156907,0.0059470370159921
1772700376586000600,6.554000732421875,0.08333528581261634,-0.020144460082659497,0.003211322733564884
1772700376595958800,6.563958740234375,0.09006839345991612,-0.004774950183695182,0.006644106198084773
1772700376605916000,6.573916015625,0.0783960758447647,-0.002759107716102153,0.016554141689825337
1772700376615872800,6.583872802734375,0.07929273242354393,-0.018624301310675218,0.010069503794703632
1772700376625831000,6.593830810546875,0.0767488931596279,-0.009187524195248261,0.015057025866711045
1772700376635787800,6.603787841796875,0.0812368522286415,0.0072714523077011105,0.01671550626399694
1772700376645745000,6.613744873046875,0.08288286586999892,0.016663513498567043,-0.002379856899328297
1772700376655702800,6.623702880859375,0.06717091747522354,0.014580514945741741,0.005614232285739854
1772700376665660000,6.633659912109375,0.0748012662231922,0.015964991574082522,-0.02120046965832589
1772700376675616800,6.64361669921875,0.09679799397587775,0.031193165906751526,0.007897543179392232
1772700376685574700,6.65357470703125,0.08377835340499877,0.006076086776982992,0.0014136399323877412
1772700376695531800,6.66353173828125,0.08093523893356323,0.01293963413722813,-0.01180293542461004
1772700376705488600,6.673488525390625,0.07330547470748425,-0.003551865528989583,-0.004448364560853224
1772700376715446800,6.68344677734375,0.08018997352421284,-0.008797401499655097,0.013004436151881236
1772700376725404000,6.69340380859375,0.07315642162561416,-0.006215321717737242,0.011511096888163591
1772700376735360800,6.70336083984375,0.07046119119226932,-0.010287156000221148,0.015075718009093542
1772700376745319000,6.71331884765625,0.08602233293950558,-0.004428072974784299,0.01675164273152477
1772700376755275800,6.72327587890625,0.0768932700663805,0.00008216185811907053,-0.0025453525134566004
1772700376765233000,6.73323291015625,0.07824117754399776,0.02340721560511738,0.01572819399338914
1772700376775190800,6.743190673828125,0.06971066508591174,0.004704670559614896,0.007042413912600022
1772700376785148000,6.75314794921875,0.07913841864466667,0.0029838289832230655,-0.011653539849445223
1772700376795104800,6.763104736328125,0.084675009983778,0.0020998674892354755,-0.020702331427438183
1772700376805062700,6.773062744140625,0.0742003777205944,-0.02095753916436806,-0.003287183856705087
1772700376815019800,6.783019775390625,0.06746668555140495,-0.021396798231313005,0.0033794429879751985
1772700376824976600,6.7929765625,0.066118193551898,-0.0033296102135907855,-0.001458870738535188
1772700376834934800,6.802934814453125,0.07674246341884136,-0.0007692947389092296,-0.00045888964095502156
1772700376844892000,6.812891845703125,0.09065934509038924,-0.002095145648345351,0.01380015424847952
1772700376854848800,6.822848876953125,0.08437281216681003,0.005611026548501104,0.015173826355015626
1772700376864807000,6.832806884765625,0.07479542100429534,0.019131538446759803,0.005448148724788916
1772700376874763800,6.842763671875,0.07853694562017917,0.010537459233170374,0.007031589982841978
1772700376884721000,6.852720947265625,0.08317746490240097,0.014758474461687729,0.008925907267129513
1772700376894678800,6.8626787109375,0.09350187503993511,-0.0030683015294373033,0.0017489939543971558
1772700376904636000,6.872635986328125,0.07853986822962761,-0.015314802303351461,0.010519527425902196
1772700376914592800,6.8825927734375,0.08617138602137565,0.000013845862261950968,0.002776372803089907
1772700376924550700,6.892550537109375,0.07584522231817245,0.004202073066029697,-0.009551313152231159
1772700376934507800,6.9025078125,0.07539689402878284,-0.011594914130540564,-0.024404969354637433
1772700376944464600,6.912464599609375,0.08422551265060901,0.012016098684677854,-0.010228948123136069
1772700376954422800,6.9224228515625,0.06596855594813823,0.013957113217236474,-0.006738351219642208
1772700376964380000,6.9323798828125,0.07180325345098972,0.007723424725746736,0.00036006320075830444
1772700376974336800,6.942336669921875,0.10113280830979347,0.0019102906007319688,0.009165179932699538
1772700376984295000,6.952294921875,0.08362520866990089,0.003577356163272634,0.008568399637172115
1772700376994251800,6.962251708984375,0.08242810783982277,-0.004079770993767306,0.005477466721640667
1772700377004209000,6.972208984375,0.08332593346238136,-0.012177600256167351,0.0015372811534325591
1772700377014166800,6.982166748046875,0.08676818287074566,-0.009539671234320849,-0.003924611827274202
1772700377024124000,6.9921240234375,0.07898761199712753,0.007134601120278239,0.00012875978333468083
1772700377034080800,7.002080810546875,0.08138239817917346,-0.00907471147053875,0.004519170482963091
1772700377044038700,7.01203857421875,0.0860211638957262,-0.0010196527707856148,-0.003281745634006802
1772700377053995800,7.021995849609375,0.07150573180913924,0.005163602441409602,-0.01137070888665039
1772700377063952600,7.03195263671875,0.08946224426031112,0.003277003243518993,-0.009096593367139576
1772700377073910800,7.041910888671875,0.08407587504684924,0.01840229259044863,-0.007122508823685348
1772700377083868000,7.051867919921875,0.07853753014206886,0.018669848352298138,0.0020186292213678824
1772700377093825800,7.06182568359375,0.07644260368943213,0.012034629855211823,-0.007973765062136226
1772700377103783000,7.071782958984375,0.07778934212327003,0.0010098711622878909,0.0022812587879947385
1772700377113739800,7.08173974609375,0.08886310932338237,-0.005068206642381847,0.01160264306255849
1772700377123697700,7.09169775390625,0.08018354378342628,-0.010190006635524333,0.0034779863003815987
1772700377133654800,7.10165478515625,0.07793897972702979,-0.016210792161850257,-0.001192053620557999
1772700377143611600,7.111611572265625,0.09424947853684425,-0.009617312180949375,0.012317673163849394
1772700377153569800,7.12156982421875,0.08048281899094581,-0.01636389123117551,-0.0037686586471594634
1772700377163526700,7.131526611328125,0.07045593049526214,0.0011664956292603164,-0.0018387791424349415
1772700377173483800,7.14148388671875,0.07823767041265964,0.00539139244845137,-0.009974409389775245
1772700377183442000,7.15144189453125,0.08093173180222511,0.0063585661133285605,-0.008403271061691338
1772700377193398800,7.161398681640625,0.08242810783982277,-0.0033793676394503563,-0.001020705366844777
1772700377203356000,7.17135595703125,0.07734101383388042,-0.009011263446044176,0.003080791689074249
1772700377213313800,7.181313720703125,0.08228022380173206,0.009982017307495698,-0.00480633170264773
1772700377223271000,7.19127099609375,0.08826631247401237,0.001108536630636081,0.0103946155547339
1772700377233227800,7.201227783203125,0.07420154676437378,-0.006286149331089109,0.019315443646302447
1772700377243185700,7.211185546875,0.07210662031173706,0.011120136225642636,0.0054378453848388745
1772700377253142800,7.221142822265625,0.06986322529911995,-0.004772557297209277,0.018738078724831575
1772700377263099600,7.231099609375,0.09814648597538471,-0.005030523246806115,0.011754431524209212
1772700377273057800,7.241057861328125,0.09335749813318252,0.00168914039703086,0.008715486236708238
1772700377283014700,7.2510146484375,0.08841887268722057,0.01029871857385151,-0.01813946323606651
1772700377292971800,7.2609716796875,0.07629705773890018,0.008972685001324861,-0.006365477628016378
1772700377302930000,7.270929931640625,0.07525017903447151,0.014405843365425244,-0.0018513480755296768
1772700377312886800,7.28088671875,0.09200900613367557,0.018071727195521817,-0.004432881580642424
1772700377322844000,7.290843994140625,0.08632102362513541,0.007999821381177753,0.0039765332399343606
1772700377332801800,7.3008017578125,0.0762958886951208,0.0035319004531949756,0.000633580058402731
1772700377342759000,7.310759033203125,0.0762958886951208,0.003583521042577922,-0.0054845688909292215
1772700377352715800,7.3207158203125,0.08048574160039425,-0.008991809826903044,-0.004149444975538062
1772700377362673700,7.330673583984375,0.08452478785812854,-0.00454379004263319,-0.007193100687486003
1772700377372630800,7.340630859375,0.09589724574387073,-0.012298020898597314,0.0015739821640745502
1772700377382587600,7.350587646484375,0.07898936556279659,0.01958946568155661,0.013232040070899528
1772700377392545800,7.3605458984375,0.0692640903621912,0.0067057812489569185,0.00607976287167985
1772700377402504700,7.370504638671875,0.07524900999069213,-0.00037606677077710624,0.027897060670540666
1772700377412461600,7.380461669921875,0.07165712297856808,0.001621144061582163,0.01547127378998557
1772700377422419500,7.39041943359375,0.07764204260706901,0.0030563736296258864,-0.000005939975375076756
1772700377432376600,7.40037646484375,0.07869009035527706,0.0037048915330786256,-0.0025130588206957326
1772700377442333700,7.410333740234375,0.08003624426722526,-0.007686608979851007,-0.004229236209235387
1772700377452291600,7.42029150390625,0.08168108886480331,-0.013514748877752572,-0.003010066252888646
1772700377462248400,7.43024853515625,0.07105623447597026,-0.0016688830602914094,-0.026345961054309735
1772700377472205600,7.44020556640625,0.0774900669157505,-0.005572749497881159,-0.006765778082684846
1772700377482163700,7.450163818359375,0.08482230949997902,-0.0008079005830921233,-0.002791079465165967
1772700377492120600,7.46012060546875,0.07524374929368495,0.006274760287394747,0.013081403528363443
1772700377502077700,7.47007763671875,0.06880933233201503,0.002843918189033866,-0.0004529034289851552
1772700377512035600,7.48003564453125,0.07060381453335285,-0.0019197251493576913,0.02371636831925716
1772700377521992700,7.48999267578125,0.08481997141242027,0.00965468504927121,0.00224793647370534
1772700377531949600,7.499949462890625,0.07868599870204925,-0.0007201766338665038,0.009561969260274781
1772700377541907500,7.509907470703125,0.07075462118089199,0.0010037793482188134,-0.004584703720800462
1772700377551864600,7.519864501953125,0.07733867574632167,0.005167739760410041,-0.022297450565197503
1772700377561821700,7.52982177734375,0.08586743463873862,-0.0020758016270585357,-0.0058429664326307825
1772700377571779600,7.539779541015625,0.08437164312303065,-0.003796570138214156,-0.006635697416876791
1772700377581736400,7.549736328125,0.07958499336838722,0.016601334982551633,-0.004073451421657228
1772700377591693600,7.559693603515625,0.06895955445766448,0.002900744676496833,0.00675475664846017
1772700377601651700,7.569651611328125,0.08796353013515472,0.005591116271633654,0.007624557757176808
1772700377611608600,7.579608642578125,0.07778758855760097,0.0043329237709287555,0.005048445920919766
1772700377621565700,7.589565673828125,0.0911059198141098,-0.011162230934854597,0.018275765292573486
1772700377631523600,7.599523681640625,0.08841361199021339,-0.004771306055039167,-0.0007452357265981845
1772700377641480700,7.609480712890625,0.08048398803472519,-0.0008575575442519039,-0.01044426452438347
1772700377651437600,7.6194375,0.08676818287074566,-0.0009728453538380563,0.01125033390999306
1772700377661395500,7.6293955078125,0.08497370066940783,-0.006928484088927507,0.02542444402890978
1772700377671352600,7.6393525390625,0.09080839817225933,-0.007682562992395833,-0.00487288614132558
1772700377681310700,7.649310791015625,0.09395020332932472,-0.00551672672801651,0.01117928710093256
1772700377691267600,7.659267578125,0.07105623447597026,0.0021533147095236928,0.011316405433125327
1772700377701224400,7.669224365234375,0.08362637771368026,0.009881324278842658,-0.015427952954778447
1772700377711182600,7.6791826171875,0.07808861733078956,-0.0025084939558990297,-0.001939682804464246
1772700377721139700,7.6891396484375,0.08617021697759628,0.006453240393148735,0.006711174376704729
1772700377731096600,7.6990966796875,0.07883855891525746,0.013849195863353087,-0.0021573686884890776
1772700377741053700,7.7090537109375,0.08976268851161003,-0.005105862638494,-0.0015072456331283318
1772700377751011600,7.719011474609375,0.0866179607450962,0.009333380673034117,0.015497796470730098
1772700377760968700,7.72896875,0.05235036496222019,0.013883043334027751,0.004418770286077051
1772700377770926600,7.738926513671875,0.07629355060756206,-0.006045755570800975,-0.006942340796810458
1772700377780883500,7.748883544921875,0.08691840499639511,-0.005812704866752028,0.0032146323604363715
1772700377790840600,7.758840576171875,0.07779109568893909,-0.003817822988796979,0.019437085848150307
1772700377800798700,7.768798828125,0.08976210398972034,0.004437352259783074,0.002272992712326231
1772700377810755600,7.778755615234375,0.07135550968348979,0.007580362993245944,0.004889027850306592
1772700377820712400,7.78871240234375,0.06866144829392433,0.0043324488468933844,-0.0038168617242830805
1772700377830670600,7.798670654296875,0.07868716774582862,0.0015260039908811449,-0.01079441596919205
1772700377840627700,7.808627685546875,0.0701566552877426,0.014678376696491613,0.0020223424195050027
1772700377850584600,7.81858447265625,0.06626666211187839,0.004745020836312323,0.004023946870013606
1772700377860542500,7.82854248046875,0.07958382432460784,-0.0045831996044144035,-0.009310701337878709
1772700377870499600,7.83849951171875,0.07479600552618502,-0.0045329398550558835,0.023781672657409214
1772700377880456700,7.848456787109375,0.08377484627366065,-0.01391550256521441,0.005752122940312256
1772700377890414600,7.85841455078125,0.08272855209112166,-0.004327206416195258,-0.004594353469379712
1772700377900371500,7.868371337890625,0.0912578955054283,-0.009387065355340018,0.008769620726874563
1772700377910328600,7.87832861328125,0.06327624812424182,0.004148004791233688,-0.0019975236429017966
1772700377920286700,7.88828662109375,0.07898761199712753,0.004982692916551605,0.00724437650028558
1772700377930243600,7.89824365234375,0.08347849367558956,0.007301683049183339,0.010068505997571628
1772700377940200400,7.908200439453125,0.07943710933029652,0.0019619385895784944,0.00033156147959234654
1772700377950158600,7.91815869140625,0.0825789144873619,-0.00006641629971563815,-0.017716973782476268
1772700377960115700,7.92811572265625,0.0652209524512291,-0.006838403785834089,-0.003947519491292769
1772700377970072600,7.938072509765625,0.08048340351283549,-0.012569905775692313,-0.0030673060155939308
1772700377980030500,7.948030517578125,0.05100596461594104,-0.01664736608136445,-0.011384396060352445
1772700377989987600,7.957987548828125,0.06596972499191761,-0.00120675457441248,-0.002471415060988511
1772700377999944700,7.96794482421875,0.0833282715499401,-0.0007070522908121347,-0.014666875771654304
1772700378009902600,7.977902587890625,0.08437456573247909,0.004575244626821949,0.007939930149549036
1772700378019859500,7.987859375,0.08841419651210307,0.0023660076121333985,0.007030263392147026
1772700378029816600,7.997816650390625,0.08841127390265464,0.00009448248357512056,-0.01026877324344823
1772700378039774700,8.007774658203125,0.08302490468919277,0.0031413941651117056,0.00020138719895039685
1772700378049731600,8.017731689453125,0.07629121252000332,0.010003882079431786,0.007668773641527514
1772700378059688400,8.0276884765625,0.08347381750047206,-0.005550355002982541,-0.003041333036587457
1772700378069646600,8.037646484375,0.0867664293050766,-0.004599758013570681,0.010049721381999551
1772700378079603700,8.047603759765625,0.08392389935553074,-0.0038875363572966307,0.0034452730533346765
1772700378089560600,8.057560546875,0.07584288423061371,-0.009347326999995857,-0.004675349137830198
1772700378099518500,8.0675185546875,0.07494388956427574,-0.018880541094066575,-0.02579241654148791
1772700378109475600,8.0774755859375,0.0641705666154623,-0.0055245812409091734,0.0011818718657275894
1772700378119432700,8.0874326171875,0.07015607076585292,0.005064051057072356,0.0008375176907546119
1772700378129390600,8.097390625,0.06880991685390472,0.004731375903449952,0.016201403278997165
1772700378139347500,8.107347412109375,0.08886310932338237,0.0013123429738916457,0.0160882754604565
1772700378149304600,8.1173046875,0.06851297973394394,0.003485814555454999,0.015001923262164927
1772700378159262700,8.1272626953125,0.0765922412931919,-0.0004345646255183965,0.012433241817937231
1772700378169219600,8.137219482421875,0.0800344907015562,-0.0018103190912865102,0.004524323294582427
1772700378179176400,8.147176513671875,0.06941022083461285,-0.003311754896491766,0.004865737164620077
1772700378189134600,8.157134521484375,0.0761439130038023,-0.007357386158639565,0.00041628575837821696
1772700378199091700,8.167091796875,0.07060790618658065,-0.0026770737221464514,0.0072760548467602345
1772700378209048600,8.177048583984375,0.06656827540695667,-0.0033669556824490426,-0.005282810657576192
1772700378219006500,8.18700634765625,0.09320376887619494,-0.008615423395717517,-0.0047491678592894455
1772700378228963600,8.196963623046875,0.0861696324557066,0.012547757875965907,0.017707800670398864
1772700378238920700,8.206920654296875,0.0709065968722105,0.011625364067731424,-0.0005830680056504206
1772700378248878600,8.216878662109375,0.08676935191452503,0.01626853196476586,0.002912374607141828
1772700378258835500,8.22683544921875,0.07435059984624386,0.004920961925107986,-0.006153082694573095
1772700378268792600,8.23679248046875,0.08242986140549183,-0.0007491926657967269,-0.0005253253486240282
1772700378278750700,8.246750732421875,0.0926046339392662,0.004988346339203417,0.005463554644008399
1772700378288707600,8.25670751953125,0.07614508204758166,-0.005693782061664388,-0.00840467128844466
1772700378298664400,8.26666455078125,0.07973696905970573,-0.006183063415950164,0.015612280562717932
1772700378308622600,8.27662255859375,0.07749240500330924,-0.00099281956278719,0.01273111965281423
1772700378318579700,8.286579833984375,0.08392623744308948,0.0046526115788146855,0.00001695284726738464
1772700378328536600,8.29653662109375,0.09933832610845565,0.004756181551143527,0.010089443754323291
1772700378338494500,8.306494384765625,0.06208031633794307,0.007332069054292514,-0.0032059415930823887
1772700378348451600,8.31645166015625,0.08198094859421252,0.001942959894472733,-0.006888535100207082
1772700378358408700,8.32640869140625,0.08063304111659526,0.007643957148212939,-0.010996925404504872
1772700378368366600,8.33636669921875,0.07943418672084808,0.020451105745881795,-0.0021745829723047788
1772700378378323500,8.346323486328124,0.0785357765763998,0.004533478711172938,-0.0034299618905934037
1772700378388280600,8.356280517578124,0.07614215943813324,0.004593547468492761,-0.008572367992813815
1772700378398238700,8.36623876953125,0.08826105177700519,0.006806136350892483,-0.0059098291152738965
1772700378408195300,8.3761953125,0.08646423148810863,0.0017171700482722372,-0.0076897353728098096
1772700378418152200,8.386152099609374,0.0741957015454769,-0.006635465092258527,0.006031866326055024
1772700378428110000,8.396110107421874,0.08347381750047206,-0.0036136787188239396,0.0019542307779804105
1772700378438067200,8.406067138671874,0.09200257639288902,0.0009695117524359375,0.024200386693247127
1772700378448025300,8.416025390625,0.08063187207281589,0.0006976542748045176,0.016015237623709253
1772700378457982200,8.425982177734374,0.0670154346525669,0.0016738240968901662,0.02378866637048777
1772700378467939000,8.43593896484375,0.06926116775274277,0.010342274587787687,0.01458889233173104
1772700378477897200,8.445897216796874,0.08991057254970074,0.010880180856771766,0.018902429840533294
1772700378487854300,8.455854248046874,0.07808803280889988,0.0020993286331184207,-0.0030377825227653373
1772700378497811200,8.465811279296876,0.0701572398096323,0.00821326320245862,-0.0047223175266262836
1772700378507769000,8.47576904296875,0.07958323980271816,-0.0007787566869985312,0.0020182513370993545
1772700378517726200,8.485726318359376,0.0688105013757944,-0.002743946679588407,-0.00698374823614431
1772700378527683300,8.495683349609376,0.08138006009161472,-0.020802421667892486,-0.008649985535733868
1772700378537641200,8.50564111328125,0.07449556127488613,-0.000003954655909910798,0.005771341951546492
1772700378547598000,8.51559814453125,0.09709083944261074,0.001212426263373345,-0.0015550177395227364
1772700378557555200,8.52555517578125,0.0737473732560873,0.01748405436752364,0.00273947257551481
1772700378567513300,8.535513427734376,0.06970891152024268,-0.01057651260192506,0.00954237750217144
1772700378577470200,8.54547021484375,0.07030746193528174,0.003252572055160999,0.020481208623200655
1772700378587427000,8.555427001953126,0.08212824811041354,0.010471618322189897,0.004227208648930537
1772700378597385200,8.56538525390625,0.0806312875509262,-0.0030264625485520807,-0.0010923972049436998
1772700378607342300,8.57534228515625,0.07868599870204925,-0.004262032225495204,-0.0027615228646522155
1772700378617299200,8.58529931640625,0.07778817307949065,0.005186581458197907,-0.007919522686582059
1772700378627257000,8.595257080078126,0.08167875077724457,-0.0034677035100292414,-0.014677771625004242
1772700378637214200,8.605214111328126,0.09110475077033042,0.00011893193824216723,-0.011143944076204206
1772700378647171300,8.61517138671875,0.07958207075893879,-0.002931276812078431,0.0023985558915766885
1772700378657129200,8.625129150390626,0.08317278872728347,-0.006786427003424614,0.0057657667315303114
1772700378667086000,8.635086181640625,0.07135024898648262,0.013591010718047618,-0.005430968690302689
1772700378677043200,8.645043212890625,0.08795943848192692,-0.00739090483575128,0.0010070826960465638
1772700378687001300,8.65500146484375,0.09244973563849926,-0.000552519316226244,0.012747259078506613
1772700378696958200,8.664958251953125,0.06880699424445628,-0.007437620921153575,-0.0003836221728590317
1772700378706915000,8.6749150390625,0.08077800254523754,0.01056709631960839,-0.004040496716837515
1772700378716873200,8.684873291015625,0.06371931571662426,-0.0045741669145878405,0.008787201478515635
1772700378726830300,8.694830322265625,0.08002923000454902,0.006866734831174835,0.0065001939405687145
1772700378736787200,8.704787109375,0.07778525047004223,0.0020001151754986493,-0.0007067257805378176
1772700378746745000,8.7147451171875,0.07105214282274246,0.006313959786621854,0.0014160482310719088
1772700378756702200,8.7247021484375,0.09065408439338207,-0.0036135599878150968,-0.0018912725188973125
1772700378766659300,8.734659423828125,0.09035422466397285,-0.0022353761029429734,-0.008207268428156386
1772700378776617200,8.7446171875,0.10322247406542301,0.014310127905989066,-0.018457598407682962
1772700378786574000,8.754573974609375,0.09110007459521294,0.0015011892100330441,0.0074519006082555276
1772700378796531200,8.76453125,0.07748305265307426,0.012901768078561872,-0.0007836440663144458
1772700378806489300,8.7744892578125,0.08406769174039364,0.0089391845905222,0.0006555024833767674
1772700378816446200,8.7844462890625,0.0933452231734991,0.01840052075847052,0.006620012365622097
1772700378826403000,8.794403076171875,0.0973842694312334,-0.007220690234843641,-0.006742064988601487
1772700378836361200,8.804361328125,0.08511106331348418,0.0071294408879708495,0.01717571792906965
1772700378846318300,8.814318359375,0.08316577446460724,0.008002616126462817,0.01563771982300677
1772700378856275200,8.824275146484375,0.08106967896819114,-0.011897221545362845,0.0013882874370669013
1772700378866233000,8.834233154296875,0.06056932725310325,-0.022509883172903207,-0.0028614361502375687
1772700378876190200,8.844190185546875,0.08840133703052996,0.004938022657763212,0.0069352745893178505
1772700378886147300,8.854147216796875,0.08391162439584732,0.008606956961471587,-0.010255483361968071
1772700378896105200,8.864105224609375,0.0795727184087038,0.0008774860874284058,0.00689481414394395
1772700378906062000,8.87406201171875,0.08660627030730247,0.007978404133813455,-0.007845412845822283
1772700378916019200,8.884019287109375,0.08406243104338645,0.014552859753835945,-0.007288129447866231
1772700378925977300,8.893977294921875,0.0891495250493288,-0.0037763036683201787,0.001814456410286948
1772700378935934200,8.903934326171875,0.09603168577849865,0.005679844867857173,0.007803274754126323
1772700378945891000,8.91389111328125,0.06565525221526622,0.0021155217160936444,-0.00537396867290372
1772700378955849200,8.92384912109375,0.06879822641611098,0.014753889618115499,0.011293992671917658
1772700378965806300,8.933806396484375,0.07657996633350848,-0.00689083722596988,0.0067057355831842864
1772700378975763200,8.94376318359375,0.08032090642750263,-0.0024405250199139115,0.013514972640038467
1772700378985721000,8.95372119140625,0.08585515967905522,-0.006603773046052083,0.015521572355250828
1772700378995678200,8.96367822265625,0.07852174805104732,0.004950982604036107,0.01329217161865672
1772700379005635300,8.97363525390625,0.07612871543467044,-0.006177884917333722,0.015680057702458
1772700379015593200,8.98359326171875,0.08151450012624263,0.0009807181330397726,-0.0017617700959352077
1772700379025550000,8.993550048828125,0.07463117035329342,0.013126407147292046,-0.006717294731881702
1772700379035507200,9.003507080078125,0.08824994586110115,0.008231155052175745,0.00016189658042276277
1772700379045465300,9.01346533203125,0.07508242125213145,0.0033502328765112905,0.002142645472570439
1772700379055422200,9.023422119140625,0.07942074271738529,-0.0032067418857477602,-0.004257401145328185
1772700379065379000,9.033379150390624,0.0837596487045288,-0.008960766234667971,-0.0017194196583965094
1772700379075337200,9.043337158203125,0.07837152592539787,-0.008204075249005108,0.006467435027749161
1772700379085294300,9.05329443359375,0.08720072906911372,-0.004097699376102537,0.00686748260820168
1772700379095251200,9.063251220703124,0.07178864040374755,-0.009454230573726817,0.01697277352727251
1772700379105209000,9.073208984375,0.09064297847747803,-0.003271696880739182,0.010576834545622114
1772700379115166200,9.083166259765624,0.07897066086232661,0.006349496890883892,-0.010508189756202045
1772700379125123300,9.093123291015624,0.07582593309581279,0.012225951176229863,-0.003905875160763389
1772700379135081200,9.103081298828124,0.07402911280691624,0.0007235924336593597,-0.004372505721001653
1772700379145038000,9.1130380859375,0.08270867834687233,0.0007775602437555789,0.0008642949581815628
1772700379154995200,9.1229951171875,0.08151040847301483,0.004682769255060702,-0.0006715111907949903
1772700379164953300,9.132953369140624,0.08166004607677459,0.010495647651748732,-0.002214634138191468
1772700379174910200,9.14291015625,0.0773205555677414,0.0010738215102814137,-0.002140982667624485
1772700379184867000,9.1528671875,0.07732114008963108,-0.005588449390511959,-0.000039527721967897375
1772700379194825200,9.1628251953125,0.06789280200898647,-0.020245153111312537,0.006075898976493044
1772700379204782300,9.1727822265625,0.07058569435477256,-0.008791921606939285,0.020286252306681126
1772700379214739200,9.1827392578125,0.08509937287569046,-0.00025831300946883856,-0.005218239255074877
1772700379224697000,9.192697021484374,0.07612111665010451,-0.013745881619350983,0.012048898125870618
1772700379234654200,9.202654296875,0.07582184144258498,0.0028784141136799007,0.01205351493548369
1772700379244611300,9.212611328125,0.08764321213960648,0.001104627640498802,0.0008603129028080729
1772700379254569200,9.2225693359375,0.0770195267945528,0.006822055439231917,-0.0025427016153553267
1772700379264526000,9.232526123046876,0.08525076404511928,-0.0028701029430609195,-0.006133419583700015
1772700379274483200,9.242483154296876,0.08944061695039272,-0.0004945329181384295,0.006135906085019814
1772700379284441300,9.25244140625,0.07582359500825404,-0.009643332538194953,0.0035500023654662072
1772700379294398200,9.262398193359376,0.08764496570527552,-0.00033460224922746417,-0.014506673391396179
1772700379304355000,9.27235498046875,0.07881810064911841,0.0009206493757199496,0.002782733474395354
1772700379314313200,9.282313232421876,0.06639876405894755,-0.00024288711147382855,-0.012029533554986118
1772700379324270300,9.292270263671876,0.08809446303844451,-0.005371217310102656,-0.006112251214796561
1772700379334227200,9.302227294921876,0.08614917418956757,-0.012228727655205876,0.003841182173142442
1772700379344185000,9.31218505859375,0.08435352294445038,-0.008835349756712093,0.00026267523239948787
1772700379354142200,9.32214208984375,0.07941548202037811,-0.002960758634889498,0.0009744704845215891
1772700379364099300,9.332099365234376,0.07956570414602757,0.0165678437049035,-0.005946567229356151
1772700379374057200,9.34205712890625,0.0732809247881174,-0.001698200486321002,0.02531236195656238
1772700379384014000,9.35201416015625,0.09467910212576389,0.00653428800641559,0.006128242797550047
1772700379393971200,9.36197119140625,0.09572831891775131,0.0063307556577958165,-0.00818390981463308
1772700379403929300,9.371929443359376,0.08734919762909411,-0.005015617938619107,-0.0006203963498439407
1772700379413886000,9.381885986328125,0.07762275338470935,-0.00934376506973058,-0.0053697497263347025
1772700379423842800,9.3918427734375,0.07403203541636466,-0.001802291048457846,-0.013025433274137322
1772700379433800700,9.40180078125,0.09498246898651122,-0.0034899244749918576,0.01459444300639443
1772700379443757800,9.4117578125,0.08181435985565184,0.004181623933045193,0.010762256990460446
1772700379453715000,9.42171484375,0.07882160778045653,0.011378093042084947,-0.0000012403965491103007
1772700379463672800,9.4316728515625,0.06879647285044192,-0.01085029717516154,0.014185282250191084
1772700379473629700,9.441629638671875,0.07418401110768318,-0.0019472068113274871,0.020606570302229375
1772700379483586800,9.4515869140625,0.06999415820240974,-0.0069195427306462075,0.032721845911908895
1772700379493544700,9.461544677734375,0.08091770327687263,0.0023587010885123163,0.013145858483144547
1772700379503501800,9.471501708984375,0.0667015463978052,-0.006851427664188668,0.01384851430169656
1772700379513458700,9.481458740234375,0.07119008998870849,0.00015984847052022814,0.016535588828049366
1772700379523416800,9.491416748046875,0.07702654105722903,0.0076958608653862025,-0.005280647241597762
1772700379533374000,9.5013740234375,0.09468494734466075,0.00514613071680069,0.021551847229129634
1772700379543330600,9.51133056640625,0.06909633257985115,0.007796791356056928,-0.012457159266353119
1772700379553288700,9.521288818359375,0.07732756983041762,0.00458959281258285,-0.016894529792445247
1772700379563245800,9.531245849609375,0.08391162439584732,0.012697094085626304,0.0067992944765079295
1772700379573203000,9.541202880859375,0.08720365167856216,0.012855526917194948,0.005302526854909956
1772700379583160800,9.551160888671875,0.0839127934396267,0.0040532209135591985,0.002234656296201865
1772700379593117700,9.56111767578125,0.08077215732634067,0.011627245497563853,-0.012685280350246466
1772700379603075800,9.571075927734375,0.08271803069710731,-0.0030201972045470027,-0.0033422995901608373
1772700379613032700,9.58103271484375,0.07583586996793747,-0.0030428656940814105,0.01731888355120318
1772700379622989800,9.59098974609375,0.08885434149503707,0.005982298413151875,-0.003374149754105019
1772700379632947700,9.60094775390625,0.07568681688606739,0.005997039324557409,-0.0066334620773064665
1772700379642904800,9.61090478515625,0.0839163005709648,0.006812977083632722,0.009380068217328516
1772700379652862000,9.620862060546875,0.08616261819303035,0.000022933351015672087,-0.006042783299824804
1772700379662819800,9.63081982421875,0.08691197525560855,0.0019111217177938669,-0.00026987444145488553
1772700379672776700,9.640776611328125,0.07045242336392402,-0.007430177400214597,-0.009439684312677128
1772700379682733800,9.65073388671875,0.07733692218065262,-0.0026589900761842724,-0.020116494363499805
1772700379692691700,9.660691650390625,0.0740431413322687,0.009155229360843077,-0.030157210455136373
1772700379702648800,9.67064892578125,0.07508943551480769,0.010914083126373588,-0.00804929739171348
1772700379712605700,9.680605712890625,0.08705927477180957,0.008252069976041092,0.00942507982776733
1772700379722563800,9.690563720703125,0.07329203070402145,-0.004394563430827111,0.012814747382234782
1772700379732520700,9.700520751953125,0.06999883437752723,-0.0027452344543766227,0.006489690242041251
1772700379742477800,9.710477783203125,0.0949877296835184,0.008560642734868451,0.000015349407825851813
1772700379752435700,9.720435791015625,0.07478723769783974,-0.007521034021442756,0.007794617665279656
1772700379762392800,9.730392822265625,0.08511340140104293,0.002926116579771042,0.007218166630083578
1772700379772350000,9.740349853515625,0.08586217394173144,0.007149935686727986,-0.009232284073115443
1772700379782307800,9.750307861328125,0.07553659476041794,0.006742944054724648,0.0003896489132021088
1772700379792264700,9.7602646484375,0.07628478277921676,0.009203863408695907,-0.010382111124543007
1772700379802221800,9.770221923828124,0.0800257228732109,0.0005072828018572182,0.012919440732570365
1772700379812179700,9.7801796875,0.0984299790918827,0.013702206874405964,-0.012299493619764689
1772700379822136800,9.79013671875,0.09244447494149208,0.012180705528706311,0.006635356065226369
1772700379832093700,9.80009375,0.08990180472135544,0.0037806601830292492,0.011450572614761767
1772700379842051800,9.8100517578125,0.07867839991748332,-0.012751792548084631,-0.0006935660465096589
1772700379852008700,9.8200087890625,0.08586100489795208,-0.0089849325615447,0.015004944053024518
1772700379861965800,9.8299658203125,0.09648527476489543,-0.016017388481600208,0.016772485731798223
1772700379871923700,9.839923828125,0.07778115881681442,-0.013999408855848014,0.004770686712997849
1772700379881880800,9.849880859375,0.056981531894206995,-0.0039170912453439085,0.0132480630488717
1772700379891838000,9.859837890625,0.08885434149503707,-0.00723306565922685,0.009483186669330462
1772700379901795800,9.8697958984375,0.0744879624903202,0.0035413624012842772,0.01911529398979037
1772700379911752700,9.879752685546874,0.09109656746387482,0.012575403934717178,-0.0038621907118416856
1772700379921709800,9.889709716796874,0.08136953869760036,-0.0004118778696749359,0.004366332850186154
1772700379931667700,9.899667724609374,0.06954933704435826,0.00980681600421667,0.00649889246604871
1772700379941624800,9.909624755859374,0.07463876913785934,0.0019246296533383428,0.013122519848396769
1772700379951581700,9.919581787109376,0.0925958661109209,0.006170057803904637,-0.0008234583410056074
1772700379961539800,9.929539794921874,0.08945347643196583,-0.01688512035999447,0.00033133828812860884
1772700379971496700,9.93949658203125,0.07688274867236614,-0.002906480297539383,-0.010066487570421305
1772700379981453800,9.949453857421876,0.07957622554004191,0.008462443057401105,-0.015411040635884273
1772700379991411700,9.95941162109375,0.08166998294889927,0.0027308132033795115,0.015353556561295409
1772700380001368800,9.969368896484376,0.077328738874197,0.009763378721289337,-0.002534871647815453
1772700380011326000,9.979325927734376,0.08361293371021747,-0.0018697211283259093,0.004488859255556599
1772700380021283800,9.989283935546876,0.08825228394865989,0.007609342492558062,0.023251353756547903
1772700380031240700,9.99924072265625,0.07657996633350848,0.013974941134871913,-0.003057357156203943
1772700380041197800,10.00919775390625,0.08016893073618411,0.016880279788095504,-0.007125845850020414
1772700380051155700,10.01915576171875,0.09393500576019287,-0.0036883513902314004,0.00013951407278946134
1772700380061112800,10.02911279296875,0.08061725902557372,-0.005935691925603896,-0.016263237018429206
1772700380071069700,10.039069580078126,0.0897463218986988,-0.012077847942430525,0.00828708078227355
1772700380081027800,10.04902783203125,0.07433364871144295,-0.0005583371356595307,0.004116442892479245
1772700380090984700,10.058984619140626,0.07448387083709239,0.0006796528272330761,-0.006984162082208786
1772700380100941800,10.06894189453125,0.07119008998870849,-0.0031022859974298624,-0.024033343580248764
1772700380110899700,10.078899658203126,0.08106558731496334,0.0053402559162583196,-0.002274302749178605
1772700380120856800,10.08885693359375,0.06864625072479248,-0.0019037055963184682,0.011491092996462247
1772700380130814000,10.09881396484375,0.08540566234588623,0.009469656471721828,0.00891671189298795
1772700380140771800,10.108771728515626,0.08465864337086677,0.0015778255096636712,-0.003622719400160713
1772700380150728700,10.118728759765625,0.08286416116952895,-0.013857059509400277,-0.005346439061872661
1772700380160685800,10.128685791015625,0.09109364485442638,-0.010661487471638247,0.004272427467812668
1772700380170643700,10.138643798828125,0.09079378512501717,-0.0017373360534664243,0.008846104616989032
1772700380180600800,10.148600830078125,0.09348784651458263,-0.008079115428775548,0.012107044354162644
1772700380190557700,10.1585576171875,0.08106850992441177,0.0008209335946012287,0.0015668069295497844
1772700380200515800,10.168515869140625,0.07717793222665786,0.0033127595434896645,-0.009086026307352585
1772700380210472700,10.17847265625,0.07702712557911873,0.009640473860828206,-0.004689375379894045
1772700380220429800,10.188429931640625,0.08122165465950966,0.006281071297172457,-0.0009770100723020731
1772700380230387700,10.1983876953125,0.06147416713833809,0.010397374909045173,-0.012334133391594514
1772700380240344800,10.2083447265625,0.10067454314827919,-0.0014371840631123632,0.009169953147583874
1772700380250302000,10.218302001953125,0.04590542660653591,0.01475409054751508,0.014390394634543916
1772700380260259800,10.228259765625,0.11024784265756607,-0.002388118979241699,-0.0007057508162921294
