time,seconds_elapsed,z,y,x
1772699889838666200,0.071666259765625,0.002138784620910883,0.002701244316995144,0.0030658310279250145
1772699889848623400,0.081623291015625,0.0015707324491813779,0.00603339122608304,0.006163886282593012
1772699889858581200,0.091581298828125,0.0020871192682534456,0.006536728702485561,0.004051733296364546
1772699889868538400,0.101538330078125,0.0009811085183173418,0.0075724320486187935,0.003656253917142749
1772699889878495200,0.1114951171875,0.003129746997728944,0.0059902481734752655,0.0029433255549520254
1772699889888452400,0.121452392578125,0.003781422507017851,0.007881092838943005,0.0012692625168710947
1772699889898410200,0.13141015625,0.00440912926569581,0.006110356654971838,0.002167813014239073
1772699889908367400,0.141367431640625,0.0005752427969127893,0.005659749731421471,0.0032959282398223877
1772699889918324200,0.15132421875,0.0002008023438975215,0.00857111718505621,0.0023899206425994635
1772699889928281300,0.16128125,0.004332696553319693,0.006140184123069048,0.00643686018884182
1772699889938238000,0.171238037109375,0.0026173547375947237,0.01038339827209711,0.0027856663800776005
1772699889948195600,0.181195556640625,0.0038836877793073654,0.0062128882855176926,0.0038743666373193264
1772699889958152700,0.191152587890625,0.005619536153972149,0.005116731394082308,0.006338856182992458
1772699889968109800,0.20110986328125,0.0027198863681405783,0.006277603097259998,0.005542570725083351
1772699889978067000,0.21106689453125,0.0035955337807536125,0.0037771612405776978,0.004223507363349199
1772699889988024800,0.22102490234375,0.003689543344080448,0.006229666527360678,0.005160140804946423
1772699889997981700,0.230981689453125,0.0018375811632722616,0.00800359807908535,0.0038722362369298935
1772699890007938800,0.240938720703125,0.000059388490626588464,0.008599613793194294,0.004315386060625315
1772699890017895700,0.250895751953125,0.004424575716257095,0.004268248099833727,0.005519667640328407
1772699890027853800,0.260853759765625,0.002797118155285716,0.005470665637403727,0.0038962047547101974
1772699890037810700,0.270810791015625,0.002122006844729185,0.005634183529764414,0.005829926114529371
1772699890047767800,0.280767822265625,0.003590740030631423,0.005979062989354134,0.004315652418881655
1772699890057724700,0.290724609375,0.0015683355741202831,0.00765898497775197,0.007649397477507591
1772699890067682800,0.300682861328125,0.003260774305090308,0.005226986017078161,0.0022540995851159096
1772699890077640000,0.310639892578125,0.002581934677436948,0.005191832315176725,0.00367143377661705
1772699890087596800,0.3205966796875,0.0031638352666050196,0.007330351043492556,0.003224289044737816
1772699890097553700,0.3305537109375,-0.00009614011651137844,0.0054674698039889336,0.0027198863681405783
1772699890107510800,0.3405107421875,0.002124137245118618,0.005371862091124058,0.008069911040365696
1772699890117469000,0.350468994140625,0.0027470507193356752,0.005614209920167923,0.004750280175358057
1772699890127425800,0.36042578125,0.004397677723318338,0.00580862071365118,0.003799265483394265
1772699890137382700,0.370382568359375,0.0009765811264514923,0.005832322873175144,0.00464721629396081
1772699890147339800,0.38033984375,0.002823483431711793,0.005077316425740719,0.0028605014085769653
1772699890157298000,0.3902978515625,0.0016160061350092292,0.005508748814463615,0.0031457259319722652
1772699890167255000,0.400255126953125,0.0028762139845639467,0.005373193882405758,0.004223773255944252
1772699890177211600,0.410211669921875,0.002310824813321233,0.006712231319397688,0.0062850601971149445
1772699890187168800,0.420168701171875,0.0032645028550177813,0.006581203546375036,0.006942860782146454
1772699890197127000,0.430126953125,0.001980859087780118,0.006758570205420256,0.006054696626961231
1772699890207083800,0.440083740234375,0.0018911106744781137,0.004174771253019571,0.005229915492236614
1772699890217041000,0.450041015625,0.004794755019247532,0.006218214984983206,0.006191849708557129
1772699890226997800,0.459997802734375,0.0006207828409969807,0.005126585252583027,0.004496747627854347
1772699890236955000,0.469954833984375,0.0012591425329446793,0.007172158919274807,0.005344431847333908
1772699890246912800,0.479912841796875,0.002686064224690199,0.003715908620506525,0.006018477492034435
1772699890256870000,0.489869873046875,0.0021752698812633753,0.006903179921209812,0.005577191710472107
1772699890266826800,0.49982666015625,0.0032589102629572153,0.004998486954718828,0.0054735951125621796
1772699890276783600,0.50978369140625,0.004835235420614481,0.005060272291302681,0.003343598684296012
1772699890286741800,0.51974169921875,0.001383778522722423,0.008162855170667171,0.006875482853502035
1772699890296699000,0.529698974609375,0.004448544234037399,0.00449994346126914,0.005079447291791439
1772699890306656000,0.539656005859375,0.003777693957090378,0.006636330857872963,0.005546032916754484
1772699890316612600,0.549612548828125,0.002730805426836014,0.006846454460173845,0.007979629561305046
1772699890326570800,0.55957080078125,0.0015923039754852653,0.005675995256751776,0.006338856182992458
1772699890336528000,0.56952783203125,0.003014432033523917,0.0068182251416146755,0.0059865196235477924
1772699890346485000,0.579485107421875,0.004569185432046652,0.004630970768630505,0.0025832662358880043
1772699890356441900,0.58944189453125,0.0034964641090482473,0.004550010897219181,0.006127933505922556
1772699890366398700,0.599398681640625,0.002659166231751442,0.00900015328079462,0.0017923073610290885
1772699890376356900,0.60935693359375,0.0032653016969561577,0.005940713454037905,0.004938299767673016
1772699890386314000,0.61931396484375,0.004601409658789635,0.006174272391945124,0.004477572627365589
1772699890396270800,0.629270751953125,0.0009898969437927008,0.007128216791898012,0.007993478327989578
1772699890406227700,0.639227783203125,0.00195156445261091,0.006096508353948593,0.004268248099833727
1772699890416185900,0.649185791015625,0.001434112200513482,0.007378021255135536,0.005527390632778406
1772699890426142700,0.659142822265625,0.003192863892763853,0.006806507240980864,0.005161472596228123
1772699890436099800,0.669099853515625,0.0032288164366036654,0.007934356108307838,0.005381449591368437
1772699890446057000,0.679056884765625,0.0027297399938106537,0.005534315016120672,0.008610798977315426
1772699890456014800,0.689014892578125,-0.000434361572843045,0.006558034103363752,0.002380333375185728
1772699890465971700,0.6989716796875,0.003439206164330244,0.00492098880931735,0.007094128523021936
1772699890475928800,0.7089287109375,0.004297809209674597,0.007723966147750616,0.005664810072630644
1772699890485886000,0.718885986328125,0.006486129015684128,0.003763312939554453,0.00669252360239625
1772699890495843800,0.72884375,0.0016165387351065874,0.002808836055919528,0.008171909488737583
1772699890505800700,0.73880078125,0.002594451420009136,0.006773483939468861,0.00484189298003912
1772699890515757800,0.7487578125,0.002775812754407525,0.008560464717447758,0.0028221518732607365
1772699890525715000,0.75871484375,0.0026373283471912146,0.006655505858361721,0.004727377090603113
1772699890535672800,0.7686728515625,0.00444028852507472,0.004624845460057259,0.004119643941521645
1772699890545629700,0.778629638671875,0.0043745082803070545,0.00490208063274622,0.0033989925868809223
1772699890555586800,0.7885869140625,0.0016013587592169642,0.0054552191868424416,0.003653324441984296
1772699890565544000,0.7985439453125,0.005607551895081997,0.004898884799331427,0.003418167121708393
1772699890575500800,0.808500732421875,-0.000365918327588588,0.005760150961577892,0.004815261345356703
1772699890585458700,0.818458740234375,-0.0002263686910737306,0.009641974233090878,0.0033534523099660873
1772699890595415800,0.828415771484375,0.0057279267348349094,0.0041247038170695305,0.004967061802744865
1772699890605373000,0.838373046875,0.001725462032482028,0.007848601788282394,0.004000866785645485
1772699890615329800,0.848329833984375,0.00381417921744287,0.003689809702336788,0.004776645917445421
1772699890625287700,0.85828759765625,0.002270078519359231,0.009488310664892197,0.0019172097090631723
1772699890635244800,0.868244873046875,0.001582716591656208,0.007059241179376841,0.006347111891955137
1772699890645202000,0.878201904296875,0.0020477045327425003,0.0052179316990077496,0.004089017398655415
1772699890655158800,0.88815869140625,0.0021643510553985834,0.006055495701730251,0.0033007217571139336
1772699890665116700,0.89811669921875,0.0023614249657839537,0.006234992761164904,0.0006804376607760787
1772699890675073800,0.90807373046875,0.0011638014111667871,0.005544168874621391,0.002956375014036894
1772699890685030700,0.91803076171875,0.0035955337807536125,0.005028314422816038,0.004972654394805431
1772699890694987800,0.92798779296875,0.0031587753910571337,0.006269081030040979,0.005373460240662098
1772699890704946000,0.93794580078125,0.0027888622134923935,0.006522081326693296,0.0019499665359035134
1772699890714902800,0.94790283203125,0.0021704763639718294,0.006578806787729263,0.005911951418966055
1772699890724859600,0.957859619140625,0.004542021080851555,0.006352171767503023,0.005012867972254753
1772699890734816800,0.967816650390625,0.006870689336210489,0.0049529471434652805,0.004863198380917311
1772699890744774000,0.97777392578125,0.0023044333793222904,0.005798766855150461,0.003935352899134159
1772699890754731800,0.987731689453125,0.002543052425608039,0.007164968643337488,0.0070552462711930275
1772699890764688600,0.997688720703125,0.001478320686146617,0.00657454552128911,0.005343899130821228
1772699890774645800,1.007645751953125,0.00446825148537755,0.007772435434162617,0.0029111013282090425
1772699890784603000,1.017602783203125,0.0026170883793383837,0.0073535204865038395,0.002998719457536936
1772699890794561000,1.02756103515625,0.004256796557456255,0.00503870053216815,0.0017773937433958054
1772699890804517600,1.037517578125,0.0027603665366768837,0.006048571318387985,0.005396363325417042
1772699890814474800,1.047474853515625,0.003537476761266589,0.006085323169827461,0.005948969163000584
1772699890824431900,1.057431884765625,0.00316037330776453,0.005329784471541643,0.0034993935842067003
1772699890834390000,1.06739013671875,0.0043832967057824135,0.006351639050990343,0.003823234001174569
1772699890844347000,1.077346923828125,0.000007989483492565341,0.008229168131947517,0.003174221608787775
1772699890854303700,1.0873037109375,0.0024564997293055058,0.004555070772767067,0.0024051007349044085
1772699890864260900,1.0972607421875,0.005003280472010374,0.004936168901622295,0.007617439609020948
1772699890874217700,1.1072177734375,0.0020695424173027277,0.005833920557051897,0.003468500915914774
1772699890884176000,1.11717578125,0.0017246630741283298,0.007060039788484573,0.000606668065302074
1772699890894132700,1.1271328125,0.003940146882086992,0.0063063655979931355,0.0023726101499050856
1772699890904089900,1.13708984375,0.003227218519896269,0.005130046978592873,0.007511978503316641
1772699890914046700,1.147046630859375,0.004035221878439188,0.006462692748755217,0.00501153664663434
1772699890924004900,1.1570048828125,0.000818123109638691,0.006558566819876432,0.0057739997282624245
1772699890933962200,1.166962158203125,0.003376355627551675,0.0019270633347332478,0.0027244137600064278
1772699890943919000,1.176919189453125,0.00006498113361885771,0.005349225364625454,0.0038277613930404186
1772699890953876200,1.186876220703125,0.002627474721521139,0.005652825813740492,-0.00018269284919369966
1772699890963834400,1.19683447265625,0.003216299694031477,0.007722101639956236,0.004054929129779339
1772699890973791200,1.206791259765625,-0.00019494339358061552,0.005194229539483786,0.005394232925027609
1772699890983748000,1.216748046875,0.0039023298304528,0.0037031255196779966,0.002924949862062931
1772699890993705200,1.226705322265625,-0.00025033715064637363,0.005149488337337971,0.00651595601812005
1772699891003663400,1.236663330078125,0.001213336130604148,0.006653109099715948,0.002251702593639493
1772699891013620200,1.2466201171875,0.0023318638559430838,0.007534615229815245,0.002240251051262021
1772699891023577000,1.2565771484375,0.00045300371129997075,0.005915413144975901,0.0037553233560174704
1772699891033534200,1.2665341796875,0.003829625668004155,0.006274673622101545,0.0043295007199049
1772699891043491000,1.276490966796875,0.0019403791520744562,0.007486944552510977,0.0052112736739218235
1772699891053449200,1.28644921875,0.0033241575583815575,0.005623797420412302,0.004649879410862923
1772699891063406300,1.29640625,0.003665308468043804,0.005306348204612732,0.0030634342692792416
1772699891073363200,1.30636328125,0.004394215997308493,0.0038661109283566475,0.004597414750605822
1772699891083320000,1.316320068359375,0.002115881536155939,0.006010754499584436,0.005346029531210661
1772699891093278200,1.3262783203125,0.002764893928542733,0.007213704288005829,0.006603308022022247
1772699891103235300,1.3362353515625,0.003040797309949994,0.00384453940205276,0.0009134642314165831
1772699891113192200,1.346192138671875,0.002258360618725419,0.00683100800961256,0.008432633243501186
1772699891123149000,1.356149169921875,0.004689826630055904,0.0037987329997122288,0.004335360135883093
1772699891133107200,1.366107177734375,0.0017339842161163688,0.00669332267716527,0.004515922162681818
1772699891143064300,1.376064208984375,0.0034048515371978283,0.005583317019045353,0.005319930613040924
1772699891153021400,1.386021484375,0.002679672557860613,0.00313560594804585,0.004825115203857422
1772699891162978000,1.39597802734375,0.00123783724848181,0.007734085898846388,0.001333178486675024
1772699891172936200,1.405936279296875,0.0014961638953536749,0.004811266902834177,0.0065652248449623585
1772699891182893300,1.415893310546875,0.002645317930728197,0.006999053526669741,0.005143363028764725
1772699891192850200,1.42585009765625,0.003581685246899724,0.004729241598397493,0.0034171019215136766
1772699891202807300,1.435807373046875,0.005453887395560741,0.005638444796204567,0.006354302167892456
1772699891212764200,1.44576416015625,0.0029784792568534613,0.008272044360637665,0.0046509443782269955
1772699891222722300,1.455722412109375,0.0017113472567871213,0.007836883887648582,0.0041100564412772655
1772699891232679200,1.46567919921875,0.00430100504308939,0.007238471880555153,0.002214152133092284
1772699891242636300,1.47563623046875,0.0015707324491813779,0.007173757068812847,0.0030003173742443323
1772699891252593200,1.48559326171875,0.0036709012929350138,0.006563893053680658,0.005879727192223072
1772699891262551300,1.49555126953125,0.0031217574141919613,0.005600361619144678,0.0037412086967378855
1772699891272508200,1.505508056640625,0.002005626680329442,0.007348194252699614,0.003841077210381627
1772699891282465300,1.51546533203125,0.004681038204580545,0.005814213305711746,0.006889065261930227
1772699891292422400,1.52542236328125,0.0023843280505388975,0.006444050930440426,0.0014423680258914828
1772699891302380300,1.53538037109375,0.002945722546428442,0.007691475562751293,0.004745753016322851
1772699891312337200,1.545337158203125,0.004435494542121887,0.00833942275494337,0.0038128476589918137
1772699891322294300,1.555294189453125,0.003950799349695444,0.0049308426678180695,0.0054448326118290424
1772699891332251400,1.56525146484375,0.0005611280212178826,0.005340436939150095,0.006885869428515434
1772699891342208300,1.575208251953125,0.0028133634477853775,0.006678675301373005,0.006990531459450722
1772699891352166100,1.585166259765625,0.0036165728233754635,0.0060120862908661366,0.005766009911894798
1772699891362123300,1.595123291015625,0.00077631144085899,0.004907939583063126,0.004412591457366943
1772699891372080400,1.605080322265625,0.0022303974255919456,0.006877347361296415,0.006056561134755611
1772699891382037200,1.615037353515625,0.0007568703731521964,0.00797430332750082,0.004751345608383417
1772699891391995100,1.6249951171875,0.0022836606949567795,0.006652043666690588,0.006903179921209812
1772699891401952300,1.6349521484375,0.000979244359768927,0.004488225560635328,0.003564641112461686
1772699891411909400,1.644909423828125,0.005664543714374304,0.0038000645581632853,0.0033931334037333727
1772699891421866200,1.6548662109375,0.0022921827621757984,0.006163087207823992,0.00455746753141284
1772699891431824100,1.66482421875,0.001588575541973114,0.005921006202697754,0.0021339908707886934
1772699891441781200,1.67478125,0.0029643645975738764,0.006902647204697132,0.005572664551436901
1772699891451738000,1.684738037109375,0.0026881948579102755,0.00475587323307991,0.005286907311528921
1772699891461695200,1.6946953125,0.0013342436868697405,0.006643787957727909,0.005298625212162733
1772699891471653000,1.704653076171875,0.004441886208951473,0.004639759194105864,0.0027020431589335203
1772699891481610200,1.7146103515625,0.001019990653730929,0.006681072060018778,0.00444002216681838
1772699891491567000,1.724567138671875,0.0037257622461766005,0.007923969067633152,0.002776079112663865
1772699891501524200,1.734524169921875,0.0007339671719819307,0.005382515024393797,0.005708219483494759
1772699891511481300,1.7444814453125,0.0010921623324975371,0.008947421796619892,0.004917260725051165
1772699891521439200,1.754439208984375,0.002478870330378413,0.006145776715129614,0.004496214911341667
1772699891531396000,1.76439599609375,0.0007928230334073305,0.006555370986461639,0.006449909880757332
1772699891541353200,1.774353271484375,0.00041438787593506277,0.0044011399149894714,0.002029062481597066
1772699891551310300,1.784310302734375,0.0007629956235177815,0.00621208967640996,0.002380599733442068
1772699891561268200,1.794268310546875,0.0010900318156927824,0.006884803995490074,0.003612045431509614
1772699891571225000,1.80422509765625,0.0019829897210001945,0.00555242458358407,0.005957757588475943
1772699891581182200,1.81418212890625,0.001967543503269553,0.006636330857872963,0.004597681108862162
1772699891591139300,1.824139404296875,0.003275954397395253,0.005887183826416731,0.005653624422848225
1772699891601097500,1.834097412109375,0.0016311861108988523,0.003870904678478837,0.004417917691171169
1772699891611054000,1.84405419921875,0.0023403859231621027,0.005233644042164087,0.003305781865492463
1772699891621011200,1.85401123046875,0.0025742114521563053,0.006712231319397688,0.006852846127003431
1772699891630968300,1.86396826171875,0.003213636577129364,0.007399593014270067,0.00564137427136302
1772699891640926200,1.87392626953125,0.0016016251174733043,0.007583351340144873,0.004311125259846449
1772699891650883000,1.883883056640625,0.0035862126387655735,0.006487993057817221,0.0036373452749103308
1772699891660840200,1.893840087890625,0.0020189424976706505,0.006052566226571798,0.0025246767327189445
1772699891670797000,1.903797119140625,0.0016972325975075364,0.007193464320152998,0.003427221905440092
1772699891680754200,1.913754150390625,-0.0013816480059176683,0.00520674604922533,0.002813895931467414
1772699891690712300,1.92371240234375,0.0026557042729109526,0.0062855929136276245,0.007375890854746103
1772699891700669200,1.933669189453125,0.0032509206794202328,0.00729493098333478,0.002740126335993409
1772699891710626000,1.9436259765625,0.0026399914640933275,0.007525826804339886,0.001312139444053173
1772699891720583200,1.953583251953125,0.0017699368763715029,0.0054182009771466255,0.005219529382884502
1772699891730541300,1.963541259765625,0.0005075985100120306,0.006460828706622124,0.0018727348651736975
1772699891740498400,1.97349853515625,0.0006570018595084548,0.005048554390668869,0.0024588967207819223
1772699891750455000,1.983455078125,0.0007789746159687638,0.007892011664807796,0.0004854942671954632
1772699891760412200,1.993412109375,0.0036735644098371267,0.005944175645709038,0.0027204190846532583
1772699891770370300,2.003370361328125,0.0027419906109571457,0.006773217581212521,0.0027355989441275597
1772699891780327400,2.013327392578125,0.0016287893522530794,0.006118346471339464,0.001998968655243516
1772699891790284000,2.023283935546875,0.0023220102302730083,0.007645402569323778,0.003982224967330694
1772699891800241200,2.0332412109375,0.003745736088603735,0.0065196845680475235,0.0035214978270232677
1772699891810198300,2.0431982421875,0.0021662150975316763,0.006217415910214186,0.006749515421688557
1772699891820156400,2.053156494140625,0.0038107172586023808,0.005911685060709715,0.006102367304265499
1772699891830113300,2.06311328125,0.005397162400186062,0.007860586047172546,0.005510879214853048
1772699891840070100,2.073070068359375,0.003951065707951784,0.005678658373653889,0.004537227563560009
1772699891850027300,2.08302734375,0.0023377228062599897,0.007819573394954205,0.003920971881598234
1772699891859985200,2.092985107421875,0.003567836945876479,0.005574794951826334,0.0036826191935688257
1772699891869942300,2.1029423828125,0.002966495230793953,0.006484530866146088,0.005587045568972826
1772699891879899100,2.112899169921875,0.0011374361347407103,0.008344748988747597,0.004518585279583931
1772699891889856300,2.122856201171875,0.0031308121979236603,0.007655256427824497,0.0024106933269649744
1772699891899814100,2.132814208984375,0.0005241101025603712,0.0065202172845602036,0.004637362435460091
1772699891909771300,2.142771240234375,0.002755839144811034,0.006213421002030373,0.003742540255188942
1772699891919728400,2.152728271484375,0.0017547567840665579,0.0065345983020961285,0.003221359569579363
1772699891929685000,2.16268505859375,0.0014226606581360102,0.00501153664663434,0.003939880523830652
1772699891939642400,2.172642333984375,0.001945439144037664,0.006107693538069725,0.006138053722679615
1772699891949600300,2.182600341796875,0.003126284806057811,0.006719687953591347,0.0019651465117931366
1772699891959557400,2.192557373046875,0.00407383730635047,0.0044256411492824554,0.00603419030085206
1772699891969514500,2.202514404296875,0.001989913871511817,0.00458649592474103,0.00646828580647707
1772699891979471000,2.21247119140625,0.00253399764187634,0.005357214715331793,0.006340453866869211
1772699891989429200,2.22242919921875,0.0054855793714523315,0.005083441734313965,0.005031776614487171
1772699891999386400,2.232386474609375,0.003418966196477413,0.006794256623834372,0.003144660498946905
1772699892009343500,2.242343505859375,0.0060088904574513435,0.00475534051656723,0.005614742636680603
1772699892019300000,2.252300048828125,0.003296194365248084,0.006006759591400623,0.004461327567696571
1772699892029258200,2.26225830078125,0.0017353157745674253,0.00526613462716341,0.00510021997615695
1772699892039215400,2.27221533203125,0.0007211840129457414,0.006837666034698486,0.00586534570902586
1772699892049172500,2.28217236328125,0.002980343531817198,0.005886384751647711,0.002546514617279172
1772699892059129300,2.29212939453125,0.0018362496048212051,0.007558317389339209,0.004363589454442263
1772699892069087200,2.302087158203125,0.00466505903750658,0.006713562645018101,0.003579022129997611
1772699892079044400,2.31204443359375,0.0027917916886508465,0.006593720521777868,0.0029467877466231585
1772699892089001500,2.32200146484375,0.0005187837523408234,0.005993976723402739,0.004984905011951923
1772699892098958300,2.331958251953125,0.002311357529833913,0.00612287363037467,0.004316984210163355
1772699892108915500,2.34191552734375,0.004542021080851555,0.006082393694669008,0.003207244910299778
1772699892118873300,2.351873291015625,0.0026788737159222364,0.006705573294311762,0.004177967086434364
1772699892128830200,2.361830322265625,0.0020596887916326523,0.0037529265973716974,0.007044327445328236
1772699892138787300,2.371787353515625,0.0007590008899569511,0.007364705670624971,0.004554005339741707
1772699892148744400,2.381744384765625,-0.00034168356796726584,0.006083458662033081,0.0016498282784596086
1772699892158702300,2.391702392578125,0.0025931198615580797,0.0033688987605273724,0.0046663908287882805
1772699892168659200,2.4016591796875,0.00350365461781621,0.00703820213675499,0.004598480183631182
1772699892178616300,2.4116162109375,0.001589108258485794,0.005660016089677811,0.006837133318185806
1772699892188573400,2.421573486328125,0.0041822283528745174,0.008829178288578987,0.00014327807002700865
1772699892198531300,2.43153125,0.002971288748085499,0.0023702133912593126,0.0057223341427743435
1772699892208488200,2.44148828125,0.002802977105602622,0.005766009911894798,0.0024674187880009413
1772699892218445300,2.4514453125,0.0018812569323927164,0.005584915168583393,0.0031372036319226027
1772699892228402400,2.46140234375,0.002448510378599167,0.005651227664202452,0.002326271263882518
1772699892238359300,2.471359375,0.002264752285555005,0.0051902346312999725,0.003608583239838481
1772699892248317200,2.481317138671875,0.002198439557105303,0.006399576086550951,0.004281830508261919
1772699892258274300,2.4912744140625,0.0029941920656710863,0.009049953892827034,0.003147856332361698
1772699892268231400,2.5012314453125,0.0036517265252768993,0.005620867945253849,0.003438939806073904
1772699892278188300,2.511188232421875,0.0018879148410633206,0.0059926449321210384,0.006535663735121489
1772699892288146200,2.521146240234375,0.0024794030468910933,0.006070409435778856,0.004119643941521645
1772699892298103300,2.531103271484375,0.0013787185307592154,0.005889047868549824,0.006990265101194382
1772699892308060400,2.541060302734375,0.0017353157745674253,0.008013984188437462,0.002110022585839033
1772699892318017300,2.551017333984375,0.005176386330276728,0.004863731097429991,0.004319380968809128
1772699892327975200,2.56097509765625,0.0030213561840355396,0.0068214209750294685,0.005317001137882471
1772699892337932300,2.570932373046875,0.004555337131023407,0.00571833923459053,0.004452006425708532
1772699892347889400,2.580889404296875,0.0032836776226758957,0.0060115535743534565,0.004077832214534283
1772699892357846300,2.59084619140625,0.004041080828756094,0.0059625511057674885,0.003032541600987315
1772699892367803400,2.600803466796875,0.002109223511070013,0.004750280175358057,0.005618470720946789
1772699892377761300,2.61076123046875,0.002347842790186405,0.0068238177336752415,0.0021915151737630367
1772699892387718100,2.62071826171875,0.0018615495646372437,0.005135640036314726,0.007840346544981003
1772699892397675300,2.63067529296875,0.0021971079986542463,0.006433397997170687,0.003300189273431897
1772699892407632400,2.64063232421875,0.003768905531615019,0.007652060594409704,0.003739610780030489
1772699892417590300,2.65059033203125,0.0017084177816286683,0.008373244665563107,0.0015281217638403177
1772699892427547100,2.660547119140625,0.004084756597876549,0.005732454359531403,0.004063717555254698
1772699892437504300,2.670504150390625,0.001537709147669375,0.005907157436013222,0.004969724919646978
1772699892447461400,2.68046142578125,0.0019116170005872846,0.00893623661249876,0.0017864484107121825
1772699892457419500,2.69041943359375,0.005720736458897591,0.004816859494894743,0.0029561088886111975
1772699892467376000,2.700376220703125,0.0024711471050977707,0.003674629610031843,0.0065164887346327305
1772699892477333200,2.710333251953125,0.002931075170636177,0.006731139495968819,0.001764077926054597
1772699892487290400,2.720290283203125,0.00446851784363389,0.004004062619060278,0.00577932596206665
1772699892497248500,2.73024853515625,0.00532578956335783,0.005820072256028652,0.0055002267472445965
1772699892507205000,2.740205078125,0.004028830211609602,0.007814513519406319,0.006835535634309053
1772699892517162200,2.750162353515625,0.0033097765408456326,0.008520517498254776,0.00410552928224206
1772699892527119400,2.760119384765625,0.001683650421909988,0.006780674215406179,0.005928462836891413
1772699892537076200,2.770076171875,0.004703674931079149,0.005315402988344431,0.004926049150526524
1772699892547034400,2.780034423828125,0.0025939189363271,0.007023288402706385,0.0046789078041911125
1772699892556991200,2.7899912109375,0.00404507527127862,0.006405701395124197,0.005851231049746275
1772699892566948400,2.7999482421875,0.002335326047614217,0.007671768311411142,0.005298092495650053
1772699892576905200,2.8099052734375,0.003356115659698844,0.002651176881045103,0.008076834492385387
1772699892586863400,2.81986328125,0.0051713259890675545,0.006564425770193338,0.0038123151753097773
1772699892596820500,2.829820556640625,0.002758502261713147,0.0049521480686962605,0.004522846546024084
1772699892606777300,2.83977734375,0.001597630325704813,0.006425941362977028,0.0017984326696023345
1772699892616734200,2.849734130859375,0.0046669235453009605,0.00475587323307991,0.004422445315867662
1772699892626692400,2.8596923828125,0.0024740765802562237,0.0043473439291119576,0.0034639735240489244
1772699892636649500,2.8696494140625,0.0027779433876276016,0.004554005339741707,0.0023270701058208942
1772699892646606000,2.879606201171875,0.003972104750573635,0.00700757559388876,0.004297809209674597
1772699892656563200,2.889563232421875,0.002621083054691553,0.006650445982813835,0.005565207917243242
1772699892666520300,2.899520263671875,0.0034439999144524336,0.007801197934895754,0.005570001434534788
1772699892676478500,2.909478515625,0.00035127095179632306,0.004805141594260931,0.0035984632559120655
1772699892686435300,2.919435302734375,0.004597947467118502,0.00700890738517046,0.005378253757953644
1772699892696392200,2.92939208984375,0.005079447291791439,0.00717562111094594,0.006926083005964756
1772699892706349300,2.939349365234375,0.0029909962322562933,0.007707454264163971,0.006392118986696005
1772699892716307500,2.949307373046875,0.0015992282424122095,0.003722033929079771,0.0038980687968432903
1772699892726264300,2.959264404296875,0.0033393376506865025,0.005339105147868395,0.005902097560465336
1772699892736221400,2.969221435546875,0.003254382871091366,0.0065135592594742775,0.0054541537538170815
1772699892746178300,2.97917822265625,0.0034788872580975294,0.004701544530689716,0.005847768858075142
1772699892756136400,2.989136474609375,0.003035204717889428,0.005349491722881794,0.007787349168211222
1772699892766093300,2.99909326171875,0.0005017395596951246,0.006866960786283016,0.005589708685874939
1772699892776050400,3.009050537109375,0.003413107246160507,0.005461877211928368,0.004699147772043943
1772699892786007300,3.01900732421875,0.0049191247671842575,0.004332430195063353,0.005241633392870426
1772699892795964200,3.028964111328125,0.0028485171496868134,0.005200887098908424,0.004923119675368071
1772699892805922300,3.03892236328125,0.0035928706638514996,0.007888549007475376,0.0051833102479577065
1772699892815879400,3.04887939453125,0.0017478326335549355,0.006200638134032488,0.005857356358319521
1772699892825836500,3.05883642578125,0.002654106356203556,0.006954312324523926,0.003637877991423011
1772699892835793200,3.068793212890625,0.004838164895772934,0.00547386147081852,0.006886668037623167
1772699892845751300,3.078751220703125,0.0033939324785023928,0.007631554268300533,0.006196376867592335
1772699892855708400,3.08870849609375,0.0016889767721295357,0.0037766287568956614,0.006395581178367138
1772699892865665300,3.098665283203125,0.004731904715299606,0.005134308245033026,0.0038133803755044937
1772699892875622400,3.108622314453125,0.003127083647996187,0.0060238041914999485,0.006403836887329817
1772699892885580300,3.118580322265625,0.003215766977518797,0.004683434963226318,0.004848551005125046
1772699892895537400,3.128537353515625,0.0009627327090129256,0.005664810072630644,0.005785184912383556
1772699892905494300,3.138494384765625,0.0023912524338811636,0.006878678686916828,0.0007717840489931405
1772699892915451400,3.148451416015625,0.005050152540206909,0.005958823021501303,0.005197159014642239
1772699892925409300,3.1584091796875,0.003308711340650916,0.0039292280562222,0.007738879881799221
1772699892935366700,3.16836669921875,0.001844505313783884,0.00740358792245388,0.006442719139158726
1772699892945323800,3.17832373046875,0.0004170510219410062,0.0067814732901751995,0.004282363224774599
1772699892955281000,3.188281005859375,0.0014887070283293724,0.005835785064846277,0.005188636481761932
1772699892965237500,3.198237548828125,0.0036879454273730516,0.005423261318355799,0.006997722201049328
1772699892975195600,3.208195556640625,0.0028567728586494923,0.006087986286729574,0.005539374891668558
1772699892985152800,3.21815283203125,0.0023579627741128206,0.00726377172395587,0.005100752227008343
1772699892995110000,3.22810986328125,0.0046506780199706554,0.006027532275766134,0.0035505264531821012
1772699893005066800,3.238066650390625,0.0035603800788521767,0.006873885169625282,0.0024487765040248632
1772699893015024600,3.248024658203125,0.002148372121155262,0.007476292084902525,0.004705006722360849
1772699893024981800,3.257981689453125,0.003117496380582452,0.0016229304019361734,0.0073628416284918785
1772699893034939000,3.26793896484375,0.0033135050907731056,0.006676544900983572,0.006740460637956858
1772699893044895700,3.277895751953125,0.0013869742397218943,0.0049468218348920345,0.004055195488035679
1772699893054853600,3.287853515625,0.0024794030468910933,0.007125287316739559,0.005357747431844473
1772699893064810800,3.297810791015625,0.004626177251338959,0.005599828902631998,0.0018349179299548268
1772699893074768000,3.307767822265625,0.00333241350017488,0.006114351563155651,0.004308994393795729
1772699893084724700,3.317724853515625,0.002269812161102891,0.00706829596310854,0.005116731394082308
1772699893094682600,3.3276826171875,0.0015696671325713396,0.008954346179962158,0.004098604898899794
1772699893104639700,3.3376396484375,0.002359027974307537,0.009942911565303802,0.0018125474452972412
1772699893114596900,3.347596923828125,0.0033577135764062405,0.005827795248478651,0.0022069616243243217
1772699893124553700,3.3575537109375,0.004203266929835081,0.006454703398048878,0.0035236284602433443
1772699893134510800,3.3675107421875,0.0007648598402738571,0.006418484263122082,0.0064893243834376335
1772699893144468700,3.37746875,0.002217081608250737,0.004059456288814545,0.005301021970808506
1772699893154425600,3.387425537109375,0.0017355820164084435,0.005110872443765402,0.00577719509601593
1772699893164382700,3.3973828125,0.004070907831192017,0.006200904026627541,0.005650694947689772
1772699893174339800,3.40733984375,0.004574245307594538,0.005312207154929638,0.007092530373483896
1772699893184297700,3.417297607421875,0.0016998957144096494,0.004850415047258139,0.002843723399564624
1772699893194254600,3.427254638671875,0.006059756502509117,0.0054243262857198715,0.0051686628721654415
1772699893204211700,3.437211669921875,0.003486610483378172,0.005148422904312611,0.004839762579649687
1772699893214168800,3.4471689453125,0.003852795111015439,0.005686647724360228,0.004758269991725683
1772699893224126700,3.457126708984375,0.002401106059551239,0.0065588331781327724,0.0035065840929746628
1772699893234083600,3.46708349609375,0.001883121207356453,0.007554056588560343,0.0029619678389281034
1772699893244040700,3.477040771484375,0.005526858381927013,0.004942560568451881,0.004762530792504549
1772699893253997800,3.486997802734375,0.001800030586309731,0.005479720421135426,0.0033928672783076763
1772699893263954700,3.49695458984375,0.0020519655663520098,0.004984905011951923,0.0037233654875308275
1772699893273912600,3.50691259765625,0.0020993698853999376,0.005644037388265133,0.005593969952315092
1772699893283869700,3.51686962890625,0.0018013621447607875,0.005529521498829126,0.0064866612665355206
1772699893293826800,3.526826904296875,0.0012042814632877707,0.0067657604813575745,0.00836658664047718
1772699893303783700,3.53678369140625,0.001973402453586459,0.005407282151281834,0.006800381932407618
1772699893313741600,3.546741455078125,0.003388073528185487,0.006375873927026987,0.004315652418881655
1772699893323698700,3.55669873046875,0.003612311789765954,0.005514874123036861,0.004464257042855024
1772699893333655800,3.56665576171875,0.0036597158759832382,0.004996090196073055,0.003227751236408949
1772699893343612700,3.57661279296875,0.0019299928098917007,0.004733236040920019,0.0028490496333688498
1772699893353570800,3.58657080078125,0.001531850197352469,0.006031527183949947,0.004933239426463842
1772699893363527700,3.596527587890625,0.0034703651908785105,0.0029348034877330065,0.004295146092772484
1772699893373484500,3.606484619140625,0.0019885823130607605,0.006923952605575323,0.008134093135595322
1772699893383441700,3.616441650390625,0.0014357101172208786,0.005853627808392048,0.0027316042687743902
1772699893393398800,3.626398681640625,0.0036429380998015404,0.007413174957036972,0.004567321389913559
1772699893403356700,3.636356689453125,0.0016860472969710827,0.008646485395729542,0.0036762275267392397
1772699893413313500,3.6463134765625,0.003925765864551067,0.008191617205739021,0.006675213109701872
1772699893423270700,3.656270751953125,0.0033742249943315983,0.00765818590298295,0.005687979515641928
1772699893433227800,3.666227783203125,0.0009563411585986614,0.006850715726613998,0.001537709147669375
1772699893443186000,3.67618603515625,0.004219512455165386,0.004446147475391626,0.004275705199688673
1772699893453142500,3.686142578125,0.001659948262386024,0.006209426559507847,0.006421946454793215
1772699893463099600,3.696099609375,0.0034700988326221704,0.005654423497617245,0.001570998691022396
1772699893473056800,3.706056884765625,0.003096190979704261,0.008979113772511482,0.0035087147261947393
1772699893483015000,3.716014892578125,0.0035976641811430454,0.007391603663563728,0.0038573225028812885
1772699893492971800,3.7259716796875,0.0020956413354724646,0.007208378054201603,0.0031457259319722652
1772699893502928600,3.7359287109375,0.003035204717889428,0.008014250546693802,0.005674397107213736
1772699893512885800,3.7458857421875,0.0026770094409585,0.004006992094218731,0.005446164403110743
1772699893522842600,3.755842529296875,0.002877279184758663,0.006454969756305218,0.004664260428398848
1772699893532800800,3.76580078125,0.001457814360037446,0.007722634356468916,0.005857356358319521
1772699893542757600,3.775757568359375,0.003093261504545808,0.004163586068898439,0.002831472782418132
1772699893552714800,3.78571484375,0.0016335829859599471,0.0037555897142738104,0.0049193911254405975
1772699893562671600,3.795671630859375,0.003611512714996934,0.007179616019129753,0.002302835462614894
1772699893572629800,3.805629638671875,0.0036607813090085983,0.004504736978560686,0.004908738657832146
1772699893582587000,3.8155869140625,0.0032469260040670633,0.0065772091038525105,0.006534065585583448
1772699893592543700,3.825543701171875,0.004516188520938158,0.006475476082414389,0.004455468617379665
1772699893602500600,3.83550048828125,0.0016354472609236836,0.007190801203250885,0.0036727653350681067
1772699893612458800,3.845458740234375,0.00321843009442091,0.007099987473338842,0.004447478801012039
1772699893622416000,3.855415771484375,0.003668770659714937,0.004743888974189758,0.007075752597302198
1772699893632372700,3.865372802734375,0.0014447649009525776,0.005572664551436901,0.0038091193418949842
1772699893642329600,3.87532958984375,0.002118544653058052,0.0057433731853961945,0.00541394017636776
1772699893652287700,3.885287841796875,0.004126035608351231,0.005225121974945068,0.004454136826097965
1772699893662244900,3.895244873046875,0.004188619554042816,0.009843842126429081,0.0007062703371047974
1772699893672201700,3.90520166015625,0.0010282464791089296,0.006972421891987324,0.007010771427303553
1772699893682158600,3.91515869140625,0.004474376793950796,0.008141282945871353,0.003041330026462674
1772699893692115700,3.92511572265625,0.0028386632911860943,0.0070914654061198235,0.0057074204087257385
1772699893702073900,3.935073974609375,0.005801696330308914,0.007666974328458309,0.002939597237855196
1772699893712030700,3.94503076171875,0.0029792783316224813,0.008591623976826668,0.004005394410341978
1772699893721987800,3.95498779296875,0.0009113337146118283,0.007493069861084223,0.0033686324022710323
1772699893731944700,3.96494482421875,0.0015654060989618301,0.005805957596749067,0.008978314697742462
1772699893741902800,3.97490283203125,0.0022040321491658688,0.0054152715019881725,0.004329234827309847
1772699893751859700,3.984859619140625,-0.0014455638593062758,0.007333546411246061,0.0031675638165324926
1772699893761816800,3.99481689453125,0.0046160570345819,0.00818229652941227,0.0041614556685090065
1772699893771773700,4.004773681640625,0.005387042183429003,0.0033814155030995607,0.0046578687615692616
1772699893781731800,4.01473193359375,0.004293015692383051,0.007363373879343271,0.002578738844022155
1772699893791688700,4.024688720703125,0.0020152139477431774,0.006770021747797728,0.0031377363484352827
1772699893801645800,4.034645751953125,0.004325772635638714,0.007427556440234184,0.004123106133192778
1772699893811603000,4.04460302734375,0.0024700819049030542,0.004867459647357464,0.006512760184705257
1772699893821559600,4.0545595703125,0.003197923768311739,0.006281065288931131,0.006380933802574873
1772699893831517700,4.064517578125,0.0036157737486064434,0.006298908498138189,0.004229898564517498
1772699893841474800,4.074474853515625,0.0020623519085347652,0.007225422188639641,0.007690942846238613
1772699893851432000,4.084431884765625,0.0034786208998411894,0.00566853815689683,0.002855707658454776
1772699893861388800,4.094388916015625,0.0029768813401460648,0.004824848845601082,0.004446147475391626
1772699893871346700,4.1043466796875,0.0018216022290289402,0.007217432837933302,0.0027363980188965797
1772699893881303800,4.1143037109375,0.002049835165962577,0.0049673281610012054,0.0072355424053967
1772699893891260700,4.1242607421875,0.00101120222825557,0.004226436838507652,0.003863980295136571
1772699893901217800,4.1342177734375,0.0021603561472147703,0.006725813262164593,0.004030694253742695
1772699893911175700,4.14417578125,0.003040264593437314,0.004817924462258816,0.008076834492385387
1772699893921132800,4.1541328125,0.003373692510649562,0.005124720744788647,0.004443750716745853
1772699893931089700,4.164089599609375,0.003230414353311062,0.009913350455462933,0.003212304785847664
1772699893941046300,4.17404638671875,0.003893541404977441,0.00643712654709816,0.0038184402510523796
1772699893951003100,4.184003173828125,0.003537476761266589,0.00615136930719018,0.0023315974976867437
1772699893960961000,4.1939609375,0.00318940170109272,0.006894657853990793,0.006135390605777502
1772699893970918100,4.203918212890625,0.0035175031516700983,0.004794222768396139,0.005858155433088541
1772699893980875300,4.213875244140625,0.0034109766129404306,0.006296778097748756,0.0017592841759324074
1772699893990832000,4.22383203125,0.0021347899455577135,0.004297809209674597,0.005042961798608303
1772699894000790000,4.2337900390625,0.0025425199419260025,0.008242483250796795,0.003400856629014015
1772699894010747100,4.2437470703125,0.0034285534638911486,0.005554022267460823,0.0016026903176680207
1772699894020704300,4.253704345703125,0.0005145227187313139,0.0062483083456754684,0.006876281928271055
1772699894030661000,4.2636611328125,0.002382730133831501,0.00749093946069479,0.006843258626759052
1772699894040619000,4.273618896484375,0.005547896958887577,0.006558034103363752,0.003979295492172241
1772699894050576100,4.283576171875,0.0031587753910571337,0.0052413675002753735,0.004625910893082619
1772699894060533200,4.293533203125,0.0034759577829390764,0.005172924138605595,0.003907389938831329
1772699894070490000,4.303489990234375,0.003763312939554453,0.006758303847163916,0.003641073824837804
1772699894080447200,4.313447265625,0.004083691164851189,0.0041526672430336475,0.005677592940628529
1772699894090405000,4.323405029296875,0.003932423423975706,0.006756706163287163,0.0007787083159200847
1772699894100362200,4.3333623046875,0.0016913736471906304,0.0062493737787008286,0.005917544011026621
1772699894110319000,4.343319091796875,0.003614708548411727,0.004126567859202623,0.004515123087912798
1772699894120276200,4.353276123046875,0.003379817819222808,0.006077866069972515,0.006911435630172491
1772699894130234400,4.363234375,0.003914047963917255,0.004538292996585369,0.005991845857352018
1772699894140191000,4.37319091796875,0.0007190534961409867,0.005874134600162506,0.00395745737478137
1772699894150148000,4.383148193359375,0.004203799646347761,0.006969492416828871,0.0043593281880021095
1772699894160105200,4.393105224609375,0.0034940673504024744,0.005343632772564888,0.006698915269225836
1772699894170063400,4.4030634765625,0.004204598721116781,0.00777696305885911,0.006906109396368265
1772699894180020000,4.41302001953125,0.0020013656467199326,0.009758621454238892,0.0018964370246976614
1772699894189977000,4.42297705078125,0.0009539442835375667,0.006976949516683817,0.001749164192005992
1772699894199934200,4.432934326171875,0.002417883835732937,0.005853627808392048,0.0016588830621913075
1772699894209892400,4.442892333984375,0.0017417073249816895,0.008824117481708527,0.002859169617295265
1772699894219849200,4.45284912109375,0.0021350563038140535,0.007738879881799221,0.006708236411213875
1772699894229806000,4.46280615234375,0.0032799490727484226,0.006166549399495125,0.004972654394805431
1772699894239763200,4.47276318359375,0.0027265443932265043,0.005219529382884502,0.003424825146794319
1772699894249720000,4.482719970703125,0.0016535567119717598,0.007223291788250208,0.004619785584509373
1772699894259678200,4.49267822265625,0.00347435986623168,0.004593953024595976,0.005843241699039936
1772699894269635300,4.50263525390625,0.001216798322275281,0.007468569092452526,0.005400624126195908
1772699894279592200,4.51259228515625,0.005665076430886984,0.005583317019045353,0.002950516063719988
1772699894289549000,4.522549072265625,0.0026522420812398195,0.007909854874014854,0.0056741307489573956
1772699894299507200,4.532507080078125,0.0021435783710330725,0.007929029874503613,0.005282912403345108
1772699894309464300,4.54246435546875,0.003899400355294347,0.003864246653392911,0.005515939090400934
1772699894319421200,4.552421142578125,0.004730306565761566,0.0023486416321247816,0.006339654792100191
1772699894329378000,4.5623779296875,-0.00024447820032946765,0.007797203026711941,0.006856841035187244
1772699894339336200,4.572336181640625,0.0005246427026577294,0.006689061876386404,0.004032824654132128
1772699894349293300,4.582293212890625,0.003370230318978429,0.0037084517534822226,0.007665110286325216
1772699894359250200,4.592250244140625,0.001579787116497755,0.0067849354818463326,0.004879443906247616
1772699894369207000,4.60220703125,0.0027182884514331818,0.008519718423485756,0.0041763694025576115
1772699894379164200,4.6121640625,0.0028823392931371927,0.007470699492841959,0.0036855486687272787
1772699894389122300,4.622122314453125,0.002195776207372546,0.0041462755762040615,0.00669305631890893
1772699894399079200,4.6320791015625,0.000898550555575639,0.007417702581733465,0.00279019377194345
1772699894409036000,4.6420361328125,0.0026844663079828024,0.007245928514748812,0.005797435529530048
1772699894418993200,4.6519931640625,0.0032810145057737827,0.006205431651324034,0.003453853540122509
1772699894428951300,4.661951416015625,0.003665308468043804,0.005932990461587906,0.0038988678716123104
1772699894438908200,4.671908203125,0.0020357202738523483,0.004509530495852232,0.007471232209354639
1772699894448865300,4.681865234375,0.0034434671979397535,0.005163336638361216,0.0010820423485711217
1772699894458822100,4.691822265625,0.0023241406306624413,0.006734068971127272,0.0027896612882614136
1772699894468780300,4.7017802734375,0.0007387608638964593,0.007740743923932314,0.007354851812124252
1772699894478737200,4.711737060546875,0.0033193640410900116,0.0068267472088336945,0.007095992565155029
1772699894488694300,4.7216943359375,0.0033388049341738224,0.006369482260197401,0.004476507660001516
1772699894498651400,4.7316513671875,0.0031587753910571337,0.005927930120378733,0.001829591696150601
1772699894508609300,4.741609375,0.002168878447264433,0.004796353168785572,0.0027321369852870703
1772699894518566100,4.751566162109375,0.0013345100451260805,0.005503688473254442,0.004340153653174639
1772699894528523300,4.761523193359375,0.002713228575885296,0.005524727515876293,0.00526773277670145
1772699894538480400,4.77148046875,0.0036570527590811253,0.006474943365901709,0.005543902516365051
1772699894548437000,4.78143701171875,0.003951864782720804,0.004613127559423447,0.0062797339633107185
1772699894558395100,4.79139501953125,0.0014415690675377846,0.005323126446455717,0.003168362658470869
1772699894568352300,4.801352294921875,0.00159443449229002,0.005907956510782242,0.004035221878439188
1772699894578309400,4.811309326171875,0.002447977662086487,0.003567304229363799,0.002294047037139535
1772699894588266200,4.821266357421875,0.0022471752017736435,0.005179315805435181,0.0062640211544930935
1772699894598224100,4.83122412109375,0.0049590724520385265,0.006056294776499271,0.004581702407449484
1772699894608181200,4.84118115234375,0.003102049930021167,0.005804359447211027,0.004066380672156811
1772699894618138000,4.85113818359375,0.0003028014034498483,0.0073564499616622925,0.0037228327710181475
1772699894628095200,4.86109521484375,0.00247567449696362,0.008709069341421127,0.005449626594781876
1772699894638052400,4.87105224609375,0.0015249260468408465,0.008705873973667622,0.005855758674442768
1772699894648010200,4.88101025390625,0.0037020600866526365,0.006522081326693296,0.005569735076278448
1772699894657967000,4.890967041015625,0.0007840346079319715,0.006617422681301832,0.004201136529445648
1772699894667924200,4.90092431640625,0.003150785807520151,0.007523696403950453,0.006747917737811804
1772699894677881300,4.91088134765625,0.0019678096286952496,0.007631021551787853,0.003385144053027034
1772699894687839200,4.920839111328125,0.002121207769960165,0.004505003336817026,0.005560680292546749
1772699894697796000,4.930796142578125,0.0010817759903147817,0.0037856835406273603,0.0043902210891246796
1772699894707753200,4.940753173828125,0.003765709698200226,0.004674380179494619,0.004967061802744865
1772699894717710300,4.95071044921875,0.0029973878990858793,0.005813414230942726,0.0055034225806593895
1772699894727668200,4.960668212890625,0.004053330980241299,0.005659217480570078,0.004767324775457382
1772699894737625000,4.970625,0.0021819279063493013,0.006072539836168289,0.003996339626610279
1772699894747582200,4.980582275390625,0.0022280006669461727,0.003733219113200903,0.0033782199025154114
1772699894757539300,4.990539306640625,0.0034972631838172674,0.006165218073874712,0.003988349810242653
1772699894767497200,5.000497314453125,0.0019688750617206097,0.0049225869588553905,0.007678958587348461
1772699894777454000,5.0104541015625,0.00535614974796772,0.005311408545821905,0.00458756135776639
1772699894787411200,5.0204111328125,0.002502306131646037,0.0042144525796175,0.0028418591246008873
1772699894797368300,5.030368408203125,0.0035603800788521767,0.008557802066206932,0.003594468580558896
1772699894807325200,5.0403251953125,0.0015246596885845065,0.007911186665296555,0.00011345066013745964
1772699894817283000,5.050282958984375,0.0016226640436798334,0.005390238016843796,0.00452790642157197
1772699894827240200,5.060240234375,0.0035425368696451187,0.007454453967511654,0.009124788455665112
1772699894837197300,5.070197265625,0.004203000571578741,0.00440912926569581,0.005876265000551939
1772699894847154200,5.080154296875,0.0027473168447613716,0.005768406670540571,0.005047755315899849
1772699894857112000,5.090112060546875,0.0002641855680849403,0.00504083139821887,0.002871420234441757
1772699894867069200,5.100069091796875,0.002969424705952406,0.007625162601470947,0.004488225560635328
1772699894877026000,5.110026123046875,0.0021931130904704332,0.008738630451261997,0.007214769721031189
1772699894886983200,5.119983154296875,0.0005462143453769386,0.004960137419402599,0.0018245317041873932
1772699894896941300,5.12994140625,0.002662628423422575,0.004819788970053196,0.006696784868836403
1772699894906898200,5.139898193359375,0.001139300293289125,0.00492098880931735,0.0054914383217692375
1772699894916855000,5.14985498046875,0.001520132296718657,0.007765511516481638,0.003421096596866846
1772699894926812200,5.159812255859375,0.003597398055717349,0.005803028121590614,0.0013345100451260805
1772699894936769300,5.169769287109375,0.0030983216129243374,0.006376406643539667,0.004623514134436846
1772699894946727200,5.17972705078125,0.0005464806454256177,0.006390787661075592,0.0019401127938181162
1772699894956684000,5.18968408203125,0.003602990647777915,0.005319397896528244,0.005107143893837929
1772699894966641200,5.19964111328125,0.0026176210958510637,0.004021639470010996,0.007509315386414528
1772699894976598300,5.209598388671875,0.000600809114985168,0.0051926313899457455,0.004218180663883686
1772699894986556400,5.219556396484375,0.004503138829022646,0.006727410946041346,0.0054328483529388905
1772699894996513000,5.229512939453125,-0.000559263804461807,0.006246710661798716,0.003871171036735177
1772699895006470100,5.23947021484375,0.0043739755637943745,0.006086654495447874,0.005560946650803089
1772699895016427300,5.24942724609375,0.003430684097111225,0.006434197071939707,0.004222974646836519
1772699895026385200,5.25938525390625,0.004005128052085638,0.007870705798268318,0.004827245604246855
1772699895036342300,5.26934228515625,0.0031289479229599237,0.003840544493868947,0.003567836945876479
1772699895046299100,5.279299072265625,0.002413090318441391,0.008332498371601105,0.005852030124515295
1772699895056256300,5.28925634765625,0.0073348782025277615,0.008417985402047634,0.0032168321777135134
1772699895066213000,5.299213134765625,0.0018924422329291701,0.006372678093612194,0.005375057924538851
1772699895076171300,5.309171142578125,0.0035230957437306643,0.006330600008368492,0.005636047571897507
1772699895086128000,5.319128173828125,0.0018130800453945994,0.005542570725083351,0.006586529780179262
1772699895096085000,5.3290849609375,0.00036911413189955056,0.005169994663447142,0.0035401401109993458
1772699895106042000,5.3390419921875,0.002008023438975215,0.006876281928271055,0.00501073757186532
1772699895116000300,5.349000244140625,0.0025537051260471344,0.007336209993809462,0.003133208956569433
1772699895125957400,5.358957275390625,0.0013254552613943815,0.006530869752168655,0.00600436283275485
1772699895135914000,5.3689140625,0.0013286510948091745,0.007236873731017113,0.004597148858010769
1772699895145871000,5.37887109375,0.0030429279431700706,0.0054328483529388905,0.00595562718808651
1772699895155829200,5.388829345703125,0.003632551757618785,0.00609357887879014,0.004948419518768787
1772699895165786400,5.398786376953125,0.0031904669012874365,0.006392918061465025,0.004622981417924166
1772699895175743000,5.408742919921875,0.0028503811918199062,0.006055229343473911,0.0062363240867853165
1772699895185700000,5.4187001953125,0.002927612978965044,0.007985222153365612,0.006367884576320648
1772699895195657200,5.4286572265625,0.00008655273268232122,0.007663778495043516,0.005395297892391682
1772699895205615400,5.438615478515625,0.0022274679504334927,0.006770021747797728,0.0052048820070922375
1772699895215572200,5.448572265625,0.0026937874499708414,0.005452822428196669,0.004457599017769098
1772699895225529000,5.458529052734375,0.0009054747642949224,0.005143363028764725,0.004734567832201719
1772699895235486200,5.468486328125,-0.000360059377271682,0.006711964961141348,0.0073196981102228165
1772699895245444400,5.4784443359375,0.00130947632715106,0.006929811555892229,0.003174221608787775
1772699895255401200,5.488401123046875,0.005487177055329084,0.009634784422814846,0.001514539704658091
1772699895265358300,5.4983583984375,0.004151335451751947,0.007250988855957985,0.004653341136872768
1772699895275315200,5.508315185546875,0.0011584750609472394,0.004525509662926197,0.003750795964151621
1772699895285273000,5.518273193359375,0.004514856729656458,0.006829410325735807,0.008044877089560032
1772699895295230200,5.528230224609375,0.0026674221735447645,0.006699980702251196,0.0048975530080497265
1772699895305187300,5.538187255859375,0.0007424892974086106,0.007297061383724213,0.006194246467202902
1772699895315144200,5.548144287109375,0.001061802264302969,0.00797323789447546,0.004412591457366943
1772699895325102000,5.55810205078125,0.0016415724530816078,0.006808104924857616,0.0032226911280304193
1772699895335059200,5.56805908203125,0.0008511462947353721,0.005815278738737106,0.002100701443850994
1772699895345016300,5.578016357421875,0.0013907026732340455,0.006061887368559837,0.0024567660875618458
1772699895354973200,5.58797314453125,0.003606186481192708,0.007984156720340252,0.004992628004401922
1772699895364930000,5.597929931640625,0.0005352954030968249,0.007633684668689966,0.006607036106288433
1772699895374888200,5.60788818359375,0.0032623722217977047,0.0049010151997208595,0.004378236830234528
1772699895384845300,5.61784521484375,0.0023899206425994635,0.00782836228609085,0.004236822947859764
1772699895394802200,5.62780224609375,0.001457814360037446,0.006786266807466745,0.0025451830588281155
1772699895404759300,5.63775927734375,0.0028154938481748104,0.003992078360170126,0.008021974004805088
1772699895414717200,5.64771728515625,0.003778226673603058,0.0029854036401957273,0.006813963875174522
1772699895424674300,5.65767431640625,0.0013243899447843432,0.003945739474147558,0.005911418702453375
1772699895434631200,5.667631103515625,0.002832538215443492,0.005612345412373543,0.005007275380194187
1772699895444588300,5.67758837890625,0.0026706180069595575,0.008215585723519325,0.007969243451952934
1772699895454546200,5.687546142578125,0.0028333370573818684,0.0054485611617565155,0.006283195689320564
1772699895464503300,5.69750341796875,0.0014919028617441654,0.005863481666892767,0.005688512232154608
1772699895474460200,5.707460205078125,0.004553738981485367,0.0062792012467980385,0.004372910596430302
1772699895484417300,5.717417236328125,0.003934554290026426,0.006114085204899311,0.004482632502913475
1772699895494374400,5.72737451171875,0.003896737238392234,0.007845672778785229,0.006936469115316868
1772699895504332300,5.737332275390625,0.0011486213188618422,0.004294613376259804,0.006108226254582405
1772699895514289200,5.7472890625,0.0019710054621100426,0.008780175819993019,0.005625128746032715
1772699895524246300,5.757246337890625,0.001686579897068441,0.0067601678892970085,0.005133775528520346
1772699895534203400,5.767203369140625,0.0010924286907538772,0.0049319081008434296,0.0037955371662974358
1772699895544161000,5.7771611328125,0.0029060414526611567,0.0060054282657802105,0.005633650813251734
1772699895554118100,5.7871181640625,0.002772883279249072,0.005546831991523504,0.003968109842389822
1772699895564075300,5.7970751953125,0.0011797803454101086,0.006363356951624155,0.003382747294381261
1772699895574032100,5.8070322265625,0.0041060615330934525,0.005400358233600855,0.003868241561576724
1772699895583990000,5.816989990234375,0.002969424705952406,0.0076360818929970264,0.004837365821003914
1772699895593947100,5.826947021484375,0.003641073824837804,0.009576993063092232,0.006944991648197174
1772699895603904300,5.836904296875,-0.0005560680292546749,0.007404919248074293,0.004448277875781059
1772699895613861000,5.846861083984375,0.0029148298781365156,0.004852279555052519,0.005076251458376646
1772699895623818200,5.856818359375,0.003477022983133793,0.0041252365335822105,0.005510612856596708
1772699895633776000,5.866776123046875,0.0046576024033129215,0.007866178639233112,0.005216067191213369
1772699895643733200,5.876733154296875,0.0033683660440146923,0.006454703398048878,0.004613926634192467
1772699895653690000,5.886690185546875,0.0006657902849838138,0.005381449591368437,0.00418515782803297
1772699895663647200,5.896647216796875,0.002621349412947893,0.004965463653206825,0.005131112411618233
1772699895673605000,5.906605224609375,0.002810966456308961,0.007378287613391876,0.0057340520434081554
1772699895683562200,5.916562255859375,0.004040015395730734,0.006863764952868223,0.0022708773612976074
1772699895693519000,5.92651904296875,0.0023643544409424067,0.006581469904631376,0.004071174189448357
1772699895703476200,5.936476318359375,0.00012783173588104546,0.005964681971818209,0.0044317664578557014
1772699895713434000,5.94643408203125,0.004356931429356337,0.006287190597504377,0.0034322820138186216
1772699895723391200,5.95639111328125,0.0014213290996849537,0.006872287020087242,0.004231496714055538
1772699895733348000,5.96634814453125,0.0034490597900003195,0.007739944849163294,0.008095210418105125
1772699895743305200,5.97630517578125,0.0022114890161901712,0.0062459115870296955,0.002945189829915762
1772699895753262300,5.986262451171875,0.00245117349550128,0.007032343186438084,0.0027305390685796738
1772699895763220000,5.996219970703125,0.0028280108235776424,0.004878911189734936,0.00615163566544652
1772699895773177000,6.006177001953125,0.0015188007382676005,0.006843258626759052,0.0020993698853999376
1772699895783134200,6.01613427734375,0.0025885924696922302,0.0057492321357131,0.004775047767907381
1772699895793091300,6.02609130859375,0.0022514364682137966,0.008313856087625027,0.00637800432741642
1772699895803049000,6.036049072265625,0.00293293921276927,0.0075718993321061134,0.005800098646432161
1772699895813006000,6.046006103515625,0.0033276197500526905,0.0059598879888653755,0.003926298581063747
1772699895822963200,6.055963134765625,0.004735366906970739,0.004240817856043577,0.005228584166616201
1772699895832920000,6.065920166015625,0.0024224112275987864,0.0073564499616622925,0.000862864195369184
1772699895842878200,6.075878173828125,0.0009182579233311117,0.005733519326895475,0.0014658038271591067
1772699895852835000,6.0858349609375,0.00535375252366066,0.006951915565878153,0.004972920753061771
1772699895862792200,6.095792236328125,0.0033563817851245403,0.006143646314740181,0.004803277086466551
1772699895872749000,6.1057490234375,0.001210673013702035,0.006846987176686525,0.0029611687641590834
1772699895882707200,6.115707275390625,0.00455826660618186,0.0062941149808466434,0.002177933230996132
1772699895892664300,6.125664306640625,0.0035598473623394966,0.007405451964586973,0.0029824741650372744
1772699895902621200,6.13562109375,-0.000011984225238848012,0.006761233322322369,0.0016703346045687795
1772699895912578000,6.145578125,0.00506959343329072,0.004838697146624327,0.004640824627131224
1772699895922535200,6.15553515625,0.0034943337086588144,0.007835552096366882,0.0017539578257128596
1772699895932493300,6.165493408203125,0.0017528926255181432,0.00806351937353611,0.003739078063517809
1772699895942451500,6.175451416015625,0.0004426173691172153,0.006421147845685482,0.0022173479665070772
1772699895952408600,6.18540869140625,0.0008223841432482004,0.005656288005411625,0.005106078926473856
1772699895962365400,6.195365478515625,0.0032314795535057783,0.0029052423778921366,0.0041587925516068935
1772699895972323300,6.2053232421875,0.004637362435460091,0.005096225067973137,0.0067452541552484035
1772699895982280400,6.215280517578125,0.0018839201657101512,0.005849633365869522,0.005799565929919481
1772699895992237300,6.2252373046875,0.0037092508282512426,0.0079133166000247,0.004101534374058247
1772699896002194400,6.2351943359375,0.003606186481192708,0.00675217853859067,0.00461579067632556
1772699896012151600,6.245151611328125,0.002097239252179861,0.005686914082616568,0.004914064891636372
1772699896022109400,6.255109375,0.004502872936427593,0.006688262801617384,0.005812349263578653
1772699896032066300,6.26506640625,0.0036911412607878447,0.005800897255539894,0.007455785758793354
1772699896042023400,6.2750234375,0.0026381274219602346,0.005224056541919708,0.0029790119733661413
1772699896051980500,6.28498046875,0.0020210728980600834,0.005257079843431711,0.004203533288091421
1772699896061938400,6.2949384765625,0.003400856629014015,0.004521248396486044,0.0027393274940550327
1772699896071895300,6.304895263671875,0.003343865042552352,0.00526613462716341,0.0049004824832081795
1772699896081852400,6.314852294921875,0.0035145736765116453,0.006486129015684128,0.0027475832030177116
1772699896091809500,6.3248095703125,0.0014484933344647288,0.00566907087340951,0.0049066077917814255
1772699896101767400,6.334767333984375,0.0007062703371047974,0.00785605888813734,0.006866428069770336
1772699896111724300,6.344724365234375,0.001252484624274075,0.008554339408874512,0.0018463695887476206
1772699896121681400,6.354681396484375,0.0023992417845875025,0.006578274071216583,0.005490106530487537
1772699896131638500,6.364638427734375,0.00421285443007946,0.004751611966639757,0.0007976167253218591
1772699896141595400,6.374595458984375,0.0030418625101447105,0.005980127956718206,0.0034258903469890356
1772699896151553300,6.38455322265625,0.002725212834775448,0.004225904121994972,0.003935619257390499
1772699896161510400,6.394510498046875,0.0008980178972706199,0.0062789348885416985,0.003877029987052083
1772699896171467500,6.404467529296875,-0.0005688511882908642,0.008915198035538197,0.005347094964236021
1772699896181424400,6.41442431640625,0.004279433749616146,0.006099437829107046,0.004397944081574678
1772699896191382500,6.424382568359375,0.005270928610116243,0.0054299188777804375,0.004239486064761877
1772699896201339400,6.43433935546875,0.0021398498211055994,0.005273059010505676,0.006346845533698797
1772699896211296300,6.444296142578125,-0.002986468840390444,0.005583317019045353,0.0038330876268446445
1772699896221253400,6.45425341796875,0.003930293023586273,0.006627010181546211,0.006268814671784639
1772699896231211500,6.46421142578125,0.004541222471743822,0.0043622576631605625,0.005224056541919708
1772699896241168400,6.47416845703125,0.0025220136158168316,0.0060270000249147415,0.0041406829841434956
1772699896251125200,6.484125244140625,0.002909237053245306,0.006773217581212521,0.006738063879311085
1772699896261082400,6.494082275390625,0.004661863669753075,0.004709267523139715,0.006564425770193338
1772699896271039500,6.50403955078125,0.00264744833111763,0.004793956410139799,0.006617689039558172
1772699896280997600,6.51399755859375,0.0008929579053074121,0.004403270315378904,0.004007791168987751
1772699896290954200,6.523954345703125,0.0017305220244452357,0.004674113821238279,0.005570267792791128
1772699896300911400,6.533911376953125,0.0034961977507919073,0.006172141991555691,0.004631769843399525
1772699896310868500,6.543868408203125,0.0007560714147984982,0.007201187312602997,0.0008812400046736002
1772699896320826600,6.55382666015625,0.003907922655344009,0.005931925028562546,0.003997138235718012
1772699896330783500,6.563783447265625,0.0013752563390880823,0.007542870938777924,0.0019273296929895878
1772699896340740400,6.573740234375,0.0027590349782258272,0.0049095372669398785,0.006447779480367899
1772699896350697500,6.583697509765625,0.00029348034877330065,0.007429686840623617,0.00370126124471426
1772699896360655600,6.593655517578125,0.0032583775464445353,0.003728425595909357,0.006347111891955137
1772699896370612500,6.603612548828125,0.001535312389023602,0.007862983271479607,0.0044195158407092094
1772699896380569300,6.6135693359375,0.0006820355774834752,0.005316202063113451,0.007355384528636932
1772699896390526500,6.6235263671875,0.0017369136912748218,0.009968211874365807,0.0006141249323263764
1772699896400484400,6.633484375,0.004844822455197573,0.006895989179611206,0.004786765668541193
1772699896410441500,6.64344140625,0.005754292011260986,0.003900465788319707,0.006810235325247049
1772699896420398600,6.653398681640625,0.0024106933269649744,0.006518086884170771,0.00421232171356678
1772699896430355500,6.66335546875,0.0021789984311908484,0.007021158002316952,0.001118527608923614
1772699896440312300,6.673312255859375,0.000990962260402739,0.007152984384447336,0.005252819042652845
1772699896450270500,6.6832705078125,0.0035388083197176456,0.007477357517927885,0.0043654534965753555
1772699896460227600,6.6932275390625,0.0031108383554965258,0.006807305850088596,0.004673315212130547
1772699896470184400,6.703184326171875,0.0032554480712860823,0.004512459971010685,0.0018245317041873932
1772699896480141300,6.713141357421875,0.004391818773001432,0.007650462910532951,0.004201935604214668
1772699896490099500,6.723099365234375,0.0009944243356585503,0.005843241699039936,0.0028104339726269245
1772699896500056600,6.733056640625,0.003932157531380653,0.005665875039994717,0.0036943370942026377
1772699896510013400,6.743013427734375,0.0027451864443719387,0.00580862071365118,0.0051596080884337425
1772699896519970300,6.75297021484375,0.002681004349142313,0.0051966262981295586,0.006543386727571487
1772699896529928400,6.762928466796875,0.0030365362763404846,0.006989998742938042,0.006166016682982445
1772699896539885600,6.772885498046875,0.0018887137994170189,0.005673065781593323,0.002412557601928711
1772699896549842400,6.782842529296875,0.00315930787473917,0.006485862657427788,0.004635232035070658
1772699896559799600,6.792799560546875,0.003509779926389456,0.00686190091073513,0.00637827068567276
1772699896569756400,6.80275634765625,0.0037260286044329405,0.0060299295000731945,0.0032621060963720083
1772699896579714600,6.812714599609375,0.0012205267557874322,0.004988899454474449,0.00532472413033247
1772699896589671400,6.82267138671875,0.00018908442871179432,0.007322361227124929,0.0043832967057824135
1772699896599628500,6.832628662109375,0.0011827098205685616,0.005624862387776375,0.0059779975563287735
1772699896609585400,6.84258544921875,0.002243713242933154,0.005287706386297941,0.005995041690766811
1772699896619543600,6.85254345703125,0.0006141249323263764,0.005987851414829493,0.0035542547702789307
1772699896629500400,6.86250048828125,0.0016229304019361734,0.00493244081735611,0.006833404768258333
1772699896639457500,6.87245751953125,0.0024176177103072405,0.006098106037825346,0.006360693834722042
1772699896649414700,6.88241455078125,0.00119602563790977,0.0067875985987484455,0.005735650192946196
1772699896659372300,6.892372314453125,0.0025036376900970936,0.008717591874301434,0.007267233915627003
1772699896669329400,6.902329345703125,0.0020178770646452904,0.005511145573109388,0.005124454386532307
1772699896679286500,6.91228662109375,0.003644003299996257,0.005604089703410864,0.0037055222783237696
1772699896689243600,6.92224365234375,0.0022530341520905495,0.006397977937012911,0.004199538845568895
1772699896699200500,6.932200439453125,0.004456267226487398,0.005803560372442007,0.004366252571344376
1772699896709158400,6.942158447265625,0.0041364217177033424,0.006732737645506859,0.0030714236199855804
1772699896719115500,6.952115478515625,0.002926813904196024,0.0036946034524589777,0.00464615086093545
1772699896729072400,6.962072265625,0.0039039277471601963,0.006214752793312073,0.004451473709195852
1772699896739029500,6.972029541015625,0.002520415699109435,0.007503722794353962,0.0035113778430968523
1772699896748987400,6.9819873046875,0.004031759686768055,0.0068033114075660706,0.003825897118076682
1772699896758944500,6.991944580078125,0.002514823107048869,0.0054845139384269714,0.0029055087361484766
1772699896768901400,7.0019013671875,0.00043649208964779973,0.007758587133139372,0.0018759306985884905
1772699896778858500,7.0118583984375,0.001865544356405735,0.006429936271160841,0.007409713231027126
1772699896788816400,7.02181640625,0.0017683389596641064,0.006901315413415432,-0.0004599279200192541
1772699896798773500,7.0317734375,0.0031286815647035837,0.006681604776531458,0.0029611687641590834
1772699896808730400,7.04173046875,0.001210406655445695,0.005758286919444799,0.0029356025625020266
1772699896818687500,7.0516875,0.002739860210567713,0.004935370292514563,0.003865312086418271
1772699896828644600,7.06164453125,0.0019270633347332478,0.006593454163521528,0.005017129238694906
1772699896838602500,7.0716025390625,0.002180596347898245,0.007130347657948732,0.004145210143178701
1772699896848559400,7.081559326171875,0.0018865832826122642,0.0071010529063642025,0.006341519299894571
1772699896858516500,7.0915166015625,0.003555852686986327,0.007488542702049017,0.0048887645825743675
1772699896868473600,7.1014736328125,0.00210735946893692,0.005842176266014576,0.00461579067632556
1772699896878431200,7.11143115234375,0.0029225528705865145,0.005434180144220591,0.002516420790925622
1772699896888388400,7.121388427734375,0.0034884747583419085,0.007567904889583588,0.004974518436938524
1772699896898345500,7.131345458984375,0.0017180051654577255,0.006762298755347729,0.008130630478262901
1772699896908302600,7.141302490234375,0.0006157228490337729,0.005404352676123381,0.004237355664372444
1772699896918260200,7.15126025390625,0.002665824256837368,0.006580937188118696,0.004288488067686558
1772699896928217300,7.16121728515625,0.00250470289029181,0.006454170681536198,0.001540638622827828
1772699896938173700,7.171173583984375,0.0028075044974684715,0.006614493206143379,0.0023907197173684835
1772699896948130600,7.181130615234375,0.0032770195975899696,0.005282912403345108,0.005292766261845827
1772699896958087700,7.191087646484375,0.0025478461757302284,0.004283161833882332,0.004081827122718096
1772699896968045800,7.2010458984375,0.002567820018157363,0.006155364215373993,0.0032985913567245007
1772699896978002700,7.211002685546875,0.0019172097090631723,0.006219279952347279,0.004795820452272892
1772699896987959600,7.22095947265625,0.002770752878859639,0.004730839282274246,0.005437642335891724
1772699896997916700,7.230916748046875,0.0010735202813521028,0.007950867526233196,0.0041334922425448895
1772699897007874800,7.240874755859375,0.0014034858904778957,0.008196410723030567,0.00694951880723238
1772699897017831700,7.250831787109375,0.002864762442186475,0.009631055407226086,0.004341751337051392
1772699897027788500,7.26078857421875,0.0016287893522530794,0.006843791343271732,0.002974484581500292
1772699897037745700,7.27074560546875,0.004071973264217377,0.004761998075991869,0.003212837502360344
1772699897047703800,7.280703857421875,0.003940146882086992,0.006969758775085211,0.0051806471310555935
1772699897057660700,7.29066064453125,0.001570998691022396,0.0052179316990077496,0.007839281111955643
1772699897067617500,7.300617431640625,0.0034759577829390764,0.006253635045140982,0.0024852619972079992
1772699897077574700,7.31057470703125,0.003930026665329933,0.007795338984578848,0.0032679650466889143
1772699897087531800,7.32053173828125,0.004492752719670534,0.0049063414335250854,0.0067569720558822155
1772699897097489700,7.33048974609375,0.002692722249776125,0.004194212146103382,0.006736732088029385
1772699897107446800,7.34044677734375,0.00452923821285367,0.00467651104554534,0.0032732912804931402
1772699897117403600,7.350403564453125,0.003531351685523987,0.006508499383926392,0.004816060420125723
1772699897127360500,7.360360595703125,0.0017619474092498422,0.005233377683907747,0.0031872710678726435
1772699897137318700,7.370318603515625,0.0021971079986542463,0.005318332463502884,0.0022415826097130775
1772699897147275800,7.38027587890625,0.004086087923496962,0.006054163910448551,0.004807005636394024
1772699897157232600,7.390232666015625,0.004157727118581533,0.00631888210773468,0.0018314558546990156
1772699897167189500,7.400189453125,0.0021204089280217886,0.005368399899452925,0.0034874093253165483
1772699897177147600,7.410147705078125,0.004023769870400429,0.006013950332999229,0.007028614636510611
1772699897187104800,7.420104736328125,0.0016285229939967394,0.007619037292897701,0.005440305452793837
1772699897197062000,7.430061767578125,0.0010546117555350065,0.006167614832520485,0.005975867155939341
1772699897207018500,7.4400185546875,0.0046448190696537495,0.006500510033220053,0.0052376389503479
1772699897216975600,7.4499755859375,0.00250496924854815,0.007483482826501131,0.0022306637838482857
1772699897226933800,7.459933837890625,0.003369697602465749,0.008823851123452187,0.004323109518736601
1772699897236891000,7.469890869140625,0.0012431635987013578,0.0070882695727050304,0.0017715347930788994
1772699897246847700,7.47984765625,0.0022365227341651917,0.0070158313028514385,0.006431267596781254
1772699897256804600,7.4898046875,0.0028543761000037193,0.008013717830181122,0.0032144354190677404
1772699897266762800,7.4997626953125,0.0036855486687272787,0.006673615425825119,0.0068120998330414295
1772699897276719600,7.5097197265625,0.004581436049193144,0.0065465825609862804,0.0043713124468922615
1772699897286676700,7.5196767578125,0.0026932547334581614,0.004627774935215712,0.002770486520603299
1772699897296633600,7.529633544921875,0.000743820914067328,0.006386792752891779,0.00968565046787262
1772699897306591700,7.539591796875,0.0033446638844907284,0.0033537186682224274,0.006570018362253904
1772699897316548600,7.549548583984375,0.0023845944087952375,0.004845887888222933,0.0031965922098606825
1772699897326505700,7.559505615234375,0.0021025657188147306,0.008236624300479889,0.0021792647894471884
1772699897336462800,7.569462890625,0.002156095113605261,0.006396646611392498,0.0035489285364747047
1772699897346419500,7.57941943359375,0.003111371072009206,0.008068845607340336,0.0022245384752750397
1772699897356377600,7.589377685546875,0.0004980111261829734,0.008267783559858799,0.004971322603523731
1772699897366334700,7.599334716796875,0.0010801780736073852,0.007208378054201603,0.0023276028223335743
1772699897376291800,7.609291748046875,0.0015715312911197543,0.009198025800287724,0.0035872780717909336
1772699897386248700,7.619248779296875,0.004396612755954266,0.006457632873207331,0.0052016861736774445
1772699897396206600,7.62920654296875,0.0030977888964116573,0.007939149625599384,0.0062067629769444466
1772699897406163700,7.639163818359375,-0.00011291803093627095,0.008146077394485474,0.004382231738418341
1772699897416120800,7.649120849609375,0.0032498554792255163,0.005311941262334585,0.00546240946277976
1772699897426077700,7.65907763671875,0.002294047037139535,0.007739678490906954,0.006146309431642294
1772699897436035600,7.66903564453125,0.003471164032816887,0.007918909192085266,0.005632053129374981
1772699897445992700,7.67899267578125,0.0019824570044875145,0.008698683232069016,0.0038812910206615925
1772699897455949800,7.68894970703125,0.0023217438720166683,0.009550894610583782,0.004652009811252356
1772699897465906700,7.69890673828125,0.0029619678389281034,0.004458131734281778,0.00443975580856204
1772699897475863800,7.70886376953125,0.0033686324022710323,0.006859770510345697,0.005403553601354361
1772699897485821700,7.71882177734375,0.0017251957906410098,0.007556186988949776,0.005905826110392809
1772699897495778800,7.72877880859375,0.003993143793195486,0.007803328335285187,0.004452272783964872
1772699897505735700,7.738735595703125,0.0029936593491584063,0.006200371775776148,0.006755640730261803
1772699897515692800,7.74869287109375,0.0013675332302227616,0.007155647501349449,0.0013574132462963462
1772699897525650700,7.758650634765625,0.0020903151016682386,0.005633917171508074,0.002778475871309638
1772699897535607600,7.768607666015625,0.0026581010315567255,0.0007776430575177073,0.0027366643771529198
1772699897545564700,7.778564697265625,0.000895621080417186,0.005834719631820917,0.005148422904312611
1772699897555521800,7.788521728515625,-0.0000010652644277797663,0.006729541812092066,0.0038506644777953625
1772699897565479700,7.798479736328125,0.004619252867996693,0.0015896408585831523,0.007005711551755667
1772699897575436500,7.8084365234375,0.0036583843175321817,0.006396912969648838,0.005829926114529371
1772699897585393700,7.8183935546875,0.0036975329276174307,0.006563360337167978,0.005815278738737106
1772699897595350800,7.828350830078125,0.002148372121155262,0.005280782002955675,0.0038426751270890236
1772699897605308700,7.83830859375,0.0027688886038959026,0.005723399575799704,0.001335575245320797
1772699897615265500,7.848265625,0.0032466596458107233,0.005253351293504238,0.001743305241689086
1772699897625222700,7.85822265625,0.004564924165606499,0.003704457078129053,0.0062464443035423756
1772699897635179800,7.8681796875,0.0036005936563014984,0.007254184223711491,0.00672288378700614
1772699897645136600,7.87813671875,0.00392762990668416,0.006469084415584803,0.003982490859925747
1772699897655094500,7.888094482421875,0.0018221348291262984,0.006292250473052263,0.0005917543894611299
1772699897665051600,7.8980517578125,0.005362807307392359,0.008134093135595322,0.002918025478720665
1772699897675008800,7.9080087890625,-0.00004926848123432137,0.004521248396486044,0.005086903925985098
1772699897684965600,7.917965576171875,0.001264735241420567,0.0037939392495900393,0.003590740030631423
1772699897694923500,7.927923583984375,0.0005446164286695421,0.004746818449348211,0.0057076867669820786
1772699897704880600,7.937880615234375,0.001002413802780211,0.0034410704392939806,0.004571582190692425
1772699897714837800,7.947837646484375,0.00030173614504747093,0.007297594100236893,0.0027148264925926924
1772699897724794600,7.957794677734375,0.0033044503070414066,0.00387303507886827,0.003817641409114003
1772699897734751700,7.967751708984375,0.004096474498510361,0.0024714134633541107,0.004064516630023718
1772699897744709600,7.977709716796875,0.0028075044974684715,0.005596633069217205,0.004299940075725317
1772699897754666800,7.987666748046875,0.004760400392115116,0.006269081030040979,0.0047026099637150764
1772699897764623600,7.99762353515625,0.0026913906913250685,0.006376673001796007,0.005116997752338648
1772699897774580700,8.007580810546875,0.0025861957110464573,0.004703408572822809,0.0026077672373503447
1772699897784538600,8.01753857421875,0.004997687879949808,0.006676012184470892,0.004531368613243103
1772699897794495500,8.02749560546875,0.003163036424666643,0.004790760576725006,0.004801945760846138
1772699897804452600,8.03745263671875,0.001820803270675242,0.0062096924521028996,0.005513808690011501
1772699897814409700,8.04740966796875,0.00048416267964057624,0.00609224708750844,0.0026844663079828024
1772699897824367900,8.057367919921875,0.0015824503498151898,0.005633384454995394,0.005321261938661337
1772699897834324500,8.067324462890625,0.0019646140281111,0.007445399183779955,0.0016495619202032685
1772699897844281600,8.077281494140625,0.004622448701411486,0.007910653948783875,0.00469435378909111
1772699897854238700,8.08723876953125,0.0018634138396009803,0.005135107319802046,0.005005677696317434
1772699897864196900,8.09719677734375,0.0032266860362142324,0.007383613847196102,0.005886917468160391
1772699897874153700,8.10715380859375,0.0031872710678726435,0.007922904565930367,0.005002215504646301
1772699897884110600,8.117110595703124,0.0018405106384307146,0.006621683482080698,0.0005842975224368274
1772699897894067700,8.127067626953124,0.0016130766598507762,0.007729558739811182,0.008783903904259205
1772699897904024600,8.137024658203124,0.0028242822736501694,0.007877630181610584,0.004560130648314953
1772699897913982700,8.146982666015624,0.0012458267156034708,0.005873069167137146,0.0060296631418168545
1772699897923939600,8.156939697265624,0.004458664450794458,0.005829127039760351,0.0054392400197684765
1772699897933896700,8.166896728515624,0.002906573936343193,0.004253334365785122,0.0067753479816019535
1772699897943853600,8.176853515625,0.003484213724732399,0.005775597412139177,0.0007126618875190616
1772699897953811700,8.186811767578124,0.0016431703697890043,0.007134608458727598,0.004217914305627346
1772699897963768800,8.196768798828124,0.004727643448859453,0.004322843160480261,0.0035872780717909336
1772699897973725400,8.206725341796876,0.0035513252951204777,0.005900765769183636,0.005224322900176048
1772699897983682600,8.2166826171875,0.00199364242143929,0.007690410129725933,0.002482066163793206
1772699897993640700,8.226640625,-0.00014381069922819734,0.006686931010335684,0.0033595776185393333
1772699898003597600,8.23659765625,0.00404614070430398,0.004703941289335489,0.005423527676612139
1772699898013554700,8.2465546875,0.0018362496048212051,0.00768934516236186,0.005519401282072067
1772699898023511600,8.256511474609376,0.0025369273498654366,0.005001150071620941,0.0009933591354638338
1772699898033468400,8.266468505859375,0.0031228226143866777,0.0075964005663990974,0.008675780147314072
1772699898043426600,8.276426513671876,0.0031055121216923,0.0038655782118439674,0.004011519718915224
1772699898053383700,8.2863837890625,0.003026149934157729,0.00563950976356864,0.003817907767370343
1772699898063340500,8.296340576171875,0.0014415690675377846,0.0075548551976680756,0.007163636852055788
1772699898073297400,8.30629736328125,0.0018690064316615462,0.0049026133492589,0.002805373864248395
1772699898083255600,8.316255615234375,0.003826696192845702,0.00788748450577259,0.002028263406828046
1772699898093212700,8.326212646484375,0.003425091505050659,0.004650411661714315,0.0037918086163699627
1772699898103169800,8.336169677734375,0.002965429797768593,0.006580670829862356,0.00452950457111001
1772699898113126400,8.34612646484375,0.0024972460232675076,0.003878894029185176,0.004729773849248886
1772699898123084500,8.35608447265625,0.0022660838440060616,0.00791305024176836,0.004875981714576483
1772699898133041700,8.366041748046875,-0.000922252656891942,0.004000334069132805,0.0020663465838879347
1772699898142998800,8.375998779296875,0.005598497111350298,0.006792392116039991,0.0029497172217816114
1772699898152955600,8.38595556640625,0.0027774106711149216,0.005881324876099825,0.004992361646145582
1772699898162912500,8.39591259765625,0.0008000136003829539,0.00729493098333478,0.007018494885414839
1772699898172870700,8.40587060546875,0.004886367823928595,0.005025118589401245,0.0022679478861391544
1772699898182827800,8.415827880859375,0.001534779672510922,0.006172674708068371,0.005701827816665173
1772699898192784600,8.42578466796875,0.005369731690734625,0.005299690645188093,0.0035169704351574183
1772699898202741500,8.435741455078125,0.0032056469935923815,0.007202785462141037,0.0051745218224823475
1772699898212699600,8.44569970703125,0.0007611314067617059,0.0038336203433573246,0.003608050523325801
1772699898222656500,8.455656494140625,0.005590507760643959,0.006250971462577581,0.0034376082476228476
1772699898232613600,8.465613525390625,0.0029707562644034624,0.004024568945169449,0.004467452876269817
1772699898242570800,8.47557080078125,0.0005440838285721838,0.003989681601524353,0.005229915492236614
1772699898252528600,8.485528564453125,0.002429868094623089,0.006143113598227501,0.00436012726277113
1772699898262485500,8.495485595703125,0.004564125556498766,0.007760717533528805,0.002775812754407525
1772699898272442600,8.505442626953124,0.0020178770646452904,0.007241667713969946,0.0017603494925424457
1772699898282399700,8.515399658203124,0.004865595139563084,0.004583566449582577,0.0046514770947396755
1772699898292356600,8.525356689453124,0.0026117621455341578,0.004444815684109926,0.005286108236759901
1772699898302314500,8.535314453125,0.0003278351214248687,0.0033105756156146526,0.005335909314453602
1772699898312271600,8.545271728515624,0.003894340479746461,0.004503405187278986,0.0034796863328665495
1772699898322228700,8.555228759765624,0.0013006879016757011,0.003790477057918906,0.003825897118076682
1772699898332185600,8.565185546875,0.0040442761965096,0.008612129837274551,0.005633118096739054
1772699898342143500,8.5751435546875,0.001704689348116517,0.004195277579128742,0.0038456046022474766
1772699898352100600,8.5851005859375,0.00034887410583905876,0.004513791762292385,0.00011424961121520028
1772699898362057700,8.5950576171875,0.003379285102710128,0.005849367007613182,0.0057132793590426445
1772699898372014600,8.6050146484375,0.004534298088401556,0.006113019771873951,0.007213171571493149
1772699898381972500,8.614972412109376,0.0011323761427775025,0.0068123661912977695,0.0012402341235429049
1772699898391929600,8.6249296875,0.0014378406340256333,0.008437426760792732,0.002367816399782896
1772699898401886700,8.63488671875,0.0054674698039889336,0.003915912006050348,0.0004087952256668359
1772699898411843600,8.644843505859376,0.00469621829688549,0.005226986017078161,0.005952431354671717
1772699898421800700,8.65480078125,0.0011997540714219213,0.007228618022054434,0.0038804919458925724
1772699898431758600,8.664758544921876,0.0019137475173920393,0.0028706213925033808,0.004532966297119856
1772699898441715700,8.6747158203125,0.00213532242923975,0.005134574603289366,0.0033606430515646935
1772699898451672600,8.684672607421875,0.0008791094878688455,0.00552233075723052,0.005599562544375658
1772699898461629700,8.694629638671875,0.00210709311068058,0.005079979542642832,0.00583818182349205
1772699898471587600,8.704587646484375,0.002496979897841811,0.00700757559388876,0.00452764006331563
1772699898481544400,8.71454443359375,0.0035057852510362864,0.007455519400537014,0.0049588060937821865
1772699898491501600,8.72450146484375,0.004689027555286884,0.007863515987992287,0.0029619678389281034
1772699898501458700,8.734458740234375,-0.00003781688792514615,0.005095958709716797,0.007758587133139372
1772699898511416600,8.74441650390625,0.003043194068595767,0.005634982604533434,0.004332962911576033
1772699898521373400,8.75437353515625,0.0018924422329291701,0.005080245900899172,0.00628985371440649
1772699898531330600,8.76433056640625,0.0025278725661337376,0.005018726922571659,0.0035396073944866657
1772699898541287700,8.77428759765625,0.001395496423356235,0.007772701792418957,0.0011587414192035794
1772699898551244500,8.78424462890625,0.0033390712924301624,0.006089850328862667,0.0037979339249432087
1772699898561202400,8.794202392578125,0.0011739213950932026,0.0065069012343883514,0.004251470323652029
1772699898571159600,8.80415966796875,0.00270683690905571,0.004236556589603424,0.00270683690905571
1772699898581116700,8.81411669921875,0.0017204020405188203,0.007217965554445982,0.004319380968809128
1772699898591073500,8.824073486328125,0.003480751533061266,0.007648066151887178,0.005519401282072067
1772699898601031400,8.834031494140625,0.003546531544998288,0.008085090667009354,0.002510561840608716
1772699898610988500,8.843988525390625,0.003516437951475382,0.004777444526553154,0.008009457029402256
1772699898620945700,8.853945556640625,0.0019504991360008717,0.004431500099599361,0.0037087181117385626
1772699898630902500,8.863902587890625,0.0032344090286642313,0.004942027851939201,0.0041340249590575695
1772699898640860700,8.873860595703125,0.002101234160363674,0.006871222052723169,0.005409146659076214
1772699898650817500,8.883817626953125,0.0015896408585831523,0.005106877535581589,0.0036461339332163334
1772699898660774700,8.893774658203125,0.0026399914640933275,0.0038490667939186096,0.0043992758728563786
1772699898670731500,8.9037314453125,0.004056526813656092,0.0017326525412499905,0.006749249063432217
1772699898680688600,8.913688720703124,0.003916444722563028,0.0038123151753097773,0.004319114610552788
1772699898690646500,8.923646484375,0.004489024169743061,0.005995308049023151,0.004551075864583254
1772699898700603400,8.933603271484374,0.003197923768311739,0.005160673521459103,0.0025417208671569824
1772699898710560500,8.943560546875,0.005524461157619953,0.005680788774043322,0.003513242118060589
1772699898720517600,8.953517578125,0.001157143502496183,0.007661914452910423,0.005818740464746952
1772699898730475800,8.963475830078124,0.0036048549227416515,0.00512844929471612,0.006913033314049244
1772699898740432400,8.973432373046874,0.004489823244512081,0.00526773277670145,0.005674663465470076
1772699898750389500,8.983389404296876,0.00287461606785655,0.004604871850460768,0.005344165489077568
1772699898760346600,8.9933466796875,0.002930808812379837,0.0065130265429615974,0.003955326974391937
1772699898770304800,9.0033046875,0.0033957967534661293,0.007529288996011019,0.005166532471776009
1772699898780261600,9.01326171875,0.0016966998809948564,0.0060091568157076836,0.005548696033656597
1772699898790218500,9.023218505859376,0.0037087181117385626,0.006542054936289787,0.005616340320557356
1772699898800175600,9.033175537109376,0.0034357442054897547,0.009766343981027603,0.0037084517534822226
1772699898810133800,9.0431337890625,0.003263970138505101,0.004304200876504183,0.004344148561358452
1772699898820090600,9.053090576171876,0.0035430695861577988,0.005515406373888254,0.0061535001732409
1772699898830047500,9.063047607421876,0.0019896477460861206,0.0031188279390335083,0.006767891347408295
1772699898840004600,9.073004638671875,0.002912166528403759,0.007811051327735186,0.005429652985185385
1772699898849961500,9.08296142578125,0.003576359013095498,0.0032091091852635145,0.005559614859521389
1772699898859919600,9.092919677734375,0.0028477180749177933,0.008472846820950508,0.002981142606586218
1772699898869876700,9.102876708984375,0.002463690238073468,0.005842708982527256,0.007376423571258783
1772699898879833600,9.11283349609375,0.0031649006996303797,0.0038421424105763435,0.00624138442799449
1772699898889790500,9.12279052734375,0.0031462584156543016,0.005913549102842808,0.0028075044974684715
1772699898899748600,9.13274853515625,0.0029739518649876118,0.007697068154811859,0.002627208363264799
1772699898909705700,9.142705810546875,0.003605121048167348,0.007105313707143068,0.001032241270877421
1772699898919662600,9.15266259765625,0.0018524948973208666,0.0029790119733661413,0.0030184267088770866
1772699898929619500,9.162619384765625,0.0023041670210659504,0.006191316992044449,0.004382497631013393
1772699898939576600,9.17257666015625,0.002213885774835944,0.005970540922135115,0.004607801325619221
1772699898949534500,9.182534423828125,0.002609365154057741,0.006642456166446209,0.006580670829862356
1772699898959491300,9.1924912109375,0.0007597998483106494,0.007326888851821423,0.0002031991898547858
1772699898969448400,9.202448486328125,0.002659166231751442,0.00669252360239625,0.001891909632831812
1772699898979405300,9.2124052734375,0.003177683800458908,0.0037345506716519594,0.005689843557775021
1772699898989363200,9.22236328125,0.004564658273011446,0.005655222572386265,0.004830974154174328
1772699898999320300,9.2323203125,0.0038685076870024204,0.0062187472358345985,0.0070339408703148365
1772699899009277400,9.24227734375,0.00008069378236541525,0.005817142780870199,0.003079146845266223
1772699899019234300,9.252234375,0.0013161342358216643,0.005272792652249336,0.0037534593138843775
1772699899029192200,9.262192138671875,0.003356115659698844,0.0067907944321632385,0.002273007994517684
1772699899039149300,9.2721494140625,0.000895621080417186,0.005568137392401695,0.004746552091091871
1772699899049106400,9.2821064453125,0.001017327536828816,0.006445115897804499,0.005138569511473179
1772699899059063300,9.292063232421874,0.001910019083879888,0.007677094545215368,0.0034258903469890356
1772699899069021200,9.302021240234374,0.0014008227735757828,0.006200638134032488,0.0030035129748284817
1772699899078978300,9.311978271484374,0.002109223511070013,0.00723634148016572,0.004191282670944929
1772699899088935400,9.321935302734374,0.0016479641199111938,0.006880809087306261,0.004326837603002787
1772699899098892300,9.331892333984374,0.0031140341889113188,0.006641923915594816,0.004887965973466635
1772699899108849400,9.341849365234374,0.001538241864182055,0.009237440302968025,0.0034642398823052645
1772699899118807300,9.351807373046874,0.0022860574536025524,0.006280798930674791,0.003338006092235446
1772699899128764400,9.361764404296874,0.005565473809838295,0.005530320107936859,0.0025217472575604916
1772699899138721300,9.37172119140625,0.004194478504359722,0.004628041293472052,0.0032703618053346872
1772699899148678400,9.381678466796876,0.0026770094409585,0.006835535634309053,0.005346828605979681
1772699899158636300,9.39163623046875,0.005608883686363697,0.00378994457423687,0.006619553081691265
1772699899168593400,9.401593505859376,-0.00014141385327093303,0.006825681775808334,0.004567853640764952
1772699899178550300,9.41155029296875,0.004707137122750282,0.00475400872528553,0.0036964674945920706
1772699899188507400,9.42150732421875,0.0004266384057700634,0.004334561061114073,0.00227939966134727
1772699899198465300,9.43146533203125,0.004462126176804304,0.008648615330457687,0.005539641249924898
1772699899208422400,9.44142236328125,0.0011829761788249016,0.0065260762348771095,0.002939330879598856
1772699899218379300,9.451379150390625,0.0036072516813874245,0.005797967780381441,0.005801429972052574
1772699899228336400,9.46133642578125,0.001714010490104556,0.008647549897432327,0.004770520608872175
1772699899238293500,9.47129345703125,0.0012689962750300765,0.005498894955962896,0.006696252152323723
1772699899248251100,9.481251220703125,0.003206445835530758,0.006560164503753185,0.007819040678441525
1772699899258208300,9.491208251953125,0.002005360322073102,0.007094128523021936,0.0008210525847971439
1772699899268165400,9.501165283203125,0.0005398227367550135,0.004758802708238363,0.005428853910416365
1772699899278122500,9.51112255859375,0.0027915253303945065,0.005259742960333824,0.0017638115677982569
1772699899288080100,9.521080078125,0.0025246767327189445,0.00515854312106967,0.005399026442319155
1772699899298037200,9.531037353515625,0.0032477248460054398,0.006406500469893217,0.0035489285364747047
1772699899307994400,9.540994384765625,0.003837615018710494,0.006432066671550274,0.0041188448667526245
1772699899317951200,9.550951171875,0.0044317664578557014,0.004094077739864588,0.0062573631294071674
1772699899327909000,9.5609091796875,0.001734783174470067,0.005366269499063492,0.0073202308267354965
1772699899337866200,9.5708662109375,0.003325755475088954,0.004996356554329395,0.004747883416712284
1772699899347823400,9.5808232421875,0.0018157431622967124,0.0034732946660369635,0.005868275184184313
1772699899357780200,9.5907802734375,0.004076766781508923,0.006827545817941427,0.007709851488471031
1772699899367737300,9.6007373046875,0.0010458233300596476,0.006090649403631687,0.005184908397495747
1772699899377695200,9.6106953125,0.002891926560550928,0.005277586169540882,0.000630636524874717
1772699899387652400,9.62065234375,0.0010807107901200652,0.004381432663649321,0.006719421595335007
1772699899397609200,9.630609130859375,0.002409361768513918,0.004076766781508923,0.006369482260197401
1772699899407566300,9.64056640625,0.0025350630749017,0.005870938766747713,0.007223025429993868
1772699899417524200,9.650524169921875,0.0027348001021891832,0.005830991081893444,0.004747883416712284
1772699899427481300,9.6604814453125,0.004341751337051392,0.0062850601971149445,0.006859237793833017
1772699899437438200,9.670438232421875,0.0017885789275169373,0.0049795787781476974,0.006747118663042784
1772699899447395300,9.680395263671874,0.0010197244118899107,0.007275755982846022,0.005932191386818886
1772699899457353500,9.690353515625,0.0010751180816441774,0.0068328725174069405,0.003025617217645049
1772699899467310300,9.700310302734374,0.0026935210917145014,0.006632602773606777,0.0009872338268905878
1772699899477267200,9.71026708984375,0.004059456288814545,0.004764128942042589,0.005052549298852682
1772699899487224300,9.720224365234374,0.001038366463035345,0.005637113004922867,0.001894839107990265
1772699899497181400,9.730181396484374,0.0025939189363271,0.005049886181950569,0.006915962789207697
1772699899507139300,9.740139404296874,0.0017134778900071979,0.004224838688969612,0.003737214021384716
1772699899517096200,9.75009619140625,0.0026735474821180105,0.006268814671784639,0.0009709885343909264
1772699899527053300,9.76005322265625,0.0027627632953226566,0.006827545817941427,0.0046365633606910706
1772699899537010200,9.77001025390625,0.002689526416361332,0.007029946427792311,0.002686863299459219
1772699899546968300,9.77996826171875,0.003173955250531435,0.005675995256751776,0.0028509139083325863
1772699899556925200,9.78992529296875,0.0022530341520905495,0.00794287770986557,0.004275971557945013
1772699899566882300,9.79988232421875,0.0026112294290214777,0.006422212813049555,0.0000774979853304103
1772699899576839200,9.809839111328126,0.004009388852864504,0.006220345385372639,0.0033949976786971092
1772699899586797300,9.81979736328125,0.00324825756251812,0.007767908275127411,0.010103766806423664
1772699899596754400,9.82975439453125,0.003460511565208435,0.0057012951001524925,0.0018516959389671683
1772699899606711300,9.839711181640626,0.0017385114915668964,0.004116714466363192,0.005253617651760578
1772699899616668200,9.849668212890625,0.004163319710642099,0.00759906368330121,0.005420331843197346
1772699899626625300,9.859625244140625,0.0018258632626384497,0.005144960712641478,0.004147340543568134
1772699899636583400,9.86958349609375,0.0044141896069049835,0.006557235028594732,0.003028546692803502
1772699899646540300,9.879540283203125,0.0026700852904468775,0.0034085798542946577,0.006309028714895248
1772699899656497200,9.8894970703125,0.006440322380512953,0.006089051254093647,0.005585714243352413
1772699899666454300,9.899454345703125,0.0038187066093087196,0.005367867648601532,0.0020365193486213684
1772699899676412400,9.909412353515625,0.0008916263468563557,0.0038453382439911366,0.0034557178150862455
1772699899686369500,9.91936962890625,0.001127848750911653,0.007255782373249531,0.003403786104172468
1772699899696326100,9.929326171875,0.0032618397381156683,0.007361776195466518,0.004717257339507341
1772699899706283300,9.939283203125,0.005272526293992996,0.007732221856713295,0.004365986213088036
1772699899716241400,9.949241455078125,0.0036671727430075407,0.0049558766186237335,0.005583317019045353
1772699899726198300,9.9591982421875,0.0054847802966833115,0.003707919269800186,0.0034855452831834555
1772699899736155400,9.9691552734375,-0.0002537992550060153,0.005352687556296587,0.004518318921327591
1772699899746112300,9.9791123046875,0.0008117315010167658,0.007269897032529116,0.004147074185311794
1772699899756069400,9.9890693359375,0.0034013893455266953,0.0067662931978702545,0.006854177452623844
1772699899766027300,9.99902734375,-0.004315652418881655,0.18997259438037872,0.13646890223026276
1772699899775984400,10.008984375,0.006309028714895248,0.01221831701695919,-0.000571248063351959
1772699899785941200,10.018941162109375,0.0016069513512775302,0.013394368812441826,0.002772883279249072
1772699899795898000,10.028898193359375,0.00737242866307497,-0.0014908375451341271,-0.010144246742129326
1772699899805856300,10.038856201171875,0.004337756894528866,-0.030187729746103287,-0.014910239726305008
1772699899815813400,10.0488134765625,0.002566754585132003,-0.025068335235118866,-0.005233644042164087
1772699899825770500,10.0587705078125,0.0030458574183285236,-0.003418699838221073,0.003210174385458231
