time,seconds_elapsed,z,y,x
1772700370133646600,0.101646484375,0.0002468130551278591,0.0005101393908262253,-0.0003571712877601385
1772700370143603200,0.111603271484375,-0.00035878969356417656,0.0004978887736797333,-0.0016836917493492365
1772700370153560300,0.121560302734375,0.00022390997037291527,-0.0014502136036753654,0.0011272747069597244
1772700370163518500,0.1315185546875,0.0019166171550750732,-0.0009531565010547638,-0.00016414700075984
1772700370173475600,0.1414755859375,-0.0028733445797115564,-0.0010024253278970718,-0.0008160888683050871
1772700370183432400,0.151432373046875,-0.0008773045847192407,-0.0008036675862967968,0.0025116028264164925
1772700370193390300,0.161390380859375,0.0018806650768965483,-0.0002100490964949131,0.00012541050091385841
1772700370203347500,0.171347412109375,-0.0012618660693988204,0.0007360344752669334,0.00047246506437659264
1772700370213304600,0.1813046875,0.0004034086596220732,-0.00040726037696003914,0.0001981593668460846
1772700370223262200,0.19126220703125,0.0007546781562268734,0.000011896248906850815,0.002732550725340843
1772700370233219300,0.20121923828125,0.0001320310402661562,0.00022201985120773315,0.002834550105035305
1772700370243176400,0.211176513671875,0.0017999697010964155,0.0012725591659545898,-0.0011401118244975805
1772700370253134600,0.221134521484375,0.0028535162564367056,-0.0007551717571914196,0.0005635120905935764
1772700370263091200,0.23109130859375,-0.0007966117700561881,-0.002338335383683443,-0.002557906322181225
1772700370273048300,0.24104833984375,0.002092119073495269,-0.001278929878026247,0.0013638646341860294
1772700370283006500,0.25100634765625,-0.0018363099079579115,0.00151129812002182,-0.0011150836944580078
1772700370292963600,0.260963623046875,-0.0023979705292731524,0.0009493711404502392,0.001606933306902647
1772700370302920400,0.27092041015625,-0.00032336870208382607,-0.0006580520421266556,-0.001744455425068736
1772700370312878300,0.28087841796875,-0.0014506848528981209,0.0007731309160590172,-0.0015950521919876337
1772700370322835500,0.29083544921875,0.0017975729424506426,-0.0017966656014323235,0.0012722904793918133
1772700370332792600,0.30079248046875,0.0001908878330141306,-0.0025282357819378376,-0.002161323092877865
1772700370342750200,0.310750244140625,-0.0010522757656872272,-0.0022904840297997,0.0000417991541326046
1772700370352707300,0.320707275390625,0.000032163457944989204,0.0000909147784113884,-0.001421075314283371
1772700370362664400,0.33066455078125,0.0010207283776253462,-0.0003941156901419163,-0.0006312928162515163
1772700370372622600,0.34062255859375,-0.00017689517699182034,-0.0001459093764424324,-0.0003428724594414234
1772700370382579200,0.3505791015625,0.0020487091969698668,-0.000130342785269022,0.0004494129680097103
1772700370392536300,0.360536376953125,-0.00015638838522136211,0.00027445750311017036,-0.0022100196219980717
1772700370402494200,0.370494140625,-0.0014352385187521577,-0.0046714358031749725,-0.0015971828252077103
1772700370412451300,0.380451416015625,-0.0012168593239039183,0.002385940868407488,0.0009759636595845222
1772700370422408400,0.390408447265625,0.0008359064813703299,-0.0013448391109704971,0.0012860544957220554
1772700370432366300,0.400366455078125,0.0019317970145493746,-0.0015512341633439064,-0.0018231859430670738
1772700370442323200,0.4103232421875,0.00007344200275838375,-0.002339288592338562,0.00021798908710479736
1772700370452280300,0.4202802734375,-0.0008994106901809573,0.002144675236195326,-0.001403875881806016
1772700370462238200,0.43023828125,0.0006795772351324558,-0.0013054842129349709,-0.0021167267113924026
1772700370472195300,0.4401953125,-0.0020056881476193666,0.00042450521141290665,-0.0014112554490566254
1772700370482152200,0.450152099609375,-0.000055721262469887733,0.0013588108122348785,0.00267361244186759
1772700370492110300,0.4601103515625,-0.0010426888475194573,0.0008488153107464314,0.0031697596423327923
1772700370502067200,0.470067138671875,-0.0007665194571018219,0.0025262203998863697,0.0007510818541049957
1772700370512024300,0.4800244140625,0.0005320378113538027,-0.0005204356275498867,-0.0013544135726988316
1772700370521982200,0.489982177734375,-0.00040912232361733913,-0.0007506273686885834,0.0010718703269958496
1772700370531939300,0.499939208984375,-0.0011777105974033475,0.001714660320430994,-0.0008208381477743387
1772700370541896400,0.509896484375,0.0004673232324421406,-0.003652261570096016,0.0008335229940712452
1772700370551854300,0.519854248046875,-0.002976676682010293,-0.0016863159835338593,0.0015515112318098545
1772700370561811200,0.529811279296875,0.0009592098649591208,0.000747134443372488,0.0014681490138173103
1772700370571768300,0.539768310546875,-0.00012096832506358624,0.00040917936712503433,-0.0008357516489923
1772700370581726200,0.549726318359375,-0.00034147826954722404,0.00032738596200942993,0.0007686140015721321
1772700370591683300,0.559683349609375,0.0010630728211253881,-0.000049717724323272705,-0.002368589863181114
1772700370601640200,0.56964013671875,-0.0007542680250480771,-0.0016054855659604073,0.0017434810288250446
1772700370611598300,0.579598388671875,0.0006332388147711754,-0.0010635321959853172,-0.000057614874094724655
1772700370621555500,0.589555419921875,-0.0028882594779133797,0.0005379905924201012,-0.0017293142154812813
1772700370631512300,0.59951220703125,0.00037144962698221207,-0.001311575062572956,-0.0017748542595654726
1772700370641470200,0.60947021484375,0.0003307026345282793,-0.0001646885648369789,0.00035625044256448746
1772700370651427300,0.61942724609375,-0.0029793402645736933,0.0004145493730902672,-0.001361754722893238
1772700370661384400,0.629384521484375,0.0009594755247235298,0.000044988002628088,-0.00014887843281030655
1772700370671342300,0.63934228515625,-0.0016014202265068889,-0.0026964698918163776,0.0016801808960735798
1772700370681299200,0.64929931640625,0.00033150194212794304,-0.0010203109122812748,-0.0020766628440469503
1772700370691256300,0.65925634765625,0.000187957426533103,-0.0013215141370892525,0.0013540214858949184
1772700370701214200,0.669214111328125,0.002008229261264205,-0.00036970991641283035,0.0005635451525449753
1772700370711171300,0.67917138671875,0.002609571209177375,0.0010321782901883125,-0.0019203852862119675
1772700370721128200,0.689128173828125,-0.0009934199042618275,-0.0026617287658154964,0.001809605397284031
1772700370731086300,0.69908642578125,-0.0000834176316857338,0.001216632779687643,0.0016559408977627754
1772700370741043500,0.70904345703125,-0.0017803842201828957,0.0014744093641638756,-0.0007635026704519987
1772700370751001300,0.71900146484375,-0.0010307043557986617,-0.0014337622560560703,0.0014871349558234215
1772700370760958200,0.728958251953125,-0.00013969838619232178,0.0013309814967215061,-0.000293465331196785
1772700370770915300,0.738915283203125,0.000012634322047233582,-0.0007100650109350681,0.0023023178800940514
1772700370780872400,0.74887255859375,-0.003121411893516779,-0.00263782381080091,-0.0009089317172765732
1772700370790830300,0.758830322265625,0.0013716074172407389,0.001223493367433548,0.0004258444532752037
1772700370800787200,0.768787109375,-0.0015734293265268207,-0.002378986217081547,-0.0007938342168927193
1772700370810745300,0.778745361328125,-0.0009920612210407853,0.0020581064745783806,-0.0018676207400858402
1772700370820702200,0.7887021484375,-0.003250106004998088,0.0007819272577762604,0.0015937527641654015
1772700370830659300,0.798659423828125,0.0022117712069302797,-0.0005328753031790257,0.000870970543473959
1772700370840617200,0.8086171875,-0.0014029379235580564,-0.0008014417253434658,-0.005577069707214832
1772700370850574300,0.81857421875,0.0004322463646531105,0.0011951299384236336,0.0006576566956937313
1772700370860531500,0.828531494140625,0.00013450533151626587,0.001107898075133562,-0.001892325235530734
1772700370870489300,0.8384892578125,-0.0010330243967473507,-0.0013318238779902458,-0.0003085432108491659
1772700370880446200,0.8484462890625,-0.0010451208800077438,-0.0009135743603110313,-0.001170469680801034
1772700370890403300,0.8584033203125,0.0020412167068570852,-0.000029937364161014557,0.001095880288630724
1772700370900361200,0.868361328125,-0.0006360809784382582,0.002063808497041464,0.0005489792674779892
1772700370910318300,0.878318359375,0.003002329496666789,-0.0006840410642325878,0.002691758330911398
1772700370920275200,0.888275146484375,-0.00165684730745852,-0.0018790964968502522,-0.0006712516769766808
1772700370930233300,0.8982333984375,0.000009758863598108292,0.00025915540754795074,0.0003005359321832657
1772700370940190200,0.908190185546875,0.00039811176247894764,-0.0020666420459747314,0.004878195933997631
1772700370950147300,0.918147216796875,-0.0004373218398541212,-0.0012061749584972858,0.0005273893475532532
1772700370960105200,0.928105224609375,0.0007231058552861214,-0.0026499612722545862,-0.0034845666959881783
1772700370970062300,0.938062255859375,-0.002208768157288432,0.0004917699843645096,0.0021552094258368015
1772700370980019500,0.94801953125,0.0021083529572933912,-0.0023043761029839516,0.0017144130542874336
1772700370989977300,0.957977294921875,0.00008381763473153114,0.00007702270522713661,0.00007204152643680573
1772700370999934200,0.967934326171875,0.003191657131537795,-0.0026534933131188154,-0.0012650475837290287
1772700371009891300,0.977891357421875,-0.0019788702484220266,0.00004002777859568596,0.0018005170859396458
1772700371019849200,0.98784912109375,0.000704264035448432,-0.0009238896891474724,0.0013808081857860088
1772700371029806300,0.997806396484375,-0.0014065575087442994,0.00199413625523448,0.00105643505230546
1772700371039763200,1.00776318359375,-0.00041423412039875984,0.00018797116354107857,-0.00010254979133605957
1772700371049721300,1.017721435546875,0.0017503832932561636,-0.0006823497824370861,-0.0002407676074653864
1772700371059678200,1.02767822265625,-0.00008609541691839695,-0.0016315453685820103,0.003489936701953411
1772700371069635300,1.03763525390625,-0.00007544271647930145,0.0015722373500466347,-0.00030533410608768463
1772700371079593200,1.04759326171875,0.0009730558376759291,0.0014601112343370914,-0.0015101423487067223
1772700371089550300,1.05755029296875,0.0005597332492470741,-0.0005921204574406147,-0.0012994864955544472
1772700371099507500,1.067507568359375,0.0003759758546948433,0.00010127155110239983,0.0008580847643315792
1772700371109465300,1.07746533203125,0.0010223248973488808,0.0033958679996430874,-0.0022745917085558176
1772700371119422200,1.087422119140625,0.0012502921745181084,-0.00024348776787519455,0.0008855098858475685
1772700371129379300,1.09737939453125,-0.0008280386682599783,0.00025931699201464653,0.002593661192804575
1772700371139337200,1.107337158203125,0.000726150581613183,-0.003104959614574909,0.002582406625151634
1772700371149294300,1.11729443359375,0.00017114775255322456,0.0020357398316264153,0.0008383025415241718
1772700371159251200,1.127251220703125,0.0004365441855043173,0.0026438357308506966,-0.0011447197757661343
1772700371169209300,1.137209228515625,-0.0005674674175679684,0.00003899773582816124,0.0016153804026544094
1772700371179166200,1.147166259765625,0.0018802997656166553,-0.001490103080868721,-0.0008685654029250145
1772700371189123300,1.157123291015625,-0.00041427998803555965,0.0012518875300884247,-0.0016997379716485739
1772700371199081200,1.167081298828125,-0.0006006376352161169,-0.0017269332893192768,0.00037491321563720703
1772700371209038300,1.177038330078125,0.003799703437834978,-0.001878200564533472,0.0012074173428118229
1772700371218995500,1.186995361328125,0.0007991509046405554,-0.000158039852976799,0.0016998392529785633
1772700371228953300,1.196953369140625,0.001608219463378191,0.0013969801366329193,-0.0017508186865597963
1772700371238910200,1.20691015625,0.002173186279833317,-5.667097866535187e-7,0.0027741743251681328
1772700371248867300,1.216867431640625,-0.0007453717989847064,-0.00031348830088973045,-0.0005326729733496904
1772700371258825200,1.2268251953125,-0.0008308201795443892,0.00006285589188337326,-0.002854309743270278
1772700371268782300,1.2367822265625,-0.0004124375991523266,0.00025034230202436447,0.0003268360160291195
1772700371278739200,1.2467392578125,0.0032326194923371077,0.0018618768081068993,-0.0011680091265588999
1772700371288697300,1.256697265625,-0.000019100261852145195,-0.0021549686789512634,-0.0010433732531964779
1772700371298654200,1.266654296875,-0.00040026847273111343,-0.0014070840552449226,0.0018647289834916592
1772700371308612400,1.2766123046875,-0.0015249213902279735,0.0012430273927748203,0.0004242248833179474
1772700371318569200,1.2865693359375,-0.00021158228628337383,-0.00023748353123664856,0.00026113633066415787
1772700371328526300,1.2965263671875,-0.0009996116859838367,-0.0015062135644257069,-0.00032422621734440327
1772700371338484200,1.306484130859375,0.001900652889162302,-0.0007521421648561954,0.002018221653997898
1772700371348441300,1.31644140625,-0.0005766195245087147,0.001254549715667963,0.0007644053548574448
1772700371358398200,1.326398193359375,0.001857380149886012,-0.002741079078987241,-0.0013298944104462862
1772700371368356400,1.3363564453125,-0.0002057706005871296,-0.0015735491178929806,0.0025801588781177998
1772700371378313200,1.346313232421875,-0.00038427021354436874,0.00036721350625157356,0.0011403067037463188
1772700371388270300,1.356270263671875,-0.00035497546195983887,-0.00041389185935258865,0.0017634863033890724
1772700371398228700,1.366228759765625,0.000642360420897603,-0.0010690572671592236,-0.001423562178388238
1772700371408185600,1.376185546875,-0.0020130774937570095,-0.002468015532940626,0.00029364414513111115
1772700371418142700,1.386142822265625,0.00036168540827929974,0.00010648742318153381,0.0017267023213207722
1772700371428100900,1.396100830078125,-0.0009403341682627797,-0.00179714011028409,-0.002042469335719943
1772700371438057700,1.4060576171875,-0.0006590065313503146,-0.0013531860895454884,0.0019930205307900906
1772700371448014800,1.416014892578125,-0.0018073616083711386,0.000965361949056387,0.0017322972416877747
1772700371457972700,1.42597265625,0.0015754478517919779,-0.0014271209947764874,-0.001635541208088398
1772700371467929600,1.4359296875,0.0009994062129408121,-0.002655637450516224,-0.00036894180811941624
1772700371477886700,1.44588671875,0.000849616713821888,-0.0025629564188420773,-0.0016287609469145536
1772700371487844600,1.4558447265625,-0.00003002537414431572,-0.0004619886167347431,-0.0016942746005952358
1772700371497801700,1.4658017578125,-0.002301198663190007,0.0005491948686540127,-0.0023984063882380724
1772700371507758600,1.475758544921875,-0.0018932025413960218,-0.0004699965938925743,0.0013462645001709461
1772700371517716700,1.485716796875,0.0010040514171123505,0.00023041246458888054,-0.0018006730824708939
1772700371527673600,1.495673583984375,0.0002695515286177397,-0.00020315032452344894,0.0006427769549190998
1772700371537630700,1.505630615234375,0.0015485920011997223,0.0010375725105404854,0.000944200437515974
1772700371547588600,1.515588623046875,-0.0013747599441558123,-0.0008098622784018517,0.002621725667268038
1772700371557545700,1.525545654296875,0.0003271170426160097,0.0012668301351368427,0.0017129224725067616
1772700371567502800,1.5355029296875,0.00045974249951541424,0.0011275466531515121,-0.0006266643758863211
1772700371577460700,1.545460693359375,-0.0016533922171220183,0.0017499742098152637,-0.00011525116860866547
1772700371587417600,1.55541748046875,-0.0011623053578659892,-0.002287910785526037,0.002701308112591505
1772700371597374700,1.565374755859375,-0.0012471097288653255,-0.0015485845506191254,0.00037766108289361
1772700371607332600,1.57533251953125,-0.00004921993240714073,-0.001466026995331049,0.0013177571818232536
1772700371617289700,1.585289794921875,0.0017236010171473026,-0.001608721911907196,0.00004695216193795204
1772700371627246600,1.59524658203125,0.00013156305067241192,-0.0010169674642384052,0.0058507793582975864
1772700371637204700,1.605204833984375,0.0000270188320428133,0.0018150629475712776,-0.0014664798509329557
1772700371647161600,1.61516162109375,0.001186825567856431,0.0003617759793996811,0.0016760500147938728
1772700371657118700,1.62511865234375,0.00039807497523725033,-0.0007301704026758671,-0.0006403522565960884
1772700371667076600,1.63507666015625,-0.0010387003421783447,0.0002014031633734703,-0.002239314140751958
1772700371677033700,1.64503369140625,0.00027328263968229294,-0.0002859039232134819,-0.0003775723744183779
1772700371686990800,1.654990966796875,0.0019097952172160149,0.00015005562454462051,-0.00075946981087327
1772700371696948700,1.66494873046875,-0.002826384035870433,0.0002994709648191929,0.0016309707425534725
1772700371706905600,1.674905517578125,0.000023730797693133354,-0.0007388954982161522,0.00029140058904886246
1772700371716862700,1.68486279296875,0.0011417721398174763,0.0004786420613527298,0.0002357959747314453
1772700371726820600,1.694820556640625,0.0015449745114892721,-0.0024239374324679375,0.0015135803259909153
1772700371736777700,1.70477783203125,-0.0014591440558433533,-0.0024232412688434124,0.002246405929327011
1772700371746734600,1.714734619140625,-0.0025734107475727797,0.0009962576441466808,-0.00010463269427418709
1772700371756692700,1.724692626953125,0.0013763345777988434,-0.00039338553324341774,-0.00004901830106973648
1772700371766649600,1.734649658203125,0.0009297223296016455,-0.0017867516726255417,0.0016604643315076828
1772700371776606700,1.744606689453125,0.0013971419539302588,0.0010316502302885056,0.0009124595671892166
1772700371786564600,1.754564697265625,-0.00038770842365920544,-0.0004871501587331295,-0.001448432682082057
1772700371796521700,1.764521728515625,-0.0011595293181017041,-0.0011433176696300507,0.0018162820488214493
1772700371806478800,1.774478759765625,0.00045621045865118504,-0.002434950787574053,-0.0004055930767208338
1772700371816436700,1.784436767578125,-0.001540785888209939,0.0008083232678472996,-0.0009541159961372614
1772700371826393600,1.7943935546875,0.0009300948586314917,0.0004003266803920269,-0.002157864859327674
1772700371836350700,1.804350830078125,0.00019962317310273647,0.0008632726967334747,-0.00013008713722229004
1772700371846308600,1.81430859375,0.00013650627806782722,0.0015727393329143524,0.00111813610419631
1772700371856265700,1.824265625,-0.001777732977643609,0.000010979361832141876,0.0008515426889061928
1772700371866223900,1.834223876953125,-0.0018616225570440292,-0.0023025088012218475,0.0010888301767408848
1772700371876180700,1.8441806640625,-0.0009510862873867154,0.003522214014083147,0.0004732762463390827
1772700371886137600,1.8541376953125,-0.00021498859860002995,-0.0011132843792438507,0.0006043035537004471
1772700371896095700,1.864095703125,0.0009379168041050434,-0.0009123990312218666,-0.0007134282495826483
1772700371906052600,1.874052490234375,0.0010303284507244825,0.0001771003007888794,0.00044105201959609985
1772700371916009700,1.884009765625,0.00020383717492222786,0.00021245097741484642,0.00004013115540146828
1772700371925967600,1.893967529296875,-0.0014334743609651923,0.00004041101783514023,-0.0008901110850274563
1772700371935924700,1.9039248046875,-0.000570694450289011,-0.00007302267476916313,0.003459931816905737
1772700371945881600,1.913881591796875,0.000515342690050602,0.00030035246163606644,0.0028545954264700413
1772700371955839700,1.92383984375,-0.0008276998996734619,-0.0025941391941159964,-0.003277699463069439
1772700371965796600,1.933796630859375,0.00037205428816378117,-0.000902232713997364,-0.0022017823066562414
1772700371975753700,1.943753662109375,-0.0006846011383458972,-0.0015954063273966312,-0.00024441396817564964
1772700371985711900,1.9537119140625,-0.0011557143880054355,0.0012352676130831242,-0.001294764457270503
1772700371995668700,1.963668701171875,-0.00022206385619938374,-0.0011652540415525436,0.0009977561421692371
1772700372005625600,1.97362548828125,0.002942037768661976,-0.00018920563161373138,-0.0011655297130346298
1772700372015583700,1.983583740234375,-0.0012275178451091051,0.0007844683714210987,-0.004905370529741049
1772700372025540600,1.99354052734375,0.0009514805860817432,-0.0023711109533905983,0.0017770333215594292
1772700372035497700,2.003497802734375,0.0012488234788179398,-0.000657892320305109,-0.0006634185556322336
1772700372045455600,2.01345556640625,-0.0005690503166988492,-0.0009561660699546337,-0.00044104456901550293
1772700372055412700,2.023412841796875,-0.0007850114488974214,-0.0020230463705956936,0.000890498049557209
1772700372065369600,2.03336962890625,0.0016235513612627983,0.0003216005861759186,0.0034623127430677414
1772700372075327700,2.04332763671875,0.0032104479614645243,-0.00044792797416448593,0.0013106432743370533
1772700372085284600,2.05328466796875,0.003321768017485738,-0.0032663512974977493,0.001637146808207035
1772700372095241700,2.06324169921875,-0.0005798210622742772,0.00019407831132411957,-0.0005217893049120903
1772700372105199900,2.073199951171875,-0.001569718006066978,0.0004715798422694206,0.0013866317458450794
1772700372115156700,2.08315673828125,-0.0015075620030984282,-0.0003828881308436394,0.0007845070213079453
1772700372125113600,2.093113525390625,0.0005020592361688614,-0.001499817706644535,-0.0019641416147351265
1772700372135071700,2.10307177734375,0.0022029720712453127,0.0007836371660232544,0.001467282883822918
1772700372145028600,2.113028564453125,-0.0001733663957566023,-0.00013941433280706406,0.0006917701102793217
1772700372154985700,2.12298583984375,0.0021281661465764046,0.0000051497481763362885,0.002512346487492323
1772700372164943600,2.132943603515625,-0.0006103621562942863,-0.0013221697881817818,-0.001367346616461873
1772700372174900700,2.142900634765625,-0.0019747738260775805,0.00008016638457775116,0.0036988421343266964
1772700372184857600,2.152857666015625,0.0015097062569111586,0.0002711149863898754,0.0023978883400559425
1772700372194815700,2.162815673828125,0.00016140355728566647,0.0016204365529119968,0.002005737740546465
1772700372204772600,2.172772705078125,-0.0007022595964372158,-0.0003319266252219677,-0.0007660805713385344
1772700372214729700,2.182729736328125,0.002019160194322467,0.0003083995543420315,0.002349133137613535
1772700372224687900,2.19268798828125,0.0009328566957265139,0.0005329041741788387,-0.000025607645511627197
1772700372234644700,2.202644775390625,-0.0006378706311807036,0.002106314990669489,0.001489110291004181
1772700372244601600,2.2126015625,-0.0018520057201385498,-0.000497723463922739,0.0026478515937924385
1772700372254559700,2.222559814453125,-0.0006766580045223236,0.00008031167089939117,0.0017970949411392212
1772700372264516600,2.2325166015625,-0.0008098160615190864,0.00012558558955788612,-0.00003835558891296387
1772700372274473700,2.2424736328125,0.0007439600303769112,0.000893027987331152,-0.00022460473701357841
1772700372284431600,2.252431640625,0.0004771111998707056,0.00019128480926156044,0.0009450558573007584
1772700372294388700,2.262388671875,0.00210274918936193,0.00018434831872582436,-0.00026367325335741043
1772700372304345600,2.272345703125,-0.0021351389586925507,-0.00044788606464862823,0.001523574348539114
1772700372314303700,2.2823037109375,-0.00032564345747232437,0.0010039247572422028,-0.0010408000089228153
1772700372324260600,2.292260498046875,0.00044187973253428936,-0.0004142085090279579,0.0007536378689110279
1772700372334217700,2.3022177734375,0.00020849122665822506,-0.000006477348506450653,-0.0010317943524569273
1772700372344175900,2.31217578125,0.0021789642050862312,0.0004755547270178795,0.002748030237853527
1772700372354132700,2.3221328125,-0.0009199215564876795,-0.00039918022230267525,0.0014641089364886284
1772700372364089600,2.332089599609375,0.00028755562379956245,0.0012474525719881058,-0.0009031749796122313
1772700372374047700,2.3420478515625,0.0001661493442952633,-0.00024943891912698746,-0.0019485317170619965
1772700372384004600,2.352004638671875,0.0007302067242562771,0.0024462128058075905,-0.0021594541613012552
1772700372393961700,2.361961669921875,-0.0006953596603125334,0.002164122648537159,-0.0030360491946339607
1772700372403919400,2.37191943359375,0.001335034379735589,0.002357734367251396,0.00106095802038908
1772700372413876500,2.38187646484375,-0.001658145571127534,0.000788289587944746,0.0015082145109772682
1772700372423833300,2.391833251953125,-0.0025068949908018112,0.0019105453975498676,-0.0012319120578467846
1772700372433791500,2.40179150390625,-0.0008860473753884435,0.0009975554421544075,-0.0014801605138927698
1772700372443748400,2.411748291015625,-0.000956621253862977,-0.0023452441673725843,-0.002347019501030445
1772700372453705500,2.42170556640625,0.0013984639663249254,0.0014751674607396126,-0.0025453241541981697
1772700372463663400,2.431663330078125,0.0008394664619117975,-0.0010574986226856709,-0.001790584297850728
1772700372473620500,2.441620361328125,-0.0009496517013758421,0.002446466591209173,0.00041637010872364044
1772700372483577600,2.45157763671875,0.0025233766064047813,-0.0015642540529370308,-0.0004867080133408308
1772700372493535500,2.461535400390625,-0.003485253546386957,0.0013788426294922829,-0.00035224203020334244
1772700372503492400,2.471492431640625,-0.0005081056151539087,-0.002089391928166151,0.0005519012920558453
1772700372513449500,2.481449462890625,-0.00025206245481967926,-0.0018060598522424698,0.0016736118122935295
1772700372523407400,2.491407470703125,0.0018915161490440369,0.00019237585365772247,-0.00013254396617412567
1772700372533364500,2.501364501953125,0.0008086683228611946,-0.0017809472046792507,-0.0009789608884602785
1772700372543322600,2.511322509765625,0.0028699547983705997,-0.002419839845970273,-0.002193095861002803
1772700372553279500,2.521279541015625,0.000698848394677043,0.002454755362123251,0.001586906611919403
1772700372563236400,2.531236328125,-0.0007331334054470062,-0.0020944559946656227,0.0008271066471934319
1772700372573194500,2.541194580078125,-0.0015419950941577554,0.0006365613080561161,-0.0002137073315680027
1772700372583151400,2.5511513671875,-0.001186729408800602,0.0005356273613870144,-0.0010451464913785458
1772700372593108500,2.5611083984375,-0.0007374929264187813,-0.0009673493914306164,0.0006865328177809715
1772700372603066400,2.57106640625,-0.0009880964644253254,-0.000285580288618803,0.0008417950011789799
1772700372613023500,2.5810234375,-0.0003017603885382414,0.0011257138103246689,-0.00001464085653424263
1772700372622980400,2.59098046875,-0.0008285335497930646,-0.00042211543768644333,-0.000724107027053833
1772700372632938500,2.6009384765625,-0.0008074592333287001,0.00236866669729352,0.0010799365118145943
1772700372642895400,2.610895263671875,-0.0009741730755195022,0.0012368233874440193,-0.001107051270082593
1772700372652852500,2.6208525390625,0.0016711766365915537,-0.0005933702923357487,0.0020227134227752686
1772700372662810600,2.630810546875,-0.0006244683172553778,-0.0007526273839175701,-0.002180553739890456
1772700372672767500,2.640767578125,-0.0004280088469386101,-0.0013463743962347507,0.0036649261601269245
1772700372682724400,2.650724365234375,0.0007309988141059875,-0.0009724665433168411,0.0006382442079484463
1772700372692682500,2.6606826171875,0.0018454492092132568,0.0003962405025959015,-0.00013908091932535172
1772700372702639400,2.670639404296875,-0.0008187770145013928,0.002082554157823324,-0.003023018129169941
1772700372712596500,2.680596435546875,0.00009303539991378784,0.001464854460209608,-0.0009339966345578432
1772700372722554400,2.690554443359375,0.002179355826228857,0.0009729685261845589,-0.0027353588957339525
1772700372732511500,2.700511474609375,-0.0010088518029078841,0.0020532035268843174,-0.0007797970902174711
1772700372742468400,2.71046826171875,0.0037230527959764004,-0.0009439177811145782,-0.0020716965664178133
1772700372752426500,2.720426513671875,-0.0003881861921399832,0.0009559225291013718,-0.0006282932590693235
1772700372762383400,2.73038330078125,-0.00025183241814374924,0.0018582013435661793,-0.001468520611524582
1772700372772340500,2.740340576171875,-0.0009784366702660918,-0.0003916132263839245,-0.0023022801615297794
1772700372782298600,2.750298583984375,0.00034329015761613846,0.0008840411901473999,-0.0022317063994705677
1772700372792255500,2.76025537109375,-0.0008024147246032953,0.0008674869313836098,0.0006725862622261047
1772700372802212400,2.77021240234375,-0.0008892337791621685,0.0007756082341074944,-0.0005202437750995159
1772700372812170500,2.78017041015625,-0.0007075541652739048,0.0004773261025547981,-0.0013229921460151672
1772700372822127400,2.79012744140625,-0.0013653549831360579,0.0003958335146307945,0.0031868047080934048
1772700372832084500,2.80008447265625,0.0005291178822517395,-0.00011371634900569916,-0.0014876865316182375
1772700372842042400,2.81004248046875,-0.0003425348550081253,0.0006492789834737778,-0.002599023748189211
1772700372851999500,2.81999951171875,-0.001136942533776164,0.0001002894714474678,0.00019502080976963043
1772700372861956400,2.829956298828125,0.0011871980968862772,0.0012499759905040264,0.001356691587716341
1772700372871914500,2.83991455078125,-0.0000629753340035677,-0.00022021634504199028,-0.0015347388107329607
1772700372881871400,2.849871337890625,-0.0005897486116737127,0.000284452922642231,0.001659989356994629
1772700372891828500,2.859828369140625,-0.0018451798241585493,-0.0004852558486163616,0.000023795757442712784
1772700372901786600,2.86978662109375,-0.00005260622128844261,-0.0020551891066133976,0.0014195581898093224
1772700372911743500,2.879743408203125,0.003990659490227699,-0.0009798412211239338,-0.0030233608558773994
1772700372921700400,2.889700439453125,0.0019352314993739128,-0.0013998216018080711,0.0001375451683998108
1772700372931658500,2.899658447265625,0.00014511519111692905,-0.0002890937030315399,-0.0014643075410276651
1772700372941615400,2.909615478515625,0.0007232874631881714,-0.0022060368210077286,0.003670000471174717
1772700372951572500,2.919572509765625,0.0008890621829777956,0.0003282730467617512,0.0015849112533032894
1772700372961530400,2.9295302734375,0.0009966539219021797,0.0007839398458600044,0.0009550736285746098
1772700372971487500,2.939487548828125,0.0017610641662031412,-0.0003859573043882847,-0.000012708362191915512
1772700372981444400,2.9494443359375,0.0029736014548689127,-0.0011654645204544067,0.002515963278710842
1772700372991402500,2.959402587890625,-0.0010253841755911708,-0.0004596649669110775,-0.0021684805396944284
1772700373001359400,2.969359375,0.001222856342792511,0.0005238400772213936,0.0005418183282017708
1772700373011316500,2.97931640625,0.00040020490996539593,-0.0003505661152303219,0.0003900271840393543
1772700373021274600,2.989274658203125,-0.0010437609162181616,-0.0009332657791674137,0.001856363844126463
1772700373031231500,2.9992314453125,-0.0004713640082627535,-0.0008243233896791935,-0.0014534536749124527
1772700373041188400,3.009188232421875,-0.000936884549446404,-0.001468808390200138,0.0007119625806808472
1772700373051146500,3.019146484375,-0.001246956060640514,0.00013906881213188171,0.0008243992924690247
1772700373061103400,3.029103271484375,0.0017086202278733253,0.0018429597839713097,0.0022004544734954834
1772700373071060500,3.039060546875,0.0029771567787975073,-0.001146405003964901,-0.00024095270782709122
1772700373081018400,3.049018310546875,0.0030786229763180017,0.0024539222940802574,-0.000537096057087183
1772700373090975500,3.0589755859375,-0.00008584721945226192,0.00024440325796604156,-0.002276522805914283
1772700373100932400,3.068932373046875,0.0029767879750579596,0.0010603955015540123,0.00019861897453665733
1772700373110890500,3.078890380859375,-0.0005722737405449152,-0.000658942386507988,-0.0018684968817979097
1772700373120847400,3.088847412109375,0.0011499924585223198,-0.00030926940962672234,-0.0022187025751918554
1772700373130805500,3.098805419921875,-0.0003170045092701912,0.0009961305186152458,-0.002494217362254858
1772700373140762600,3.1087626953125,-0.0020440644584596157,-0.0010238769464194775,0.0023937486112117767
1772700373150719500,3.118719482421875,0.0012561995536088943,0.00007795961573719978,-0.00019285362213850021
1772700373160676400,3.12867626953125,-0.00151162373367697,0.0004723737947642803,0.0024990695528686047
1772700373170634500,3.138634521484375,0.0003504166379570961,0.0005937237292528152,0.0001041102223098278
1772700373180591400,3.14859130859375,0.0008478951640427113,0.00042461324483156204,0.00040611252188682556
1772700373190549200,3.15854931640625,-0.00041525065898895264,-0.00033718906342983246,-0.0010366968344897032
1772700373200506400,3.16850634765625,-0.00006850715726613998,-0.0011710245162248611,-0.0014502857811748981
1772700373210463500,3.17846337890625,0.0015307164285331964,-0.00003428664058446884,0.0010365680791437626
1772700373220421600,3.188421630859375,0.0028886625077575445,0.0006429553031921387,0.0010477532632648945
1772700373230378500,3.19837841796875,0.0006855081301182508,-0.0027331721503287554,0.0009457743726670742
1772700373240335400,3.20833544921875,0.0010655412916094065,0.001812577247619629,0.001537795178592205
1772700373250293500,3.21829345703125,0.000724725890904665,0.0009046848863363266,-0.001956958556547761
1772700373260250600,3.228250732421875,0.0001393631100654602,0.00042478321120142937,-0.0009436258114874363
1772700373270207500,3.23820751953125,-0.0010040088091045618,-0.00105974730104208,0.0006565754301846027
1772700373280165400,3.248165283203125,-0.0012921628076583147,0.00010059168562293053,-0.0024273651652038097
1772700373290122500,3.25812255859375,0.00010659475810825825,0.0006386241875588894,-0.0008602079469710588
1772700373300079400,3.268079345703125,0.00039767823182046413,-0.0001512696035206318,0.0000034552067518234253
1772700373310037200,3.278037353515625,-0.0036517903208732605,0.0024031875655055046,-0.0018966367933899164
1772700373319994400,3.287994384765625,0.0014982307329773903,0.0014801356010138988,-0.0028132968582212925
1772700373329951500,3.297951416015625,-0.0007314688991755247,-0.00043600378558039665,-0.0011032787151634693
1772700373339909600,3.30790966796875,-0.0024979435838758945,0.000726199708878994,-0.002500639297068119
1772700373349866500,3.317866455078125,0.0011538069229573011,-0.0016003940254449844,-0.0004466921091079712
1772700373359823400,3.3278232421875,0.0007191789336502552,0.0007245456799864769,-0.000265331007540226
1772700373369781500,3.337781494140625,-0.0017065367428585887,0.0005427631549537182,-0.0009643961675465107
1772700373379738600,3.347738525390625,-0.0018969527445733547,-0.00005165440961718559,-0.0016285884194076061
1772700373389695500,3.357695556640625,-0.0017300497274845839,0.002885902300477028,-0.00041372934356331825
1772700373399653600,3.367653564453125,-0.0004117849748581648,0.00036628544330596924,-0.0024550422094762325
1772700373409610800,3.37761083984375,-0.002225966192781925,0.0007485244423151016,-0.0008245622739195824
1772700373419567600,3.387567626953125,-0.0010307395132258534,-0.0008725416846573353,0.0036753807216882706
1772700373429525500,3.397525390625,0.0011356254108250141,-0.0003576735034584999,0.001242601778358221
1772700373439482600,3.407482666015625,0.0009278988000005484,-0.001369141973555088,-0.001413901336491108
1772700373449439700,3.417439697265625,0.0003466908819973469,0.00042407913133502007,0.0009000864811241627
1772700373459397600,3.427397705078125,0.0017621612641960382,-0.0006971117109060287,0.0006449557840824127
1772700373469354800,3.437354736328125,0.0007470634300261736,-0.0019631818868219852,0.001906911376863718
1772700373479311600,3.4473115234375,0.0008674382697790861,0.001162037719041109,0.0009961104951798916
1772700373489269800,3.457269775390625,-0.0019748355261981487,-0.0004115784540772438,-0.0018622151110321283
1772700373499226600,3.4672265625,-0.000419016694650054,0.0010246643796563148,-0.0023093598429113626
1772700373509183700,3.477183837890625,0.000498264329507947,-0.000012485776096582413,-0.00034822896122932434
1772700373519141600,3.4871416015625,0.00011530192568898201,0.00034357886761426926,-0.0022859452292323112
1772700373529098800,3.4970986328125,-0.0014618069399148226,-0.0009146630764007568,0.001204242929816246
1772700373539055600,3.5070556640625,0.00047271326184272766,0.0003495393320918083,0.0034695276990532875
1772700373549013500,3.517013427734375,-0.0028753054793924093,-0.0010461164638400078,-0.0007520795334130526
1772700373558970600,3.526970703125,-0.00011121062561869621,0.00038053886964917183,-0.00012330710887908936
1772700373568927700,3.536927734375,0.0006107850931584835,0.00016642827540636063,0.0022708731703460217
1772700373578885600,3.5468857421875,-0.0012640802888199687,0.0012359539978206158,-0.0025316053070127964
1772700373588842800,3.5568427734375,-0.0005642257165163755,0.00006517954170703888,-0.0007689332123845816
1772700373598799600,3.566799560546875,0.0003604236990213394,0.0012058112770318985,-0.0019039725884795189
1772700373608757800,3.5767578125,0.0017212587408721447,-0.00134945847094059,-0.0034659001976251602
1772700373618714600,3.586714599609375,-0.0008833128958940506,0.0011621685698628426,-0.00012949202209711075
1772700373628671700,3.596671630859375,0.00041635637171566486,-0.0004077758640050888,0.0005626557394862175
1772700373638629600,3.606629638671875,-0.00006727362051606178,-0.001182223204523325,-0.001291703199967742
1772700373648586800,3.616586669921875,0.00003299885429441929,-0.0009375456720590591,-0.000435875728726387
1772700373658543600,3.626543701171875,0.0004721542354673147,-0.0004821452312171459,0.0003819810226559639
1772700373668501500,3.63650146484375,0.0012878873385488987,-0.0004429873079061508,0.0004163989797234535
1772700373678458600,3.646458740234375,0.0018127961084246635,-0.00241585704497993,-0.0009426120668649673
1772700373688415700,3.656415771484375,-0.0005983554292470217,0.0008093537762761116,0.0005697812885046005
1772700373698373600,3.66637353515625,-0.0007296492112800479,0.0013606278225779533,0.0007407562807202339
1772700373708330800,3.676330810546875,0.0004156455397605896,-0.0024381792172789574,0.0015915813855826855
1772700373718288600,3.68628857421875,0.00015012826770544052,-0.001714598387479782,0.003349001519382
1772700373728245800,3.696245849609375,-0.00042459391988813877,-0.0019248970784246922,0.0027297926135361195
1772700373738202600,3.70620263671875,-0.00018437672406435013,-0.0005823974497616291,0.0036110319197177887
1772700373748160500,3.716160400390625,0.0020758123137056828,-0.00019148178398609161,0.0010218434035778046
1772700373758117600,3.72611767578125,0.0028957994654774666,-0.0005496772937476635,-0.0006484913174062967
1772700373768074800,3.73607470703125,-0.00215260311961174,0.000884257722645998,-0.00064131710678339
1772700373778033000,3.746032958984375,0.0019539915956556797,-0.0014156484976410866,0.0012386082671582699
1772700373787989500,3.755989501953125,0.0016114725731313229,-0.0011647623032331467,0.003516221884638071
1772700373797946600,3.765946533203125,-0.0010618084343150258,0.0015822886489331722,-0.001923284726217389
1772700373807904800,3.77590478515625,0.0001443997025489807,0.0004159417003393173,-0.0013462631031870842
1772700373817861600,3.785861572265625,0.001996362116187811,0.00031261099502444267,-0.0003787365276366472
1772700373827818800,3.79581884765625,0.0017306071240454912,-0.0013083741068840027,-0.0001123049296438694
1772700373837776600,3.805776611328125,-0.0037336666136980057,-0.00047533726319670677,0.0006014220416545868
1772700373847733800,3.815733642578125,-0.0002246967051178217,-0.0006865086033940315,-0.0008973674848675728
1772700373857690600,3.825690673828125,0.0017636194825172424,0.0014565372839570045,0.003445982001721859
1772700373867648500,3.8356484375,-0.0005930725019425154,0.000709241721779108,-0.000127352774143219
1772700373877605600,3.845605712890625,-0.00020877830684185028,-0.0002841171808540821,0.00020527560263872147
1772700373887562800,3.855562744140625,-0.0015655142487958074,0.0013788980431854725,-0.002182180993258953
1772700373897521000,3.86552099609375,-0.0004975867923349142,-0.000323394313454628,-0.0006884140893816948
1772700373907477500,3.8754775390625,0.0014792971778661013,0.0001798206940293312,-0.0009648106060922146
1772700373917434600,3.8854345703125,-0.000239507295191288,-0.0015040957368910313,0.00033294782042503357
1772700373927392800,3.895392822265625,-0.00008112052455544472,-0.00045261718332767487,-0.00037861126475036144
1772700373937349600,3.905349609375,-0.001373019884340465,0.0023317174054682255,-0.0032044914551079273
1772700373947306800,3.915306640625,-0.0019629255402833223,-0.0002787802368402481,-0.0011016021016985178
1772700373957264600,3.9252646484375,-0.0025546797551214695,0.001307132188230753,-0.0017620660364627838
1772700373967221800,3.9352216796875,-0.0024058329872787,-0.000011675059795379639,0.0009440118446946144
1772700373977178600,3.9451787109375,-0.0019927765242755413,0.0026893028989434242,-0.0024038481060415506
1772700373987136500,3.955136474609375,-0.0010269874474033713,-0.0004960736259818077,-0.0003821244463324547
1772700373997093600,3.96509375,-0.001115138060413301,-0.0001059207133948803,-0.0007909196428954601
1772700374007050800,3.97505078125,-0.0004131265450268984,0.0016335784457623959,-0.006590941455215216
1772700374017009000,3.9850087890625,-0.0015942385653033853,-0.00008522532880306244,-0.00048324791714549065
1772700374026965500,3.994965576171875,-0.0006620283238589764,-0.0004602470435202122,-0.0010661815758794546
1772700374036922600,4.004922607421875,0.00113667082041502,0.0015227426774799824,0.0027463999576866627
1772700374046880800,4.014880859375,-0.0005005460698157549,0.00023621460422873497,0.0036654467694461346
1772700374056837600,4.024837646484375,0.0004997372161597013,-0.00220084423199296,-0.0007564662955701351
1772700374066794800,4.034794677734375,0.0004308593925088644,-0.0014551575295627117,0.001052109058946371
1772700374076752600,4.044752685546875,0.0010886602103710175,0.0004380838945508003,0.0022518630139529705
1772700374086709800,4.054709716796875,0.00021845707669854164,0.0011139651760458946,0.0008977227844297886
1772700374096666600,4.06466650390625,0.0004126015119254589,-0.0007063052617013454,-0.0011113656219094992
1772700374106624500,4.07462451171875,0.0017076358199119568,0.00128922238945961,0.0014567379839718342
1772700374116581600,4.08458154296875,-0.0003027843777090311,-0.0028501288034021854,0.0013819029554724693
1772700374126538800,4.094538818359375,0.00002767704427242279,-0.0015025828033685684,0.0008405824191868305
1772700374136497000,4.104496826171875,-0.0015049721114337444,-0.00044371001422405243,0.00026773661375045776
1772700374146453500,4.11445361328125,0.001081510679796338,0.0016168169677257538,0.001120859757065773
1772700374156410600,4.12441064453125,0.0003496741410344839,0.0001475512981414795,0.00245590228587389
1772700374166368800,4.13436865234375,-0.0008516471134498715,-0.0013099126517772675,-0.0012894615065306425
1772700374176325600,4.14432568359375,-0.001712913392111659,0.000946050975471735,-0.00012086611241102219
1772700374186282800,4.15428271484375,0.0002547034528106451,-0.001173266675323248,-0.0007111083250492811
1772700374196240600,4.16424072265625,0.0008054452482610941,-0.0013514319434762,-0.0006162999197840691
1772700374206197800,4.17419775390625,-0.0005674087442457676,0.000772619154304266,0.0010241176933050156
1772700374216154600,4.184154541015625,0.000835011713206768,0.0004173535853624344,-0.002508831676095724
1772700374226112500,4.194112548828125,0.0007686370518058538,0.0012173275463283062,-0.0011011448223143816
1772700374236069600,4.204069580078125,0.0008165738545358181,0.0008796383626759052,-0.0010790405794978142
1772700374246026800,4.21402685546875,-0.0008380991639569402,-0.0014950199984014034,-0.00022568320855498314
1772700374255984600,4.223984619140625,0.0031582401134073734,-0.001597018912434578,0.0016979179345071316
1772700374265941500,4.23394140625,-0.0005534328520298004,0.0005247085355222225,0.0006294082850217819
1772700374275898600,4.243898681640625,-0.0006754056084901094,0.00035985885187983513,-0.001819634810090065
1772700374285856800,4.253856689453125,0.00011574989184737206,-0.000005282461643218994,0.0034079193137586117
1772700374295813600,4.263813720703125,-0.0013604402774944901,0.00007674284279346466,-0.0011886965949088335
1772700374305771500,4.273771484375,0.0026849741116166115,-0.0030950589571148157,-0.00238727405667305
1772700374315728600,4.283728759765625,-0.0015593054704368114,0.0005100620910525322,0.00008573709055781364
1772700374325685800,4.293685791015625,-0.0015304968692362309,0.0015908163040876389,0.0010688058100640774
1772700374335643600,4.3036435546875,0.0000024186447262763977,0.0003806757740676403,0.0013276650570333004
1772700374345600500,4.3136005859375,0.0019093349110335112,-0.0007080198265612125,0.0036149239167571068
1772700374355557600,4.3235576171875,0.0034603599924594164,-0.0009991033002734184,-0.0008964708540588617
1772700374365515800,4.333515869140625,0.0007657778915017843,-0.0036461229901760817,-0.0010141306556761265
1772700374375472600,4.34347265625,-0.0007487619295716286,-0.00001543574035167694,-0.001241298159584403
1772700374385429500,4.353429443359375,0.0018983378540724516,-0.0019430206157267094,0.00020889798179268837
1772700374395387600,4.3633876953125,-0.00015123095363378525,-0.003565684426575899,0.0018693790771067142
1772700374405344500,4.373344482421875,0.0018239214550703764,-0.001002755481749773,0.00046788807958364487
1772700374415301600,4.383301513671875,-0.0009532227413728833,-0.0007303142920136452,-0.00019923364743590355
1772700374425259500,4.393259521484375,-0.004048739559948444,-0.0007191617041826248,0.0013280101120471954
1772700374435216400,4.40321630859375,0.00020379596389830112,0.0007205428555607796,-0.0015005331952124834
1772700374445173500,4.413173583984375,-0.0023484635166823864,0.001878160983324051,-0.002591653261333704
1772700374455131600,4.423131591796875,0.0019442855846136808,-0.0018380139954388142,-0.00025952327996492386
1772700374465088500,4.433088623046875,0.0008647502399981022,-0.00028749648481607437,0.0009444965980947018
1772700374475045400,4.44304541015625,0.00018085050396621227,0.0001886766403913498,0.0006416947580873966
1772700374485003500,4.45300341796875,0.0006061329040676355,-0.0022939378395676613,0.0008344235830008984
1772700374494960600,4.462960693359375,-0.0023835315369069576,-0.00038152188062667847,-0.0009767920710146427
1772700374504917500,4.47291748046875,-0.0018291514134034514,-0.0043907929211854935,-0.0009636932518333197
1772700374514875600,4.482875732421875,-0.001904785167425871,0.0007981103844940662,0.0009260857477784157
1772700374524832500,4.49283251953125,-0.0026029448490589857,0.0018791398033499718,0.0006442656740546227
1772700374534789600,4.50278955078125,-0.0009043806931003928,-0.001118514221161604,-0.0003019552677869797
1772700374544747500,4.51274755859375,0.001055834349244833,-0.0014368677511811256,0.00008893478661775589
1772700374554704400,4.522704345703125,0.00007818802259862423,0.0005264142528176308,-0.00024129683151841164
1772700374564661500,4.53266162109375,0.0011057895608246326,0.00046547409147024155,0.0007307403720915318
1772700374574619600,4.54261962890625,-0.001205035368911922,0.0026306239888072014,0.0017904122360050678
1772700374584576500,4.552576416015625,0.0010493295267224312,-0.0008973125368356705,-0.0011430238373577595
1772700374594533400,4.562533447265625,0.00006209569983184338,0.0021283049136400223,0.0006974870339035988
1772700374604491500,4.572491455078125,-0.000699556665495038,-0.0015155761502683163,0.002102108672261238
1772700374614448600,4.58244873046875,-0.00046306801959872246,0.0003566262312233448,-0.00025159306824207306
1772700374624405500,4.592405517578125,-0.00007291859947144985,-0.0005361097864806652,-0.0036881882697343826
1772700374634363600,4.60236376953125,0.00038541154935956,-0.000597895123064518,0.001231202855706215
1772700374644320500,4.612320556640625,0.0018054766114801168,-0.0001320522278547287,0.00024407356977462769
1772700374654277600,4.622277587890625,-0.0007860453333705664,-0.00041780946776270866,-0.00022757239639759064
1772700374664235500,4.632235595703125,-0.0003952556289732456,-0.0014437460340559483,0.0014220373705029488
1772700374674192400,4.6421923828125,0.0013195539359003305,0.00030648335814476013,0.001107251737266779
1772700374684149500,4.6521494140625,-0.0008813973981887102,-0.00010351976379752159,-0.001299798022955656
1772700374694107600,4.662107666015625,0.0021032069344073534,0.0008522891439497471,-0.0019908882677555084
1772700374704064500,4.672064453125,-0.0007618096424266696,-0.0007590297609567642,-0.002867837669327855
1772700374714021400,4.682021484375,0.0019045472145080566,-0.0009382609277963638,0.0011711125262081623
1772700374723979500,4.6919794921875,-0.0000032726675271987915,0.00035665789619088173,-0.0010393643751740456
1772700374733936600,4.7019365234375,-0.0011742645874619484,-0.0005078045651316643,-0.0012287150602787733
1772700374743893500,4.7118935546875,0.0011955590452998877,-0.000797792337834835,-0.0005278508178889751
1772700374753851600,4.7218515625,0.0011580083519220352,-0.001057982910424471,0.0014354316517710686
1772700374763808500,4.73180859375,0.0013449315447360277,0.00004549045115709305,0.002586634363979101
1772700374773765600,4.741765625,0.0009577078744769096,-0.0013638543896377087,-0.0007740084547549486
1772700374783723500,4.7517236328125,0.0007914744783192873,0.00130116892978549,-0.002459754701703787
1772700374793680400,4.761680419921875,0.0009256978519260883,0.0024644373916089535,0.00047052139416337013
1772700374803638500,4.771638427734375,0.0007726505864411592,0.000021453481167554855,-0.001517782686278224
1772700374813595600,4.781595703125,-0.0009868998313322663,0.000533579383045435,-0.0011116506066173315
1772700374823552500,4.791552490234375,-0.0016864100471138954,0.00037581566721200943,-0.0020896857604384422
1772700374833510700,4.8015107421875,0.0037421775050461292,0.0007177651859819889,0.0022757677361369133
1772700374843467500,4.811467529296875,0.0019370235968381166,-0.0021615438163280487,-0.00009759748354554176
1772700374853424600,4.821424560546875,0.0025479530449956656,-0.00040039513260126114,0.0002616629935801029
1772700374863382500,4.831382568359375,0.0024189993273466825,0.0001862756907939911,-0.00119834765791893
1772700374873339600,4.841339599609375,-0.00005454476922750473,0.0007194406352937222,0.002265093382447958
1772700374883296500,4.851296630859375,0.0012177836615592241,-0.0010644900612533092,-0.0008653027471154928
1772700374893254400,4.86125439453125,0.0007381483446806669,0.0005653644911944866,-0.0012115135323256254
1772700374903211500,4.87121142578125,0.0020319519098848104,-0.0006347210146486759,-0.002491103019565344
1772700374913168400,4.88116845703125,0.0014529803302139044,-0.0012544384226202965,0.0014149555936455727
1772700374923126500,4.89112646484375,0.0014893740881234407,-0.0002833032049238682,0.0020230826921761036
1772700374933083600,4.901083740234375,-0.0002278320025652647,0.0005031279288232327,-0.0029828613623976707
1772700374943040500,4.91104052734375,0.000718405470252037,0.0015773898921906948,0.0013214540667831898
1772700374952998700,4.92099853515625,0.0010744701139628887,-0.004178766161203384,0.003324683755636215
1772700374962955500,4.93095556640625,-0.0010978704085573554,-0.00037740403786301613,0.0028565777465701103
1772700374972912600,4.94091259765625,-0.0009513965342193842,0.0004926505498588085,0.00103337736800313
1772700374982870500,4.95087060546875,-0.0014826974365860224,0.002659380901604891,-0.001642261166125536
1772700374992827600,4.96082763671875,-0.0012680466752499342,-0.0014943513087928295,-0.0005722031928598881
1772700375002784500,4.970784423828125,0.00030961097218096256,-0.0002826731652021408,-0.002572968602180481
1772700375012742400,4.980742431640625,-0.00016975798644125462,-0.0009772256016731262,-0.0009013025555759668
1772700375022699500,4.990699462890625,-0.0007354135159403086,0.0009311442263424397,-0.0015057239215821028
1772700375032656400,5.000656494140625,0.0014896574430167675,0.0030124043114483356,-0.004285797942429781
1772700375042614500,5.010614501953125,-0.0007873462745919824,0.0008619627915322781,0.0008819983340799809
1772700375052571600,5.020571533203125,-0.0018621981143951416,-0.00012207543477416039,-0.001979301916435361
1772700375062528500,5.030528564453125,-0.0004951967857778072,-0.0006931694224476814,0.0002752481959760189
1772700375072486700,5.040486572265625,-0.002958354540169239,-0.000007938127964735031,-0.00040518934838473797
1772700375082443500,5.050443603515625,0.0026073851622641087,0.0018657590262591839,0.0005468572489917278
1772700375092400600,5.060400634765625,-0.0009679084178060293,0.0007400410249829292,-0.0004451703280210495
1772700375102358500,5.070358642578125,0.0017538429237902164,-0.000007122289389371872,0.001214772928506136
1772700375112315600,5.080315673828125,0.0004552854225039482,-0.002538989530876279,0.002865932881832123
1772700375122272500,5.0902724609375,-0.0005351451691240072,0.0009979987516999245,0.004574320744723082
1772700375132230400,5.10023046875,0.00025980849750339985,-0.0006451713852584362,0.002619294449687004
1772700375142187500,5.1101875,0.000508282333612442,-0.00315524498000741,-0.00010429089888930321
1772700375152144400,5.120144287109375,-0.0010169100714847445,-0.0001418781466782093,0.0009316788055002689
1772700375162102500,5.1301025390625,-0.00261214398778975,0.0022724238224327564,-0.001008695224300027
1772700375172059600,5.1400595703125,-0.00395650789141655,0.003450073767453432,-0.00098259630613029
1772700375182016500,5.1500166015625,-0.0007151745958253741,0.0009631626307964325,-0.0015731698367744684
1772700375191974700,5.159974609375,-0.0006456661503762007,0.0009810058400034904,-0.002604345791041851
1772700375201931500,5.169931640625,0.0010489034466445446,0.0004239063709974289,0.002259042114019394
1772700375211888600,5.179888671875,0.00042519113048911095,0.00047823507338762283,-1.1734664440155029e-7
1772700375221846500,5.189846435546875,0.00007068621926009655,-0.0008850567974150181,-0.0012209261767566204
1772700375231803600,5.1998037109375,-0.0019344077445566654,-0.0004432382993400097,0.0018310565501451492
1772700375241760500,5.209760498046875,-0.0008489413885399699,-0.00018310127779841423,-0.0011684675700962543
1772700375251718400,5.219718505859375,0.0003904937766492367,0.0001532561145722866,0.0008850959129631519
1772700375261675500,5.229675537109375,0.0009738921653479338,0.0001809569075703621,0.0008324747905135155
1772700375271632400,5.23963232421875,-0.0012903272872790694,0.0002808254212141037,-0.0009371957276016474
1772700375281590500,5.249590576171875,0.0016715372912585735,0.0011985311284661293,0.0026229205541312695
1772700375291547600,5.259547607421875,-0.001757548889145255,0.0010922709479928017,0.0004085022956132889
1772700375301504500,5.26950439453125,0.001137427520006895,0.0016646361909806728,0.00018273945897817612
1772700375311462700,5.279462646484375,-0.001990188844501972,-0.0011359434574842453,0.002267994452267885
1772700375321419500,5.28941943359375,-0.001747936592437327,-0.0022542509250342846,-0.00251057930290699
1772700375331376600,5.299376708984375,-0.000048040878027677536,-0.0005069510079920292,0.0015328982844948769
1772700375341334500,5.30933447265625,-0.0010127025889232755,-0.00019771140068769455,0.0032943072728812695
1772700375351291600,5.319291748046875,-0.0011469259625300765,-0.0005258130840957165,-0.0003470329102128744
1772700375361249500,5.32924951171875,-0.0009666876867413521,0.0005507213063538074,-0.0026023590471595526
1772700375371206400,5.339206298828125,0.0006591721903532743,-0.0005022925324738026,0.0002030148170888424
1772700375381163500,5.34916357421875,-0.002788200043141842,0.0024534398689866066,0.0005718911997973919
1772700375391121700,5.35912158203125,-0.0008542124414816499,-0.00041664857417345047,-0.00033944263122975826
1772700375401078800,5.369078857421875,-0.001665818621404469,0.0005135922692716122,0.00002755783498287201
1772700375411036000,5.379035888671875,0.001496951561421156,-0.0014805826358497143,0.0008720462210476398
1772700375420993800,5.388993896484375,0.0011151432991027832,-0.0010507823899388313,0.0006723771803081036
1772700375430951000,5.398950927734375,-0.002266272436827421,0.00024031801149249077,-0.0005899609532207251
1772700375440907800,5.40890771484375,-0.0010077358456328511,0.0000632195733487606,-0.001695055514574051
1772700375450865700,5.41886572265625,-0.000006120884791016579,-0.0017650406807661057,-0.0006316553335636854
1772700375460822800,5.42882275390625,-0.0006378993857651949,-0.0011611171066761017,0.0015401295386254787
1772700375470780000,5.43877978515625,-0.0009763870621100068,0.0005896450020372868,0.00010441942140460014
1772700375480737800,5.44873779296875,-0.001807855092920363,-0.0011671488173305988,-0.002018252620473504
1772700375490694700,5.458694580078125,-0.0002238068263977766,0.000995071604847908,-0.0006339414976537228
1772700375500651800,5.46865185546875,-0.0027696616016328335,-0.0006046886555850506,-0.0001744357869029045
1772700375510610000,5.47860986328125,-0.0005640317685902119,-0.00052665825933218,0.0007198536768555641
1772700375520566800,5.48856689453125,0.0004366480279713869,0.0006549842655658722,0.00167105533182621
1772700375530524000,5.49852392578125,-0.00034898449666798115,-0.0007088202983140945,0.0013014087453484535
1772700375540481800,5.508481689453125,0.0021467343904078007,0.000349218025803566,-0.0014199430588632822
1772700375550439000,5.51843896484375,-0.0012983306078240275,0.0004570763558149338,0.0030528358183801174
1772700375560395800,5.528395751953125,0.0003422789741307497,-0.00036856113001704216,0.0009484188631176949
1772700375570353700,5.538353759765625,-0.00010380055755376816,0.0016091023571789265,0.0020775990560650826
1772700375580310800,5.548310791015625,0.0011583580635488033,-0.002342125866562128,0.0021257740445435047
1772700375590268000,5.558267822265625,0.00024915486574172974,0.000281620305031538,0.0018200431950390339
1772700375600225800,5.568225830078125,-0.0007671859348192811,0.0017135771922767162,0.0031332382932305336
1772700375610182700,5.5781826171875,-0.0007157869404181838,-0.001072887796908617,-0.0003336644731462002
1772700375620139800,5.588139892578125,0.0014998512342572212,0.0020065829157829285,-0.0021359389647841454
1772700375630098000,5.598097900390625,0.00022819195874035358,0.0013594352640211582,0.0021155313588678837
1772700375640054800,5.6080546875,-0.00028677633963525295,0.0006646574474871159,0.0020172386430203915
1772700375650012000,5.618011962890625,0.000506845535710454,0.0023746732622385025,-0.00034498516470193863
1772700375659969800,5.6279697265625,0.00001327507197856903,-0.0033130496740341187,-0.0026026382111012936
1772700375669927000,5.637927001953125,-0.0008139028213918209,-0.0009082150645554066,0.00018862076103687286
1772700375679883800,5.6478837890625,0.0003970884718000889,-0.0003105676732957363,-0.0014318593312054873
1772700375689841700,5.657841552734375,0.0011041576508432627,0.002536884043365717,0.0012720483355224133
1772700375699798800,5.667798828125,-0.003032682929188013,0.0010210582986474037,0.00046486128121614456
1772700375709756000,5.677755859375,0.0010914881713688374,-0.0005789692513644695,0.0017546303570270538
1772700375719713800,5.6877138671875,0.001551479334011674,-0.00017737504094839096,0.0022050361149013042
1772700375729670700,5.697670654296875,0.0008060608524829149,-0.003304725280031562,-0.0001262947916984558
1772700375739627800,5.707627685546875,0.0029536064248532057,0.00006579793989658356,0.0012322342954576015
1772700375749586000,5.7175859375,-0.000970295281149447,-0.0027156074065715075,0.0005217026919126511
1772700375759542800,5.727542724609375,0.0012329877354204655,-0.0008686305955052376,0.001066798809915781
1772700375769500000,5.7375,-0.00018088449724018574,-0.0002561034634709358,-0.0003342898562550545
1772700375779457800,5.747457763671875,-0.00013023987412452698,-0.0003061862662434578,-0.0004905376117676497
1772700375789415000,5.757414794921875,0.0017068088054656982,-0.0005173748359084129,-0.0010692423675209284
1772700375799371800,5.767371826171875,-0.0017158216796815395,0.0026041832752525806,0.0005042259581387043
1772700375809329700,5.77732958984375,0.0007563906256109476,0.0004635341465473175,-0.001053457148373127
1772700375819286800,5.787286865234375,0.001167608192190528,0.0023720618337392807,-0.0017449893057346344
1772700375829244000,5.797243896484375,0.002366030588746071,-0.0009433072991669178,0.0037837326526641846
1772700375839201800,5.807201904296875,-0.0009225563844665885,-0.00045658042654395103,0.0007844641804695129
1772700375849158700,5.81715869140625,-0.00005942583084106445,-0.0009306231513619423,-0.00041422457434237003
1772700375859115800,5.82711572265625,0.0010061385110020638,-0.0013404912315309048,-0.002549408469349146
1772700375869074000,5.837073974609375,0.00026391539722681046,0.0009588818065822124,-0.0007272737566381693
1772700375879030800,5.84703076171875,0.0019006647635251284,-0.0015743160620331764,0.0011559491977095604
1772700375888988000,5.85698779296875,-0.002560929162427783,0.0018728794530034065,-0.0029519768431782722
1772700375898945800,5.86694580078125,-0.0008356847101822495,0.0004990505985915661,-0.0008276100270450115
1772700375908903000,5.87690283203125,0.0008029583841562271,-0.0008977772668004036,0.0036819209344685078
1772700375918860800,5.88686083984375,-0.0009599165059626102,-0.002731430809944868,0.00007618311792612076
1772700375928817700,5.896817626953125,-0.0008336827158927917,-0.0020816195756196976,0.0012133526615798473
1772700375938774800,5.90677490234375,0.00048319832421839237,0.0000876779668033123,-0.0008569287601858377
1772700375948733000,5.91673291015625,0.0006051710806787014,0.0016717263497412205,-0.0003021922893822193
1772700375958689800,5.926689697265625,0.0007779824081808329,-0.001193617470562458,0.00044406717643141747
1772700375968646700,5.936646728515625,-0.0011155251413583755,-0.0005800253711640835,-0.00043024844489991665
1772700375978604800,5.946604736328125,-0.0011999158887192607,0.0025306730531156063,-0.000999989453703165
1772700375988562000,5.95656201171875,0.00012820260599255562,0.0009540817700326443,-0.0015254311729222536
1772700375998518800,5.966518798828125,-0.001935741864144802,0.001183285377919674,0.001236617099493742
1772700376008476700,5.9764765625,0.0003042430616915226,-0.000024990644305944443,0.002245955169200897
1772700376018433800,5.986433837890625,0.00020767748355865479,-0.003198176622390747,-0.000647606560960412
1772700376028391000,5.996390869140625,0.0017605668399482965,0.0014887205325067043,-0.0012148597743362188
1772700376038348800,6.006348876953125,0.0005384588148444891,-0.002080801874399185,0.0014436529017984867
1772700376048305700,6.0163056640625,0.0014612439554184675,0.00003507966175675392,-0.0005318797193467617
1772700376058262800,6.0262626953125,0.003852416295558214,0.0007266742177307606,0.0007341508753597736
1772700376068221000,6.036220947265625,0.0018478548154234886,-0.0019868207164108753,0.001722982618957758
1772700376078177800,6.046177734375,-0.0010567221324890852,-0.0013028085231781006,0.0013105925172567368
1772700376088134700,6.056134765625,0.0016413265839219093,0.0012889797799289227,-0.0007799891754984856
1772700376098092800,6.0660927734375,-0.0027160190511494875,0.0005158227868378162,-0.0012335274368524551
1772700376108050000,6.0760498046875,-0.000010513700544834137,-0.003233641851693392,-0.0013728109188377857
1772700376118006800,6.0860068359375,0.00021436228416860104,-0.001143984030932188,0.0013927859254181385
1772700376127964700,6.095964599609375,0.0009957337751984596,-0.003515795338898897,0.0007728021591901779
1772700376137921800,6.105921875,-0.0002542461734265089,-0.0020003821700811386,-0.00014169001951813698
1772700376147879000,6.11587890625,0.0011811975855380297,0.00006836140528321266,-0.002561172004789114
1772700376157836800,6.1258369140625,-0.0005166439805179834,0.0020139184780418873,0.000823556911200285
1772700376167793700,6.135793701171875,0.002032533986493945,-0.000059619080275297165,-0.0018976612482219934
1772700376177750800,6.145750732421875,-0.0007624051067978144,-0.0000719255767762661,0.002706022933125496
1772700376187709000,6.155708984375,0.001690099947154522,-0.0012293350882828236,0.002146759070456028
1772700376197665800,6.165665771484375,0.0012685940600931644,0.0020817634649574757,-0.0004373264964669943
1772700376207622700,6.17562255859375,0.0003665813710540533,-0.0038773261476308107,0.002268178854137659
1772700376217580800,6.185580810546875,0.0007222099229693413,0.0014120913110673428,-0.004722573794424534
1772700376227538000,6.195537841796875,-0.0016125834081321955,-0.0013623898848891258,0.0013547600246965885
1772700376237494800,6.205494873046875,-0.002336331410333514,0.0027362066321074963,-0.0009417727123945951
1772700376247452700,6.21545263671875,-0.0017776001477614045,0.00043390365317463875,0.0017315084114670753
1772700376257409800,6.225409912109375,-0.0007415958680212498,0.00022538844496011734,0.0020863544195890427
1772700376267367000,6.235366943359375,0.0001484325621277094,0.0009044944308698177,0.0021777008660137653
1772700376277324800,6.24532470703125,-0.0006765176076442003,0.0006723529659211636,0.0006228666752576828
1772700376287281700,6.25528173828125,0.002036710735410452,-0.0009122281335294247,0.0016186228021979332
1772700376297238800,6.26523876953125,-0.0005473529454320669,-0.0002798824571073055,-0.0020707102958112955
1772700376307197000,6.275197021484375,0.00017862487584352493,-0.0003949310630559921,0.0008819364011287689
1772700376317153800,6.28515380859375,0.002624204382300377,0.00002527330070734024,-0.0003296351060271263
1772700376327110700,6.295110595703125,-0.0009393716463819146,0.001627164427191019,-0.000862001208588481
1772700376337068800,6.30506884765625,0.0001509066205471754,0.00005330657586455345,-0.0022297303657978773
1772700376347026000,6.31502587890625,-0.0011194213293492794,0.0014333566650748253,-0.001250219764187932
1772700376356982800,6.324982666015625,-0.0019738804548978806,-0.001348359975963831,-0.00005999254062771797
1772700376366940700,6.334940673828125,-0.001214080723002553,-0.000059656333178281784,0.0027632242999970913
1772700376376897800,6.344897705078125,0.0020839411299675703,0.0021492019295692444,0.000891469419002533
1772700376386855000,6.35485498046875,0.0008807247504591942,-0.001028215978294611,0.001167905516922474
1772700376396812800,6.364812744140625,-0.00017681624740362167,0.00021561700850725174,0.00225443160161376
1772700376406769000,6.374768798828125,-0.001721716020256281,-0.00015003513544797897,0.0020672110840678215
1772700376416725800,6.384725830078125,0.00042718974873423576,-0.0004920456558465958,-0.0005463485140353441
1772700376426684000,6.394683837890625,-0.0015653872396796942,-0.0012835371308028698,0.00037750182673335075
1772700376436640800,6.404640869140625,0.0022637054789811373,-0.0020758616738021374,0.0002090022899210453
1772700376446598000,6.414597900390625,0.0010011005215346813,-0.0004204404540359974,-0.00015691621229052544
1772700376456555800,6.4245556640625,0.001216252101585269,-0.002337581478059292,-0.00015850085765123367
1772700376466512600,6.4345126953125,-0.0009411745704710484,0.00019029108807444572,0.001229804940521717
1772700376476469800,6.4444697265625,-0.0037500448524951935,-0.0006754179485142231,0.00031157443299889565
1772700376486428000,6.454427978515625,0.00024975696578621864,0.0008383225649595261,0.0008806916885077953
1772700376496384800,6.464384765625,-0.0014661047607660294,-0.001620966475456953,0.00020955922082066536
1772700376506343000,6.474343017578125,0.00039464584551751614,0.0014528539031744003,-0.001300719566643238
1772700376516299800,6.4842998046875,0.0010848762467503548,0.0004289834760129452,-0.00024845730513334274
1772700376526257000,6.4942568359375,-0.0012195570161566138,-0.0011324277147650719,0.0008668745867908001
1772700376536214800,6.50421484375,0.0004971467424184084,-0.002235939260572195,0.0010811705142259598
1772700376546172000,6.514171875,-0.0011180604342371225,-0.0018282090313732624,0.000060380902141332626
1772700376556128800,6.524128662109375,0.001334178727120161,0.00008216174319386482,0.0022767353802919388
1772700376566086700,6.534086669921875,0.00010805949568748474,-0.002601772081106901,0.0002772342413663864
1772700376576043800,6.544043701171875,0.000050001777708530426,-0.0017324211075901985,0.0015530097298324108
1772700376586000600,6.554000732421875,0.0006137930322438478,0.002157924696803093,-0.003483027685433626
1772700376595958800,6.563958740234375,0.0007225819863379002,0.0010693389922380447,0.0005749566480517387
1772700376605916000,6.573916015625,-0.0006569353863596916,-0.00006862962618470192,-0.0021382716950029135
1772700376615872800,6.583872802734375,0.00002301810309290886,-0.000838237814605236,-0.0007421921472996473
1772700376625831000,6.593830810546875,-0.0004978962242603302,-0.002191123552620411,-0.0024202498607337475
1772700376635787800,6.603787841796875,-0.0007389052771031857,-0.0008825622498989105,-0.00006387243047356606
1772700376645745000,6.613744873046875,0.002729329513385892,-0.0011123931035399437,0.001022697426378727
1772700376655702800,6.623702880859375,-0.000627914210781455,0.0029403939843177795,-0.000975853530690074
1772700376665660000,6.633659912109375,-0.0005339046474546194,0.0005560657009482384,-0.0016112837474793196
1772700376675616800,6.64361669921875,0.00022623315453529358,-0.00118913222104311,0.0005503082647919655
1772700376685574700,6.65357470703125,-0.0011631379602476954,0.0015770932659506798,-0.0011517181992530823
1772700376695531800,6.66353173828125,0.0011595610994845629,0.00009322445839643478,0.002192933578044176
1772700376705488600,6.673488525390625,-0.00012994138523936272,0.001410424243658781,0.0033780401572585106
1772700376715446800,6.68344677734375,-0.0005012713372707367,-0.002783325733616948,0.0005504488945007324
1772700376725404000,6.69340380859375,-0.0008903590496629477,0.001316877081990242,-0.0004415786825120449
1772700376735360800,6.70336083984375,-0.003061626572161913,0.00033623725175857544,-0.0019126322586089373
1772700376745319000,6.71331884765625,-0.0004898118786513805,-0.00020544975996017456,0.00010923948138952255
1772700376755275800,6.72327587890625,-0.002710595028474927,0.002166538033634424,-0.001575889065861702
1772700376765233000,6.73323291015625,-0.00037633441388607025,0.0010429504327476025,0.001099256332963705
1772700376775190800,6.743190673828125,-0.0008138574194163084,0.0008516493253409863,-0.0006469425279647112
1772700376785148000,6.75314794921875,0.002689264714717865,-0.000431728083640337,0.0006875675171613693
1772700376795104800,6.763104736328125,0.0003131392877548933,0.0013418649323284626,-0.0009610985871404409
1772700376805062700,6.773062744140625,-0.00024559185840189457,0.0040218038484454155,-0.0014351413119584322
1772700376815019800,6.783019775390625,0.0005254973657429218,-0.0007928553968667984,0.0006329752504825592
1772700376824976600,6.7929765625,-0.001568013452924788,0.000032724346965551376,-0.0026576267555356026
1772700376834934800,6.802934814453125,0.002837403444573283,-0.0009018527343869209,0.0006606127135455608
1772700376844892000,6.812891845703125,0.001500496407970786,-0.0009473930113017559,-0.001242215745151043
1772700376854848800,6.822848876953125,0.0015206004027277231,-0.0005733082070946693,-0.002089207526296377
1772700376864807000,6.832806884765625,-0.0009414918022230268,-0.00027077319100499153,-0.0009560324251651764
1772700376874763800,6.842763671875,-0.0004321723245084286,-0.0013070912100374699,0.00044837919995188713
1772700376884721000,6.852720947265625,0.00002482626587152481,0.00017868634313344955,-0.001741538057103753
1772700376894678800,6.8626787109375,-0.0006074361735954881,0.0024108001962304115,0.00020132539793848991
1772700376904636000,6.872635986328125,0.00011401413939893246,-0.0033477526158094406,0.0019792518578469753
1772700376914592800,6.8825927734375,0.002181117655709386,0.00009272480383515358,-0.00048737041652202606
1772700376924550700,6.892550537109375,0.00018028472550213337,-0.0005975663661956787,-0.0005520852282643318
1772700376934507800,6.9025078125,0.00128723937086761,-0.00023019686341285706,0.0022600474767386913
1772700376944464600,6.912464599609375,-0.0013080110074952245,0.001073686871677637,0.0015015793032944202
1772700376954422800,6.9224228515625,-0.0008576794061809778,-0.0021317433565855026,-0.003461848944425583
1772700376964380000,6.9323798828125,-0.0004491505678743124,-0.00121268630027771,0.0008471459150314331
1772700376974336800,6.942336669921875,0.0013796137645840645,-0.0004888693802058697,-0.005103812552988529
1772700376984295000,6.952294921875,0.0013417969457805157,0.0005646771751344204,0.0007468857802450657
1772700376994251800,6.962251708984375,-0.0000920100137591362,-0.0005746935494244099,-0.002597703132778406
1772700377004209000,6.972208984375,-0.0009199867490679026,-0.000043126288801431656,0.0010361801832914352
1772700377014166800,6.982166748046875,-0.003196106292307377,-0.0020674983970820904,0.0005752178840339184
1772700377024124000,6.9921240234375,-0.00004798336885869503,-0.0005521597340703011,0.0033752652816474438
1772700377034080800,7.002080810546875,0.002528316807001829,-0.0023691279347985983,0.00024022860452532768
1772700377044038700,7.01203857421875,-0.0004546898417174816,-0.002084170002490282,-0.001192818395793438
1772700377053995800,7.021995849609375,0.003169070929288864,0.0003310912288725376,0.0011098193936049938
1772700377063952600,7.03195263671875,-0.0005931765772402287,0.00039234384894371033,0.00242648646235466
1772700377073910800,7.041910888671875,-0.0021136042196303606,-0.00033010169863700867,0.00029366975650191307
1772700377083868000,7.051867919921875,0.0021506494376808405,-0.0027088369242846966,-0.004218790214508772
1772700377093825800,7.06182568359375,0.0009200619533658028,0.0009123650379478931,0.00033735763281583786
1772700377103783000,7.071782958984375,-0.0014927620068192482,0.0017035906203091145,0.000746685080230236
1772700377113739800,7.08173974609375,-0.0011792185250669718,0.0003990679979324341,0.0003796475939452648
1772700377123697700,7.09169775390625,-0.00024018785916268826,-0.0013953698799014091,-0.0026707369834184647
1772700377133654800,7.10165478515625,0.00005754968151450157,-0.0001232069917023182,0.002184595912694931
1772700377143611600,7.111611572265625,-0.001783227315172553,-0.0018380163237452507,-0.0011400943621993065
1772700377153569800,7.12156982421875,0.0019937774632126093,0.0011428827419877052,-0.000504910945892334
1772700377163526700,7.131526611328125,-0.0017839163774624467,0.001212923787534237,-0.0002585682086646557
1772700377173483800,7.14148388671875,0.0021856091916561127,-0.0030632258858531713,0.002437426708638668
1772700377183442000,7.15144189453125,-0.0010109831346198916,-0.00023095402866601944,0.0005604303441941738
1772700377193398800,7.161398681640625,-0.0003094053827226162,0.0018255561590194702,0.00009908853098750114
1772700377203356000,7.17135595703125,0.0032717473804950714,-0.0008266856893897057,0.0012863255105912685
1772700377213313800,7.181313720703125,0.0021441166754812002,-0.002201405353844166,0.001061275601387024
1772700377223271000,7.19127099609375,0.0026037783827632666,0.00017786258831620216,-0.0009656562469899654
1772700377233227800,7.201227783203125,0.0013945698738098145,-0.0003761798143386841,-0.0016379300504922867
1772700377243185700,7.211185546875,-0.0013934934977442026,0.0002387440763413906,0.0018462836742401123
1772700377253142800,7.221142822265625,-0.0001398376189172268,-0.0014024525880813599,-0.00012081954628229141
1772700377263099600,7.231099609375,0.0005142348818480968,0.0006007771007716656,0.0015071704983711243
1772700377273057800,7.241057861328125,-0.00217122002504766,0.002581649925559759,0.0015121661126613617
1772700377283014700,7.2510146484375,0.0029593599028885365,-0.00007165735587477684,-0.0029632761143147945
1772700377292971800,7.2609716796875,0.0018287647981196642,-0.0007527396082878113,0.0021063764579594135
1772700377302930000,7.270929931640625,0.0018886856269091368,-0.001365266740322113,-0.0012326950673013926
1772700377312886800,7.28088671875,0.0005155319813638926,0.00037201307713985443,-0.003748261369764805
1772700377322844000,7.290843994140625,-0.000027752947062253952,0.000016481149941682816,-0.0014233218971639872
1772700377332801800,7.3008017578125,0.0028159068897366524,-0.00033698277547955513,0.0005249627865850925
1772700377342759000,7.310759033203125,-0.00006297044456005096,-0.00007332954555749893,-0.000056671444326639175
1772700377352715800,7.3207158203125,-0.00162433588411659,0.0002876613289117813,-0.0007655650842934847
1772700377362673700,7.330673583984375,-0.0003766450099647045,-0.001431408803910017,-0.0007858050521463156
1772700377372630800,7.340630859375,0.001328065525740385,0.0014742030762135983,0.0018358235247433186
1772700377382587600,7.350587646484375,-0.00019286572933197021,0.002554114907979965,0.00026455847546458244
1772700377392545800,7.3605458984375,0.0006094537675380707,0.0006657512858510017,-0.0011246667709201574
1772700377402504700,7.370504638671875,0.0008518013637512922,0.001744864508509636,0.0007957387715578079
1772700377412461600,7.380461669921875,-0.000960864475928247,0.00018958933651447296,-0.0013908271212130785
1772700377422419500,7.39041943359375,-0.0025062968488782644,0.0011858781799674034,0.0007697953842580318
1772700377432376600,7.40037646484375,0.0019519804045557976,-0.001136555802077055,-0.00007638148963451385
1772700377442333700,7.410333740234375,0.0006078833248466253,-0.00026277266442775726,-0.0005155366379767656
1772700377452291600,7.42029150390625,0.0006692374590784311,0.0013205772265791893,-0.00009623542428016663
1772700377462248400,7.43024853515625,-0.0018085676711052656,-0.000413672998547554,-0.0026858930941671133
1772700377472205600,7.44020556640625,-0.0009882175363600254,-0.0005679568275809288,0.0006853695958852768
1772700377482163700,7.450163818359375,-0.00035225460305809975,0.0017484603449702263,-0.00460792938247323
1772700377492120600,7.46012060546875,0.0011665213387459517,-0.000478899572044611,0.0007551871240139008
1772700377502077700,7.47007763671875,0.0008187126368284225,-0.0022829247172921896,0.00005371030420064926
1772700377512035600,7.48003564453125,0.0014662935864180326,-0.0013493630103766918,0.0017185653559863567
1772700377521992700,7.48999267578125,0.0013467175886034966,0.00035292934626340866,-0.0004599005915224552
1772700377531949600,7.499949462890625,0.0010486752726137638,-0.001456194557249546,-0.0016692953649908304
1772700377541907500,7.509907470703125,0.001305670477449894,-0.0008713644929230213,-0.0021928728092461824
1772700377551864600,7.519864501953125,-0.0006602507783100009,-0.0034271152690052986,-0.000040596816688776016
1772700377561821700,7.52982177734375,-0.0002663691993802786,0.0026150643825531006,-0.0009452723897993565
1772700377571779600,7.539779541015625,0.00007862783968448639,-0.0010692067444324493,0.003866299521178007
1772700377581736400,7.549736328125,0.0007486790418624878,0.002563877496868372,-0.0013247341848909855
1772700377591693600,7.559693603515625,-0.00041362131014466286,-0.001642096322029829,-0.001434696139767766
1772700377601651700,7.569651611328125,-0.0009675589390099049,-0.0005097202956676483,0.002418098971247673
1772700377611608600,7.579608642578125,0.0005517157260328531,-0.0002910248003900051,0.0003353990614414215
1772700377621565700,7.589565673828125,-0.0006831921637058258,-0.0012598829343914986,-0.0005144157912582159
1772700377631523600,7.599523681640625,-0.00002770894207060337,0.00037483731284737587,0.0020722192712128162
1772700377641480700,7.609480712890625,-0.000588836963288486,0.0005295672453939915,0.003544148523360491
1772700377651437600,7.6194375,-0.0010305069154128432,-0.0005436777137219906,-0.0009721105452626944
1772700377661395500,7.6293955078125,-0.0013309115311130881,0.0013881796039640903,0.0005842405371367931
1772700377671352600,7.6393525390625,-0.0010464433580636978,-0.0003478950820863247,-0.0012944117188453674
1772700377681310700,7.649310791015625,-0.0019154328620061278,0.0024620061740279198,0.0001793815754354
1772700377691267600,7.659267578125,0.001179069047793746,-0.0003317412920296192,0.00047689955681562424
1772700377701224400,7.669224365234375,0.0021452640648931265,-0.00021589361131191254,-0.001205419423058629
1772700377711182600,7.6791826171875,-0.0011630933731794357,0.0016405116766691208,0.00023585977032780647
1772700377721139700,7.6891396484375,0.00014798087067902088,-0.0009448849596083164,0.00010083755478262901
1772700377731096600,7.6990966796875,0.0006547088269144297,-0.0011535868979990482,0.0006034770049154758
1772700377741053700,7.7090537109375,0.0012842800933867693,0.0008730785921216011,0.00009028613567352295
1772700377751011600,7.719011474609375,-0.003020789474248886,0.001226035412400961,-0.002543912036344409
1772700377760968700,7.72896875,-0.0012543146731331944,-0.0004562833346426487,0.00001671724021434784
1772700377770926600,7.738926513671875,-0.00017535733059048653,0.0011066850274801254,0.002332615200430155
1772700377780883500,7.748883544921875,0.002709911437705159,-0.0007641855627298355,0.002886819187551737
1772700377790840600,7.758840576171875,-0.0001242577563971281,0.00016763387247920036,-0.0005669540259987116
1772700377800798700,7.768798828125,-0.0029245715122669935,-0.00017804419621825218,-0.0009927935898303986
1772700377810755600,7.778755615234375,0.0010132042225450277,-0.0035362911876291037,0.0005620289593935013
1772700377820712400,7.78871240234375,-0.00048295967280864716,-0.0006875079125165939,-0.0018017927650362253
1772700377830670600,7.798670654296875,0.00026744301430881023,0.0015248525887727737,-0.00022408133372664452
1772700377840627700,7.808627685546875,-0.003351792925968766,0.001703816931694746,0.00008138315752148628
1772700377850584600,7.81858447265625,-0.0029845628887414932,-0.0006180694326758385,0.0006973631680011749
1772700377860542500,7.82854248046875,-0.0019137058407068253,-0.00043857237324118614,0.00040548061951994896
1772700377870499600,7.83849951171875,0.0018675746396183968,0.0013716802932322025,0.0019033323042094707
1772700377880456700,7.848456787109375,0.0022247047163546085,0.00029975827783346176,0.0011507230810821056
1772700377890414600,7.85841455078125,-0.0011628881329670548,-0.0011233552359044552,0.0013210843317210674
1772700377900371500,7.868371337890625,0.0016621933318674564,-0.00020829355344176292,0.0012534400448203087
1772700377910328600,7.87832861328125,0.0005680311005562544,-0.0008894689381122589,0.001417804043740034
1772700377920286700,7.88828662109375,-0.0029633205849677324,0.0009995112195611,0.0025176899507641792
1772700377930243600,7.89824365234375,-0.0006759321549907327,-0.00016093207523226738,0.001743328757584095
1772700377940200400,7.908200439453125,-0.0016242838464677334,-0.00007198238745331764,-0.0013688411563634872
1772700377950158600,7.91815869140625,0.0035960227251052856,-0.00022172927856445312,-0.002463584067299962
1772700377960115700,7.92811572265625,-0.0003302756231278181,0.0003199577331542969,-0.0014870029408484697
1772700377970072600,7.938072509765625,-0.00031983875669538975,-0.0002314867451786995,0.0011287513189017773
1772700377980030500,7.948030517578125,0.003290075808763504,0.0003751814365386963,0.000025403685867786407
1772700377989987600,7.957987548828125,0.0005676387809216976,0.0006644641980528831,0.001253355760127306
1772700377999944700,7.96794482421875,-0.000588173046708107,0.0007313094101846218,0.0012642745859920979
1772700378009902600,7.977902587890625,-0.001209839596413076,-0.002349238144233823,-0.001336907735094428
1772700378019859500,7.987859375,-0.0018833531066775322,0.0017616176046431065,-0.0042927502654492855
1772700378029816600,7.997816650390625,0.0017820610664784908,-0.0001130267046391964,-0.000765990698710084
1772700378039774700,8.007774658203125,0.0015730028972029686,0.0020683687180280685,0.0014444328844547272
1772700378049731600,8.017731689453125,0.0001367218792438507,0.0015349304303526878,-0.0026775274891406298
1772700378059688400,8.0276884765625,0.0005111622158437967,-0.0027871134225279093,0.00102932658046484
1772700378069646600,8.037646484375,-0.0004034347366541624,0.0022148839198052883,0.000918880570679903
1772700378079603700,8.047603759765625,0.0010282807052135468,-0.000006725545972585678,-0.0007914011366665363
1772700378089560600,8.057560546875,0.0010463083162903786,0.0016393763944506645,-0.002550794743001461
1772700378099518500,8.0675185546875,0.00020821159705519676,-0.000002728775143623352,-0.0011678151786327362
1772700378109475600,8.0774755859375,-0.0008085821755230427,-0.0028324148152023554,-0.002070255810394883
1772700378119432700,8.0874326171875,-0.0004099069628864527,0.00030159298330545425,0.0011186134070158005
1772700378129390600,8.097390625,-0.00009416323155164719,0.000021305866539478302,0.0033021727576851845
1772700378139347500,8.107347412109375,-0.001236126758158207,-0.001541703473776579,-0.00017644837498664856
1772700378149304600,8.1173046875,0.001353816594928503,-0.001017879694700241,0.0010841847397387028
1772700378159262700,8.1272626953125,-0.00038868957199156284,0.0001672268845140934,-0.0022668708115816116
1772700378169219600,8.137219482421875,-0.0001898657064884901,-0.002389902714639902,0.0013249698095023632
1772700378179176400,8.147176513671875,0.0005251930560916662,-0.0016777734272181988,0.00017981091514229774
1772700378189134600,8.157134521484375,-0.0027745948173105717,0.000841955654323101,0.0015098531730473042
1772700378199091700,8.167091796875,-0.0014944132417440414,0.0006174515001475811,0.0005266140215098858
1772700378209048600,8.177048583984375,-0.00027528032660484314,-0.000348817091435194,-0.0007180769462138414
1772700378219006500,8.18700634765625,0.0007497703190892935,-0.0007466934621334076,0.0006635710597038269
1772700378228963600,8.196963623046875,-0.0028007375076413155,0.00007215328514575958,-0.0007186783477663994
1772700378238920700,8.206920654296875,-0.00010189018212258816,0.0018476825207471848,-0.0003128126263618469
1772700378248878600,8.216878662109375,-0.0005147970514371991,0.0014606681652367115,0.0013026734814047813
1772700378258835500,8.22683544921875,0.0013459536712616682,0.00019832979887723923,0.0007953410968184471
1772700378268792600,8.23679248046875,-0.002170392544940114,-0.000395139679312706,-0.0016314114909619093
1772700378278750700,8.246750732421875,-0.0022678642999380827,0.00010926323011517525,-0.0015994533896446228
1772700378288707600,8.25670751953125,0.0011767141986638308,0.003575162496417761,0.0036798096261918545
1772700378298664400,8.26666455078125,0.0008379602804780006,0.0008821738883852959,0.0009087906219065189
1772700378308622600,8.27662255859375,-0.0005584111204370856,-0.00006111059337854385,-0.0026430832222104073
1772700378318579700,8.286579833984375,0.0004839501343667507,0.0008267872035503387,0.0008507175371050835
1772700378328536600,8.29653662109375,-0.000740102375857532,0.000640474259853363,0.001033460721373558
1772700378338494500,8.306494384765625,-0.0014610200887545943,0.00015790946781635284,0.0022790213115513325
1772700378348451600,8.31645166015625,0.0007488047704100609,-0.0005434821359813213,-0.00197706394828856
1772700378358408700,8.32640869140625,0.0013895612210035324,-0.0015466948971152306,0.0011449595913290977
1772700378368366600,8.33636669921875,0.004237740766257048,-0.000818401575088501,-0.0002737692557275295
1772700378378323500,8.346323486328124,-0.0010989675065502524,-0.0008745943196117878,0.0007454222068190575
1772700378388280600,8.356280517578124,-0.0012970188399776816,-0.0014863545075058937,-0.001199051970615983
1772700378398238700,8.36623876953125,0.002058564219623804,-0.0013353531248867512,-0.001305844634771347
1772700378408195300,8.3761953125,-0.0016976225888356566,-0.0005710460245609283,0.000822652131319046
1772700378418152200,8.386152099609374,0.0016478404868394136,-0.0015843790024518967,0.0018194732256233692
1772700378428110000,8.396110107421874,-0.0007395172724500299,-0.0022154543548822403,-0.001131461700424552
1772700378438067200,8.406067138671874,0.0006373368669301271,-0.0010508541017770767,0.001945288386195898
1772700378448025300,8.416025390625,0.00007771770469844341,-0.0018505929037928581,0.0028878329321742058
1772700378457982200,8.425982177734374,-0.00040537980385124683,0.0011867424473166466,0.0008734180592000484
1772700378467939000,8.43593896484375,0.00220880308188498,0.0003307592123746872,-0.0012180767953395844
1772700378477897200,8.445897216796874,-0.0014799414202570915,0.0012847036123275757,-0.0005940981209278107
1772700378487854300,8.455854248046874,0.0006452430970966816,0.0003689141012728214,-0.0008372317533940077
1772700378497811200,8.465811279296876,0.0023174420930445194,-0.00031418632715940475,-0.001551225082948804
1772700378507769000,8.47576904296875,0.0016354029066860676,-0.000791686587035656,-0.001851067179813981
1772700378517726200,8.485726318359376,-0.0016280345153063536,-0.0017600120045244694,0.0023982725106179714
1772700378527683300,8.495683349609376,0.0010125816334038973,0.0006094956770539284,0.00007558334618806839
1772700378537641200,8.50564111328125,0.0013201767578721046,0.003662277013063431,-0.0026554884389042854
1772700378547598000,8.51559814453125,0.0016010133549571037,-0.0019872384145855904,0.0012002969160676003
1772700378557555200,8.52555517578125,0.00007661990821361542,0.002596860285848379,0.0006767194718122482
1772700378567513300,8.535513427734376,0.002823502290993929,-0.00023284275084733963,0.0060298810712993145
1772700378577470200,8.54547021484375,0.0021009864285588264,0.001519251149147749,-0.00003307126462459564
1772700378587427000,8.555427001953126,-0.0004684699233621359,-0.0008459095843136311,-0.0014040598180145025
1772700378597385200,8.56538525390625,-0.003316454356536269,-0.0002333824522793293,0.00022259913384914398
1772700378607342300,8.57534228515625,0.00041490234434604645,-0.0018561230972409248,-0.0002748463302850723
1772700378617299200,8.58529931640625,-0.0016823371406644583,0.00023392587900161743,0.00003141723573207855
1772700378627257000,8.595257080078126,-0.003654640167951584,0.00013192184269428253,0.0009519560262560844
1772700378637214200,8.605214111328126,-0.0006165062077343464,0.0002363179810345173,-0.0012502118479460478
1772700378647171300,8.61517138671875,-0.00007572607137262821,-0.00044131698086857796,0.0014376402832567692
1772700378657129200,8.625129150390626,0.0014470694586634636,-0.0010386640205979347,-0.001054279739037156
1772700378667086000,8.635086181640625,0.0009640667121857405,0.0010555414482951164,-0.002484337892383337
1772700378677043200,8.645043212890625,0.00040347129106521606,0.002483528573065996,0.002005218993872404
1772700378687001300,8.65500146484375,-0.00009669316932559013,0.000055202748626470566,0.0006610718555748463
1772700378696958200,8.664958251953125,-0.001765962690114975,0.0014530960470438004,-0.0004129810258746147
1772700378706915000,8.6749150390625,0.0028572692535817623,0.0016199401579797268,0.0012437435798346996
1772700378716873200,8.684873291015625,0.001333674881607294,0.0003807717002928257,-0.0006580196786671877
1772700378726830300,8.694830322265625,0.0008443922270089388,0.0014573377557098866,0.0002485746517777443
1772700378736787200,8.704787109375,0.0006060393061488867,0.00008980464190244675,-0.0028276429511606693
1772700378746745000,8.7147451171875,-0.0008217307040467858,0.00007243221625685692,-0.0002644718624651432
1772700378756702200,8.7247021484375,-0.0020073698833584785,0.0025792657397687435,-0.0003430349752306938
1772700378766659300,8.734659423828125,0.0005572033114731312,-0.00042920373380184174,-0.0016055393498390913
1772700378776617200,8.7446171875,0.0012094115372747183,0.0005942494608461857,-0.0017594699747860432
1772700378786574000,8.754573974609375,-0.00022319448180496693,0.0029049357399344444,-0.0030716131441295147
1772700378796531200,8.76453125,0.0008266235236078501,-0.001269036903977394,0.0007699965499341488
1772700378806489300,8.7744892578125,-0.00044523761607706547,-0.0016287397593259811,0.001743778120726347
1772700378816446200,8.7844462890625,0.0003217528574168682,-0.0014095613732933998,-0.002285584807395935
1772700378826403000,8.794403076171875,-0.00081618782132864,0.0016142521053552628,-0.0018589731771498919
1772700378836361200,8.804361328125,-0.0012239177012816072,0.000008898787200450897,-0.001951118465512991
1772700378846318300,8.814318359375,0.0016633938066661358,-0.0009563141502439976,-0.0020945200230926275
1772700378856275200,8.824275146484375,-0.0005217297002673149,0.0014788801781833172,-0.001291576772928238
1772700378866233000,8.834233154296875,-0.00067327287979424,-0.00034182751551270485,-0.00023774243891239166
1772700378876190200,8.844190185546875,0.00029931357130408287,-0.0009410390630364418,-0.002399164019152522
1772700378886147300,8.854147216796875,0.000975143862888217,-0.0028643610421568155,-0.00043460563756525517
1772700378896105200,8.864105224609375,0.0012928589712828398,-0.0003141178749501705,0.00342431478202343
1772700378906062000,8.87406201171875,0.00050697335973382,-0.0019561382941901684,0.0010605081915855408
1772700378916019200,8.884019287109375,0.000016418984159827232,0.00009529478847980499,0.00009271549060940742
1772700378925977300,8.893977294921875,0.00045721884816884995,0.0031184586696326733,-0.0021042400039732456
1772700378935934200,8.903934326171875,-0.0008474636124446988,-0.0007228846661746502,-0.0013167434372007847
1772700378945891000,8.91389111328125,0.0009013314265757799,0.0010003489442169666,-0.0006471062079071999
1772700378955849200,8.92384912109375,0.00046111084520816803,0.00013428926467895508,0.0017207101918756962
1772700378965806300,8.933806396484375,-0.0009229350835084915,0.00006643915548920631,-0.0011363949161022902
1772700378975763200,8.94376318359375,-0.0007333179237321019,0.0009564673528075218,-0.0009015041869133711
1772700378985721000,8.95372119140625,0.0005115156527608633,-0.00032137753441929817,-0.0025945808738470078
1772700378995678200,8.96367822265625,0.0018377697560936213,-0.0003136545419692993,0.0013564848341047764
1772700379005635300,8.97363525390625,0.0022617450449615717,-0.00008861720561981201,-0.001348221441730857
1772700379015593200,8.98359326171875,-0.00029142736457288265,-0.00115974061191082,-0.0013847067020833492
1772700379025550000,8.993550048828125,0.001431268872693181,-0.00006970716640353203,0.0014857873320579529
1772700379035507200,9.003507080078125,-0.0005376061890274286,-0.0010050092823803425,0.004368126858025789
1772700379045465300,9.01346533203125,0.003274663584306836,0.0007620016112923622,-0.0010952050797641277
1772700379055422200,9.023422119140625,0.0009316143114119768,0.00026691984385252,-0.0011109178885817528
1772700379065379000,9.033379150390624,0.00032261828891932964,-0.00166232418268919,-0.0013880881015211344
1772700379075337200,9.043337158203125,0.001837424235418439,-0.0017928192391991615,-0.0010661117266863585
1772700379085294300,9.05329443359375,-0.0005565077299252152,-0.001529153436422348,-0.00006429245695471764
1772700379095251200,9.063251220703124,-0.0018316293135285378,0.0010266820900142193,-0.0010262259747833014
1772700379105209000,9.073208984375,-0.0011043528793379664,-0.0017877514474093914,0.00016312440857291222
1772700379115166200,9.083166259765624,-0.000019381055608391762,0.0005624881014227867,-0.001656081061810255
1772700379125123300,9.093123291015624,-0.0011102099670097232,0.0002675577998161316,-0.0033601918257772923
1772700379135081200,9.103081298828124,0.0022863855119794607,0.0014310930855572224,-0.000039762817323207855
1772700379145038000,9.1130380859375,-0.0007110894657671452,0.001180464867502451,-0.0004003550857305527
1772700379154995200,9.1229951171875,-0.00266505079343915,0.0019993865862488747,0.001266517210751772
1772700379164953300,9.132953369140624,0.001969748642295599,-0.00019005220383405685,-0.0005834596231579781
1772700379174910200,9.14291015625,0.0008948966860771179,-0.0023586642928421497,-0.00021061720326542854
1772700379184867000,9.1528671875,0.0011427481658756733,-0.0014584939926862717,0.001417266670614481
1772700379194825200,9.1628251953125,-0.0009275932097807527,-0.00021293340250849724,0.0005898228846490383
1772700379204782300,9.1727822265625,0.00043046544305980206,0.00144929438829422,-0.0015452736988663673
1772700379214739200,9.1827392578125,-0.000988733023405075,-0.0014250553213059902,0.0004078885540366173
1772700379224697000,9.192697021484374,0.0001164895948022604,0.00005743931978940964,-0.00007268739864230156
1772700379234654200,9.202654296875,0.0037977772299200296,-0.001589193008840084,0.001973419450223446
1772700379244611300,9.212611328125,0.0019871126860380173,0.00006232829764485359,0.00030354876071214676
1772700379254569200,9.2225693359375,0.0007077304180711508,-0.001392024103552103,0.0021765497513115406
1772700379264526000,9.232526123046876,0.00002745678648352623,0.00011971499770879745,0.0010485267266631126
1772700379274483200,9.242483154296876,-0.00005723186768591404,0.0005058734677731991,0.002226708922535181
1772700379284441300,9.25244140625,0.0018443050794303417,-0.0008852914907038212,0.0006671338342130184
1772700379294398200,9.262398193359376,-0.001110206008888781,-0.00039127515628933907,0.00028550252318382263
1772700379304355000,9.27235498046875,0.00013956078328192234,-0.001962405163794756,0.0018649599514901638
1772700379314313200,9.282313232421876,0.0015033655799925327,0.00013510044664144516,0.0002990211360156536
1772700379324270300,9.292270263671876,0.00039220694452524185,-0.0008286242373287678,-0.001153542660176754
1772700379334227200,9.302227294921876,0.0005735682789236307,-0.0012456756085157394,-0.0003370172344148159
1772700379344185000,9.31218505859375,-0.0008853863691911101,0.001443191897124052,-0.0019558491185307503
1772700379354142200,9.32214208984375,0.0009364821016788483,0.0017963270656764507,0.00012780819088220596
1772700379364099300,9.332099365234376,-0.0015532709658145905,-0.000581313855946064,-0.0008559823036193848
1772700379374057200,9.34205712890625,0.002321362029761076,-0.00020527560263872147,0.0012646927498281002
1772700379384014000,9.35201416015625,0.0016336941625922918,-0.0006681308150291443,0.0029589496552944183
1772700379393971200,9.36197119140625,0.0011612491216510534,-0.0022622989490628242,0.0022247163578867912
1772700379403929300,9.371929443359376,0.002643018029630184,-0.0005843020044267178,0.0018755961209535599
1772700379413886000,9.381885986328125,-0.0014486624859273434,-0.0029489228036254644,-0.0005971486680209637
1772700379423842800,9.3918427734375,0.001815123949199915,0.00009737350046634674,-0.0004553161561489105
1772700379433800700,9.40180078125,0.002272921148687601,-0.0022049294784665108,0.001591057050973177
1772700379443757800,9.4117578125,0.0011957923416048288,0.002644204068928957,-0.0007206890732049942
1772700379453715000,9.42171484375,0.0005510409828275442,-0.0015880917198956013,0.002165644895285368
1772700379463672800,9.4316728515625,0.0012050727382302284,0.0019290582276880741,-0.000023552216589450836
1772700379473629700,9.441629638671875,0.0015584740322083235,-0.00208299420773983,0.0009716711938381195
1772700379483586800,9.4515869140625,-0.001968355616554618,-0.0002712956629693508,0.0025940733030438423
1772700379493544700,9.461544677734375,-0.0010543587850406766,0.0008216658607125282,-0.0023532810155302286
1772700379503501800,9.471501708984375,0.003234190633520484,0.0010459674522280693,-0.0005910817999392748
1772700379513458700,9.481458740234375,0.00121737876906991,0.001648907084017992,-0.0009543369524180889
1772700379523416800,9.491416748046875,0.0007685860618948936,0.00044598476961255074,-0.0014750680420547724
1772700379533374000,9.5013740234375,0.0025446482468396425,-0.002274434082210064,0.0009404188022017479
1772700379543330600,9.51133056640625,0.0010682467836886644,0.0005626208148896694,0.0007538227364420891
1772700379553288700,9.521288818359375,0.00007328996434807777,-0.00018839025869965553,-0.000844073947519064
1772700379563245800,9.531245849609375,-0.0012562480987980962,0.0012521715834736824,-0.001221698708832264
1772700379573203000,9.541202880859375,0.0016886754892766476,0.0016452539712190628,0.0016478574834764004
1772700379583160800,9.551160888671875,0.0005140022840350866,0.0015544029884040356,-0.00008055334910750389
1772700379593117700,9.56111767578125,0.002563304966315627,0.0011285636574029922,0.00047871051356196404
1772700379603075800,9.571075927734375,0.0019227336160838604,-0.0014919093810021877,0.00039539113640785217
1772700379613032700,9.58103271484375,0.00024307775311172009,0.00020798621699213982,0.0006595766171813011
1772700379622989800,9.59098974609375,0.0011602300219237804,-0.0012153522111475468,0.00035471701994538307
1772700379632947700,9.60094775390625,-0.0009447324555367231,-0.003031361848115921,-0.0004974948242306709
1772700379642904800,9.61090478515625,0.004306513350456953,0.00003608688712120056,0.0013387147337198257
1772700379652862000,9.620862060546875,-0.0009060917655006051,-0.0014598104171454906,0.0009379088878631592
1772700379662819800,9.63081982421875,0.00006944662891328335,0.002673302311450243,0.0018348842859268188
1772700379672776700,9.640776611328125,-0.001364665455184877,0.0006482345052063465,-0.000494316453114152
1772700379682733800,9.65073388671875,0.0005035316571593285,0.0007940712384879589,-0.0012737601064145565
1772700379692691700,9.660691650390625,-0.0006706559797748923,-0.00013324152678251266,-0.00007240800186991692
1772700379702648800,9.67064892578125,-0.00034210016019642353,-0.001472386997193098,-0.004161606077104807
1772700379712605700,9.680605712890625,-0.0016108301933854818,-0.00019327085465192795,0.00010637613013386726
1772700379722563800,9.690563720703125,-0.0009245476685464382,-0.0010802624747157097,-0.0006178100593388081
1772700379732520700,9.700520751953125,-0.0016864780336618423,0.000359442550688982,-0.00006067659705877304
1772700379742477800,9.710477783203125,0.0002819348592311144,-0.0014645750634372234,0.00014712847769260406
1772700379752435700,9.720435791015625,0.0018084587063640356,-0.0020185126923024654,0.0021974961273372173
1772700379762392800,9.730392822265625,0.001221060985699296,-0.0018561100587248802,0.002650999929755926
1772700379772350000,9.740349853515625,-0.0011930944165214896,-0.00034742942079901695,-0.0026058137882500887
1772700379782307800,9.750307861328125,-0.002521644812077284,0.0013874084688723087,0.0010611768811941147
1772700379792264700,9.7602646484375,0.0007732179947197437,-0.0008182213641703129,0.000692861620336771
1772700379802221800,9.770221923828124,-0.0014683345798403025,0.0012418180704116821,-0.001986393006518483
1772700379812179700,9.7801796875,0.001817207084968686,0.00012728525325655937,-0.0005924946162849665
1772700379822136800,9.79013671875,0.0007033695001155138,-0.0019072056747972965,-0.000023523811250925064
1772700379832093700,9.80009375,0.002988361520692706,-0.001247540581971407,0.0012718378566205502
1772700379842051800,9.8100517578125,-0.0011566081084311008,0.001715350430458784,-0.0014404207468032837
1772700379852008700,9.8200087890625,0.0007254478987306356,0.001446370966732502,-0.0003722268156707287
1772700379861965800,9.8299658203125,-0.00001891353167593479,0.0010400605387985706,-0.0017175083048641682
1772700379871923700,9.839923828125,-0.00175369658973068,-0.0018444093875586987,0.0005182153545320034
1772700379881880800,9.849880859375,0.0005741037894040346,0.0012256628833711147,0.00042233243584632874
1772700379891838000,9.859837890625,0.0020223306491971016,-0.00023614615201950073,-0.0011406766716390848
1772700379901795800,9.8697958984375,0.0015423442237079144,0.0008142655715346336,0.0007811053656041622
1772700379911752700,9.879752685546874,0.000735672889277339,-0.0011926922015845776,-0.0015725966077297926
1772700379921709800,9.889709716796874,-0.0005349984858185053,0.0013772514648735523,-0.00012076972052454948
1772700379931667700,9.899667724609374,0.0015188311226665974,0.0006731119938194752,0.000012388452887535095
1772700379941624800,9.909624755859374,-0.000672289403155446,-0.000793043989688158,-0.0002509164623916149
1772700379951581700,9.919581787109376,0.0012971181422472,-0.0011163516901433468,0.0010082260705530643
1772700379961539800,9.929539794921874,0.0017608776688575745,0.0004637804813683033,0.0021984237246215343
1772700379971496700,9.93949658203125,0.0027161533944308758,-0.0010526236146688461,0.0006106467917561531
1772700379981453800,9.949453857421876,-0.0003939454909414053,0.0004789312370121479,-0.0026880227960646152
1772700379991411700,9.95941162109375,0.00166973820887506,-0.0004968512803316116,-0.0017114419024437666
1772700380001368800,9.969368896484376,-0.0011343242367729545,-0.0005593486130237579,0.0006095557473599911
1772700380011326000,9.979325927734376,0.0005695661529898643,0.0001842062920331955,0.0010090298019349575
1772700380021283800,9.989283935546876,0.004146185703575611,-0.0012913341633975506,0.0014294045977294445
1772700380031240700,9.99924072265625,-0.0005947735626250505,0.0016506602987647057,-0.001926178578287363
1772700380041197800,10.00919775390625,0.0012905329931527376,-0.0019738059490919113,-0.0014369029086083174
1772700380051155700,10.01915576171875,0.0017616462428122759,0.0022286619059741497,-0.0006661841180175543
1772700380061112800,10.02911279296875,-0.0007238616235554218,0.0012949281372129917,0.00019822781905531883
1772700380071069700,10.039069580078126,-0.0007590153254568577,-0.0011900672689080238,0.001751383300870657
1772700380081027800,10.04902783203125,-0.000288097420707345,0.00205034576356411,-0.00018812855705618858
1772700380090984700,10.058984619140626,0.000010176561772823334,0.0003906642086803913,-0.0012118476442992687
1772700380100941800,10.06894189453125,0.0007483330555260181,0.001121374312788248,-0.0014878481160849333
1772700380110899700,10.078899658203126,-0.0017790067940950394,0.0015192506834864616,-0.0002758437767624855
1772700380120856800,10.08885693359375,-0.000393520575016737,0.0008270526304841042,-0.000649117399007082
1772700380130814000,10.09881396484375,0.0009969158563762903,0.0004946901462972164,0.0014230883680284023
1772700380140771800,10.108771728515626,0.00029887864366173744,0.0007993639446794987,0.002214116510003805
1772700380150728700,10.118728759765625,-0.0008207142818719149,0.0013170824386179447,0.0009230156429111958
1772700380160685800,10.128685791015625,-0.00068197853397578,-0.0006872876547276974,0.0001705237664282322
1772700380170643700,10.138643798828125,-0.0015472396044060588,-0.0005749021656811237,0.0006392402574419975
1772700380180600800,10.148600830078125,-0.0006707445718348026,-0.00009553320705890656,0.0014664777554571629
1772700380190557700,10.1585576171875,-0.0001908428966999054,0.0006610709242522717,0.0014539607800543308
1772700380200515800,10.168515869140625,0.0024802028201520443,-0.0009929179213941097,-0.0008221110329031944
1772700380210472700,10.17847265625,-0.0007888274267315865,0.0006454586982727051,0.00035900063812732697
1772700380220429800,10.188429931640625,-0.0030784003902226686,0.024891149252653122,0.01743350736796856
1772700380230387700,10.1983876953125,0.0027600477915257215,-0.005772486794739962,-0.0027870750054717064
1772700380240344800,10.2083447265625,-0.0006191344000399113,-0.005427542608231306,-0.001906735124066472
1772700380250302000,10.218302001953125,-0.0007104807300493121,-0.005277340300381184,-0.0051086535677313805
1772700380260259800,10.228259765625,-0.0011753708822652698,-0.0006581293419003487,-0.0016326066106557846
