time,seconds_elapsed,z,y,x
1772537554576701400,0.077701416015625,0.5186988796889782,-0.3213578599900007,-0.2891068647265434
1772537554586769700,0.087769775390625,0.3474088315695524,-0.5971493160694837,-0.036332364559266715
1772537554596837600,0.097837646484375,0.21227204684913156,-0.6791121444851159,0.04811948136023711
1772537554606904600,0.107904541015625,0.18360943146646022,-0.6528805556416512,-0.010831336746364831
1772537554616972500,0.11797265625,0.05294599276781082,-0.6474158604949712,-0.06520758151300252
1772537554627040500,0.12804052734375,-0.09403086735010147,-0.5915472582787275,-0.07699586279117501
1772537554637107500,0.138107421875,-0.13596855936944485,-0.5283867454886436,-0.08738865285664796
1772537554647175400,0.148175537109375,-0.16929975108504294,-0.48390755229294297,-0.009102896956229232
1772537554657243400,0.158243408203125,-0.2104243731558323,-0.412556134262681,0.04384655784796923
1772537554667310600,0.168310546875,-0.07754618101716042,-0.3361146996170282,0.09219422650747
1772537554677378300,0.17837841796875,0.1185375320971012,-0.31033669975996014,0.21800299171656368
1772537554687445500,0.188445556640625,0.17502572751641274,-0.20361703122854233,0.34021895659808066
1772537554697513500,0.198513427734375,0.10890694944262504,-0.07937865714132786,0.2403176445783116
1772537554707581400,0.20858154296875,0.1791571282327175,0.05005611654520035,0.12515781788653693
1772537554717648400,0.2186484375,0.222174432182312,0.052637365210056304,0.184181203472428
1772537554727716400,0.22871630859375,0.25870120506882666,0.0634299773812294,0.3078649758841842
1772537554737784300,0.238784423828125,0.5215531000763177,0.16658523142933845,0.44497207429688423
1772537554747851300,0.248851318359375,0.9108125299036502,0.15455109476447104,0.5943631194170564
1772537554757919500,0.25891943359375,1.2367606402933597,0.07782207534909248,0.7688827240422368
1772537554767987500,0.268987548828125,1.292176822566986,0.02023497877717018,0.838506222301349
1772537554778054400,0.279054443359375,1.3215385261297226,0.130201666405797,0.7875552758082747
1772537554788122400,0.289122314453125,1.306677057084441,0.21248539733886718,0.9107749013070017
1772537554798190600,0.299190673828125,1.2303951969146727,0.08543898009359836,1.0606256363607942
1772537554808257500,0.309257568359375,1.1108248146384954,-0.13097791147530077,1.0193375673566012
1772537554818325500,0.319325439453125,0.8817536086797714,-0.2706570158004761,0.8223396620068698
1772537554828393500,0.3293935546875,0.6468985586225986,-0.2882189759761095,0.6213483031067997
1772537554838460400,0.33946044921875,0.39326924999058244,-0.23904665652811527,0.41749004700090736
1772537554848528400,0.3495283203125,0.1525397549420595,-0.167540924718976,0.19809015756584702
1772537554858595300,0.35959521484375,0.05753799673318863,-0.0836859989464283,0.10567843411648645
1772537554868663600,0.36966357421875,0.09398702820837497,-0.10454349353611468,0.21580646805297582
1772537554878731500,0.3797314453125,0.15056523999869822,-0.22668284951746462,0.37616873331423845
1772537554888798500,0.389798583984375,0.21747429166734217,-0.36083120772242544,0.5050036414114758
1772537554898866400,0.399866455078125,0.2800935371875763,-0.4592985962152481,0.6769952253963798
1772537554908934700,0.4099345703125,0.27648820617198944,-0.5530559073209762,0.7764671147566288
1772537554919001600,0.420001708984375,0.2107236483633518,-0.5651525878280401,0.8016098854500799
1772537554929069600,0.430069580078125,0.12560264817774294,-0.4748725974440574,0.7014826739862561
1772537554939137500,0.440137451171875,-0.010388707545399665,-0.3442079897016287,0.4753278669308871
1772537554949204500,0.45020458984375,-0.14248188678622245,-0.18946341819167137,0.29960222925050184
1772537554959272400,0.4602724609375,-0.1729302165418863,-0.06433657083213329,0.19656229041144252
1772537554969340700,0.470340576171875,-0.189374570864439,-0.05381050064265728,0.19418405350539833
1772537554979407600,0.48040771484375,-0.17508184161782264,-0.05224222841262817,0.25677014567470174
1772537554989475600,0.4904755859375,-0.06376783103346824,-0.024120880299806594,0.3302109554659575
1772537554999542500,0.50054248046875,0.09393149862885475,-0.059687283721566196,0.43827261319085953
1772537555009610500,0.510610595703125,0.2518324883431196,-0.09638356795608997,0.5948344267232343
1772537555019678700,0.5206787109375,0.39153555806577206,-0.1393938576430082,0.705302232274413
1772537555029745700,0.53074560546875,0.4761819264769554,-0.2164718366265297,0.7797254589654504
1772537555039813600,0.540813720703125,0.4701408927470445,-0.2626777074843645,0.7483183671802282
1772537555049881300,0.55088134765625,0.32242753504812716,-0.2660422154814005,0.5913137783164159
1772537555059948500,0.560948486328125,0.19016133732795715,-0.24238427651822567,0.5173108593966812
1772537555070016500,0.5710166015625,0.0656605129122734,-0.2625637257158756,0.4636003485297784
1772537555080084500,0.58108447265625,0.002874678653478622,-0.32440497260093687,0.3539557324623689
1772537555090151400,0.5911513671875,0.011102408772706985,-0.4256739745110273,0.19453288520937784
1772537555100219400,0.601219482421875,0.0715560006916523,-0.49730947017967697,0.09202205741149373
1772537555110287400,0.611287353515625,0.05392565145492553,-0.5224152698636054,0.07449897707467898
1772537555120354300,0.621354248046875,-0.06521686079800129,-0.4920768302232027,0.1102882659994997
1772537555130422500,0.631422607421875,-0.277169758695364,-0.44475919873118397,0.0838865264872089
1772537555140490500,0.641490478515625,-0.43664311229288577,-0.3036883477866649,0.12605645635984838
1772537555150557400,0.651557373046875,-0.5335860676974058,-0.2086591170489788,0.269781548140198
1772537555160625400,0.66162548828125,-0.6165665487229823,-0.21171675105392931,0.3431207059215754
1772537555170693400,0.671693359375,-0.7512567587196827,-0.25027415298521516,0.24253944881362838
1772537555180760300,0.68176025390625,-0.9482803830325603,-0.2733002237856388,-0.013608516691986004
1772537555190828500,0.69182861328125,-1.0881196463555096,-0.25039397997260093,-0.2552267704239115
1772537555200895500,0.7018955078125,-1.0962953540265559,-0.24259353535473346,-0.29283004996813833
1772537555210963500,0.71196337890625,-0.9585866729915141,-0.2785509839206934,-0.16586696362476794
1772537555221031400,0.722031494140625,-0.7353565942764282,-0.2842021415501833,0.08954529203441924
1772537555231098400,0.732098388671875,-0.515593899410963,-0.2639379366785288,0.34233467011041935
1772537555241166600,0.74216650390625,-0.32204058155715465,-0.16234744772911072,0.435206320955418
1772537555251235000,0.752235107421875,-0.1982756702005863,-0.052476621690392494,0.43506512238644063
1772537555261302000,0.762302001953125,-0.18316344126462936,-0.02807809349298477,0.3068493691008538
1772537555271370000,0.772369873046875,-0.2133259398162365,0.03297112623155117,0.07219630788918584
1772537555281438000,0.78243798828125,-0.23129706531465052,0.15785773509442805,-0.2799961412277073
1772537555291505000,0.7925048828125,-0.19226853874027727,0.3474322124451399,-0.6191822841793299
1772537555301573000,0.802572998046875,-0.11282149253785609,0.5761041899532079,-0.8608104085680097
1772537555311641000,0.81264111328125,-0.0002069207489490509,0.7453320448458194,-0.9051492434449493
1772537555321708000,0.8227080078125,0.09406710770726204,0.8416144905149936,-0.7485306216914206
1772537555331776000,0.83277587890625,0.17328560585081576,0.9536001167505979,-0.46626280920468266
1772537555341844000,0.842843994140625,0.2754652928650379,1.0126455954372882,-0.12490265581537968
1772537555351911000,0.852910888671875,0.3734825995028019,0.9761088856786488,0.17729701518295332
1772537555361979000,0.862978759765625,0.44411154847741124,0.93530048995018,0.30311913306396454
1772537555372046000,0.873046142578125,0.43447921225726605,0.8685358151882886,0.3420648401930928
1772537555382114000,0.883114013671875,0.3474515016674995,0.7427770996659994,0.293313413038291
1772537555392181800,0.893181640625,0.26701953608095647,0.65062605471313,0.12108606580244377
1772537555402249000,0.9032490234375,0.1990606830984354,0.5939034660160541,-0.06071557645653374
1772537555412317000,0.91331689453125,0.13021394136548042,0.5174000720500945,-0.21055431967843322
1772537555422385000,0.923385009765625,0.04197743950784206,0.4296183282226324,-0.3700797687893733
1772537555432451800,0.933451904296875,-0.0050385786890983575,0.3495382448136806,-0.40070751023255285
1772537555442519800,0.943519775390625,0.01194178220629692,0.18616028499305248,-0.37032837325558066
1772537555452587800,0.953587890625,0.04227671471536159,-0.01937105542421341,-0.40173824151977894
1772537555462654700,0.96365478515625,0.022401216900348662,-0.18436638731360436,-0.5092565861482173
1772537555472723000,0.973722900390625,-0.07590718163847923,-0.28182722911238667,-0.61043279520832
1772537555482791000,0.983791015625,-0.21767712076306342,-0.3402607133805752,-0.6929905207771807
1772537555492857900,0.99385791015625,-0.34626083057820795,-0.34530630633234977,-0.7707303977355361
1772537555502925800,1.00392578125,-0.49884617822766303,-0.28374972160756584,-0.8403530192118137
1772537555512994000,1.013994140625,-0.6021919864118099,-0.17305998040139675,-0.8736657984878867
1772537555523061000,1.02406103515625,-0.6418348454922437,-0.08688567177057266,-0.8573647981587796
1772537555533129000,1.03412890625,-0.6230132406443357,0.0025116905599832534,-0.7964731801487505
1772537555543196000,1.04419580078125,-0.5282563971072435,0.11892039393484592,-0.7149310613632202
1772537555553263900,1.054263916015625,-0.3891179755300283,0.2365092470049858,-0.6282801481965928
1772537555563331800,1.064331787109375,-0.14796937828660012,0.3229144417822361,-0.5003525276700035
1772537555573398800,1.074398681640625,0.09568447977602482,0.35094577352404593,-0.33986305583249776
1772537555583467000,1.084467041015625,0.3323690833479166,0.34296120451092715,-0.1650193338194862
1772537555593535000,1.094534912109375,0.6088777477860451,0.3144657623887062,0.03684351068548858
1772537555603602000,1.104601806640625,0.8533388305783272,0.26516251003742214,0.2108795330448076
1772537555613670000,1.114669921875,1.028974214425683,0.26353110944330693,0.3109870899600908
1772537555623738000,1.124738037109375,1.194633563181758,0.2374117488026619,0.36565709350891407
1772537555633805000,1.13480517578125,1.357364457270503,0.1795803220808506,0.4156206729324534
1772537555643873000,1.144873046875,1.4552064073413609,0.0878729292422533,0.4254349050581455
1772537555653941000,1.15494091796875,1.5008341860502958,-0.012905074280500412,0.3389899262597784
1772537555664008000,1.165008056640625,1.5246043532162903,-0.048662616360187524,0.27132165372166783
1772537555674076000,1.175075927734375,1.5383493854522705,-0.11175357104539871,0.23106524758646263
1772537555684144000,1.18514404296875,1.4267279163539408,-0.18083412153422831,0.16739828311158342
1772537555694211000,1.195211181640625,1.217039456257224,-0.198432906588912,-0.0031128073914442208
1772537555704279000,1.205279052734375,1.0541372972548007,-0.2265139226913452,-0.11315570206143892
1772537555714346000,1.215345947265625,0.9161913003325461,-0.3253448837995529,-0.09147438780032098
1772537555724414000,1.2254140625,0.6910895825266837,-0.4449164351195097,-0.14628203712101093
1772537555734482200,1.235482177734375,0.4390905054450035,-0.4320400024116039,-0.3170444903029129
1772537555744549000,1.245549072265625,0.2520721423178911,-0.3846206641107797,-0.4095036148242652
1772537555754617000,1.2556171875,0.1551677653580904,-0.42697862736880776,-0.3376138521336019
1772537555764684800,1.265684814453125,0.11234861432909965,-0.48878947911560533,-0.20317911473531275
1772537555774752000,1.275751953125,0.10227905573546886,-0.45992578820288177,-0.09794748367141
1772537555784820000,1.285820068359375,0.008816343662142753,-0.4051981727153063,-0.0925062059329357
1772537555794888000,1.295887939453125,-0.21558511691987514,-0.3493202181488275,-0.290278465789184
1772537555804955000,1.305954833984375,-0.3016413521289825,-0.27392215507626533,-0.47486003022342915
1772537555815022800,1.31602294921875,-0.24628303752243516,-0.32302140928804873,-0.5241668262386694
1772537555825090800,1.3260908203125,-0.06618892070055007,-0.3780290107607841,-0.4708358162086457
1772537555835157800,1.33615771484375,0.15595336277782917,-0.3992454017907381,-0.38055399919375776
1772537555845226000,1.34622607421875,0.32633155674934383,-0.4056371486544609,-0.32046956938076765
1772537555855294000,1.3562939453125,0.37247897541821,-0.3974468279361725,-0.396622871267423
1772537555865361000,1.36636083984375,0.4268763360381126,-0.38524376444518565,-0.39549784929286685
1772537555875428900,1.376428955078125,0.4882821141153574,-0.41594402313530443,-0.23770026515414938
1772537555885495800,1.386495849609375,0.575589226168394,-0.413290878278017,-0.025917803336691577
1772537555895563800,1.396563720703125,0.5820628060966729,-0.3704892629057169,0.10647859891769476
1772537555905632000,1.406632080078125,0.37894320299625395,-0.4091045325040817,-0.028302600130974312
1772537555915699000,1.416698974609375,0.13726210631132124,-0.413074605178833,-0.27900154069978744
1772537555925767000,1.426766845703125,-0.09582476502954959,-0.38710429762005805,-0.44170675235800444
1772537555935835000,1.4368349609375,-0.18331717052161692,-0.3127519442081451,-0.4754272721847519
1772537555945901800,1.44690185546875,-0.16506372095048427,-0.31347441326379777,-0.35247966856043783
1772537555955970000,1.456969970703125,0.05389525631666183,-0.4143330808073282,-0.09572050093747675
1772537555966038000,1.4670380859375,0.31640286793112754,-0.5187918186694384,0.1333324204458855
1772537555976105000,1.47710498046875,0.5533259564340114,-0.5107347689419984,0.2285377566691488
1772537555986173000,1.4871728515625,0.7231377486944198,-0.46502048099339005,0.3130812857603654
1772537555996241000,1.497240966796875,0.7881605482250451,-0.4320423404991626,0.4077347054556012
1772537556006307800,1.507307861328125,0.8412176001518964,-0.35649171721339223,0.49756227589696644
1772537556016376000,1.5173759765625,0.7955541656076908,-0.25798282766640185,0.4717041965410113
1772537556026443000,1.527443115234375,0.6063204645186663,-0.17431436437666414,0.23272128943148998
1772537556036511000,1.537510986328125,0.2567810506612062,-0.17251637504398823,-0.2199143052306026
1772537556046579000,1.547578857421875,-0.1491670636385679,-0.1328156482964754,-0.7251366674266755
1772537556056646000,1.55764599609375,-0.5297130256563425,-0.08642097686827183,-1.1853194260653108
1772537556066714000,1.567714111328125,-0.8230062361568212,-0.08745382704734801,-1.5148147806078194
1772537556076782000,1.577781982421875,-1.0133598811864852,-0.0757563749909401,-1.647437098289281
1772537556086849000,1.58784912109375,-1.0987053377777338,-0.004373977300524711,-1.591788422434032
1772537556096917000,1.5979169921875,-1.1396446664094924,0.16599954049587248,-1.4218698087982833
1772537556106985000,1.60798486328125,-1.1809937448859213,0.4367459881454706,-1.1786078726626932
1772537556117052000,1.618052001953125,-1.0468091463238,0.753615304544568,-0.8368682458359747
1772537556127120100,1.6281201171875,-0.7256476856887341,0.9599509470820426,-0.3459797486145049
1772537556137187800,1.638187744140625,-0.36380174796581266,1.0318155753314495,0.13853271076902746
1772537556147255000,1.648255126953125,0.0011982698738574982,1.0869371585726737,0.48827984909303485
1772537556157323000,1.658322998046875,0.34735330199003217,1.1020897195190191,0.756249233244732
1772537556167390000,1.668389892578125,0.6160784729450941,1.001924294936657,0.942603433374688
1772537556177458000,1.6784580078125,0.6696662707477807,0.7926105133712291,0.9834199393443762
1772537556187526000,1.68852587890625,0.4747931024670601,0.5950725097954273,0.8448976038388908
1772537556197593000,1.698593017578125,0.226156195294857,0.4188268850952387,0.7418876034803689
1772537556207660800,1.708660888671875,-0.07665186252593993,0.20813655447959897,0.6893107362858951
1772537556217728800,1.718728759765625,-0.37326165022850033,0.058659109717607495,0.5849004406753927
1772537556227795700,1.728795654296875,-0.6767068369090556,-0.1169476325571537,0.46772667121216654
1772537556237864000,1.738864013671875,-1.0500047274947166,-0.3613789047330618,0.26165753412377085
1772537556247932000,1.748931884765625,-1.4483271692216395,-0.5175906261861324,-0.10484653160329907
1772537556257998800,1.758998779296875,-1.8568255525261164,-0.5707832871913909,-0.598671191874519
1772537556268066800,1.76906689453125,-2.230026996999979,-0.5318915387392044,-1.1764063440304249
1772537556278134800,1.779134765625,-2.493061847358942,-0.3772849143952131,-1.6904975107282398
1772537556288202000,1.789201904296875,-2.5222031861692664,-0.17779226962029934,-2.033385942263901
1772537556298270000,1.79927001953125,-2.4644763888657093,-0.08728490022122859,-2.186224095630646
1772537556308338000,1.809337890625,-2.314668104714155,0.026994389909505843,-2.2396838831394907
1772537556318404900,1.81940478515625,-1.9089912085711955,0.24374679704308508,-2.1130977768823502
1772537556328472800,1.829472900390625,-1.2676193044155835,0.5001935011833906,-1.7041028422325848
1772537556338539800,1.839539794921875,-0.6041553954392671,0.6962842285603285,-1.149312147008255
1772537556348608000,1.84960791015625,0.04108838171362877,0.8748375456809997,-0.6172588418360799
1772537556358676000,1.859676025390625,0.6522258911252021,1.0188882892191409,-0.1533091684119776
1772537556368743000,1.869742919921875,1.11163671554327,1.0928677176654338,0.20045169906541704
1772537556378811000,1.879810791015625,1.3498673795133829,1.1165274101942777,0.3596569032460451
1772537556388878800,1.88987890625,1.4320160858899353,1.090122218349576,0.407671577091515
1772537556398946000,1.899946044921875,1.4660522110044956,0.9883622180521487,0.45751942118089645
1772537556409014000,1.910013916015625,1.391309396970272,0.85167352771461,0.4874922789119184
1772537556419082000,1.92008203125,1.1727671838104725,0.7579957115858793,0.44364195820428426
1772537556429149000,1.93014892578125,0.7960854960054159,0.6753945852667093,0.2220667522904463
1772537556439217000,1.940216796875,0.36492753712534903,0.5909212353348732,-0.09789340626345946
1772537556449285000,1.95028515625,-0.06278174260556697,0.444544679197669,-0.3702623588146642
1772537556459352000,1.96035205078125,-0.4485299494415521,0.3219558258831501,-0.6212057528309524
1772537556469420000,1.970419921875,-0.7527122182250022,0.2687169876486063,-0.8209103598561137
1772537556479487000,1.980487060546875,-0.8945242429256439,0.20112229180335997,-0.8523023271374404
1772537556489555000,1.990554931640625,-0.8760112656354904,0.0796118813753128,-0.7145401623494922
1772537556499623200,2.000623046875,-0.8097919497966766,-0.016163199293613432,-0.5274807730922475
1772537556509690000,2.010690185546875,-0.8144418214291334,-0.06116378601491451,-0.42696704652886835
1772537556519758000,2.020758056640625,-0.903067614865303,-0.02314063709080219,-0.49945188903585075
1772537556529826000,2.030825927734375,-0.9758341603904962,0.041461306679248806,-0.6179591721251606
1772537556539893000,2.04089306640625,-0.9479477900773287,0.09140987119674682,-0.6464136246498674
1772537556549961000,2.0509609375,-0.77052727637887,0.15189794990718364,-0.5731981663133948
1772537556560029000,2.06102880859375,-0.6418699168056249,0.17772563412487505,-0.4675409028491005
1772537556570096000,2.07109619140625,-0.4926911627292633,0.2362175705820322,-0.3435184730675071
1772537556580163800,2.081163818359375,-0.33822657720446586,0.29561025527119633,-0.17543191543081774
1772537556590231800,2.091231689453125,-0.24554303281009196,0.3048959700107574,-0.010945519444253295
1772537556600299000,2.101299072265625,-0.23564240104258058,0.35281332096159457,0.07990930255246348
1772537556610367000,2.111366943359375,-0.2539110481828451,0.41880584230720996,0.11217415281133726
1772537556620435000,2.12143505859375,-0.28409049786925317,0.4545055167198181,0.12303353747525252
1772537556630502000,2.131501953125,-0.37064825285971165,0.4285930768281221,0.07499032252188771
1772537556640569900,2.14156982421875,-0.4314870447039604,0.3974018197506666,-0.07957245354722253
1772537556650636800,2.15163671875,-0.44998014824986454,0.41066228334009647,-0.2537604972636327
1772537556660704800,2.161704833984375,-0.48890930610299105,0.40655893967449663,-0.44846382540278135
1772537556670773000,2.17177294921875,-0.4991992294490337,0.41362873193025584,-0.6729231536518782
1772537556680840000,2.18183984375,-0.37559564613401886,0.4504489348053932,-0.6925008375640959
1772537556690908000,2.191907958984375,-0.14834522586166857,0.4225578883171081,-0.4883087829265743
1772537556700975900,2.201975830078125,0.16233166563808918,0.31889877640008923,-0.14632591279535553
1772537556711042800,2.212042724609375,0.49200844116210934,0.16350713915824888,0.27370237484574317
1772537556721111000,2.222111083984375,0.7211170565217733,0.02527297294437885,0.5807825570277869
1772537556731179000,2.232178955078125,0.7855518270313739,0.0029448212802410125,0.6047727601526305
1772537556741246000,2.242245849609375,0.7007371163159608,0.05084639014005661,0.37218134417850524
1772537556751314000,2.25231396484375,0.4332604841172695,0.08710311391353606,0.02480687153628096
1772537556761382000,2.2623818359375,-0.0637134704977274,0.13194821781218052,-0.4260966203698888
1772537556771448800,2.27244873046875,-0.4980103119254112,0.28242227239608764,-0.7909165689349174
1772537556781517000,2.28251708984375,-0.7749702272623777,0.4797878420144319,-0.992219989458844
1772537556791584000,2.292583984375,-0.8306167111605405,0.6584165624588728,-1.0020281937025486
1772537556801652000,2.30265185546875,-0.6394476580947637,0.7544839040726423,-0.8311807747840881
1772537556811720000,2.312719970703125,-0.3242003899395466,0.7239975803941487,-0.5478996936015784
1772537556821787000,2.322786865234375,0.010178279665112495,0.6058727207511663,-0.23725049382634458
1772537556831855000,2.332855224609375,0.23941373627483845,0.4353910664051771,0.07059298261208459
1772537556841923000,2.342923095703125,0.27582477382719517,0.29673545990884304,0.2356850346079096
1772537556851990000,2.352989990234375,0.09215162947475909,0.2439899581491947,0.19670783636197448
1772537556862058000,2.36305810546875,-0.30541327188313006,0.22027122890949247,-0.051934929728857236
1772537556872126000,2.3731259765625,-0.7417255447864533,0.23267829053997993,-0.4201918898381293
1772537556882193000,2.38319287109375,-1.0887491764307022,0.2664835295081138,-0.7630458345822989
1772537556892261000,2.39326123046875,-1.2085177116274832,0.31611411411762236,-0.9840044612340628
1772537556902329000,2.4033291015625,-1.1400374651193619,0.34488895770311356,-1.075202004854381
1772537556912396000,2.41339599609375,-0.818981802946329,0.3334925344198942,-1.0459251300308854
1772537556922464000,2.423464111328125,-0.41379356710314746,0.26209084750711914,-0.925197248282656
1772537556932531000,2.433531005859375,-0.03780804486870765,0.19864041185975073,-0.8162623879197984
1772537556942599200,2.44359912109375,0.36856910849809643,0.12426760018169879,-0.6558174858763813
1772537556952667000,2.4536669921875,0.7554109557896852,-0.00215630125105381,-0.45393147969152775
1772537556962734000,2.463734130859375,1.0347568894803523,-0.10672668279409409,-0.31052509847152976
1772537556972802000,2.473802001953125,1.1487976946800946,-0.19614625695645807,-0.3070258947115391
1772537556982869800,2.483869873046875,1.1635060189902782,-0.20806290472149847,-0.37945407512784
1772537556992937000,2.49393701171875,1.016534419569373,-0.20786825893223285,-0.5324688637031242
1772537557003005000,2.5040048828125,0.7092512621611357,-0.18170447462797165,-0.7929680946372449
1772537557013073000,2.514072998046875,0.4806149404883384,-0.13859247813224793,-0.9953567531146108
1772537557023139800,2.524139892578125,0.38242344632744785,-0.09059797029197215,-1.057735175616294
1772537557033207800,2.534207763671875,0.4294575847029686,-0.08260287988483905,-1.0182414426829665
1772537557043275800,2.54427587890625,0.5989134031325578,-0.06414192504286766,-0.8525210113894194
1772537557053343000,2.554343017578125,0.8552677528142929,-0.06003916589915752,-0.6116930609351023
1772537557063411000,2.564410888671875,1.1026543676644562,-0.09915887788832187,-0.34956045664548874
1772537557073479000,2.57447900390625,1.3269482762187719,-0.11337854189872741,-0.11950666025704704
1772537557083545900,2.5845458984375,1.454048469477892,-0.1615811395317316,0.12262628098176792
1772537557093613800,2.59461376953125,1.489187002876401,-0.24859189898669717,0.28546920234393325
1772537557103680800,2.6046806640625,1.4325433246344328,-0.32871172988414765,0.30182973257424306
1772537557113749000,2.6147490234375,1.3444424318552017,-0.3851327052861452,0.23007503097271545
1772537557123817000,2.62481689453125,1.243129006281495,-0.44338440324664113,0.180864516672492
1772537557133884000,2.6348837890625,1.1157353830337524,-0.5295569583117962,0.14059914177954197
1772537557143952000,2.644951904296875,0.9676187052309513,-0.6677081224173307,0.034804387807007876
1772537557154019800,2.655019775390625,0.7963888628661632,-0.7494821502625941,-0.1317147378498688
1772537557164087000,2.665087158203125,0.5620131207585335,-0.8075298500835895,-0.3419469859670847
1772537557174155000,2.675155029296875,0.38220541966259475,-0.870905466929078,-0.45938200018238273
1772537557184223000,2.685222900390625,0.3081517569363117,-0.9522586390137672,-0.509396834869124
1772537557194290000,2.6952900390625,0.3227174579054117,-1.013819315391779,-0.49057402444481846
1772537557204358000,2.70535791015625,0.3525707443773746,-1.0432523306250572,-0.46622276945523916
1772537557214424800,2.7154248046875,0.32956396279931066,-1.0464894128501414,-0.5147644993821159
1772537557224493000,2.7254931640625,0.2974848169714212,-1.029320835906267,-0.5512722753072157
1772537557234561000,2.73556103515625,0.2781318817257881,-1.0204583150148392,-0.5899919185955077
1772537557244628000,2.7456279296875,0.3473123854577541,-0.950990811035037,-0.5733291722819209
1772537557254695400,2.7556953125,0.34831133336722847,-0.8741817121207713,-0.5732636692976578
1772537557264763400,2.765763427734375,0.2513157709926367,-0.8351596152871846,-0.6425983041454106
1772537557274830300,2.775830322265625,0.08847674035429955,-0.8148235142230987,-0.7611065370827913
1772537557284898300,2.785898193359375,-0.07110533431470394,-0.7513648952692746,-0.8860453875895589
1772537557294966300,2.79596630859375,-0.07016717668175697,-0.6255903976559639,-0.9735361856464296
1772537557305033200,2.806033203125,0.15235036984980105,-0.47268999270796774,-0.9610899610493332
1772537557315101400,2.816101318359375,0.52227615365386,-0.35235096414685246,-0.8562305334318429
1772537557325169400,2.82616943359375,0.8529296652555465,-0.3248772662878036,-0.7688506484035402
1772537557335236400,2.836236328125,1.1043132407873868,-0.3220505184292793,-0.7502714740093797
1772537557345304300,2.84630419921875,1.2705974434435368,-0.3003559884935617,-0.7400140646934509
1772537557355372500,2.85637255859375,1.3970751208901404,-0.29117548769414425,-0.7018181895509362
1772537557365439500,2.866439453125,1.4566045837014914,-0.2663853298306465,-0.5936289964562281
1772537557375507500,2.876507568359375,1.4247960715085268,-0.2233984210193157,-0.5187500618869438
1772537557385574400,2.886574462890625,1.1902841358006,-0.18273790932893752,-0.5738697454320266
1772537557395642400,2.896642333984375,0.9612503392428159,-0.10976970375180244,-0.6769814160667359
1772537557405710300,2.90671044921875,0.8926806608855724,-0.044755672049522396,-0.7246596244994551
1772537557415777300,2.91677734375,0.6649392422258854,-0.10549977134764194,-0.7555452496938407
1772537557425845500,2.926845458984375,0.42376667958498,-0.07058978600800037,-0.7163318680718541
1772537557435913200,2.936913330078125,0.714192810216546,0.12076105336546897,-0.49050691402535884
1772537557445980400,2.94698046875,0.6631389148056507,-0.03072539313137531,-0.44385720839016135
1772537557456048000,2.957048095703125,0.46617023555040354,-0.16805881111323834,-0.2432920390129089
1772537557466116400,2.967116455078125,-0.010343699359893798,-0.14234160153269768,-0.3047501865982078
1772537557476183300,2.977183349609375,-0.8269920909225941,-0.07627835303843021,-0.137410355675593
1772537557486251300,2.987251220703125,-1.3455372413545845,0.20021628287434576,0.015995770304836333
1772537557496319200,2.9973193359375,-1.634474594733119,0.5127899479061365,-0.16011563355643302
1772537557506386200,3.00738623046875,-1.877020199292898,0.6921247707933187,-0.6981922541387379
1772537557516454100,3.0174541015625,-2.1199498347342014,0.7952326785683631,-1.3842892890751362
1772537557526521000,3.02752099609375,-2.037193225592375,0.9920341845631598,-1.7888257830113172
1772537557536589300,3.03758935546875,-1.0372796859562396,1.214334873473644,-1.377957747966051
1772537557546657300,3.0476572265625,0.41598669323325155,1.0598685343831777,-0.6663087770134211
1772537557556724200,3.05772412109375,1.321004273122549,0.923726372012496,-0.35848789599929004
1772537557566792200,3.067792236328125,1.4948223784148693,0.6511755052894354,-0.5184470238197595
1772537557576860400,3.0778603515625,0.8427624915063381,0.32996085316240786,-0.7559471084930002
1772537557586927400,3.08792724609375,-0.3177209647923708,0.42063013512492176,-0.9624715516008436
1772537557596995300,3.097995361328125,-1.3710709110617636,0.49111587623655795,-1.523138956838846
1772537557607063300,3.108063232421875,-1.9781898324817417,0.6166559805721045,-1.6717127307593822
1772537557617130200,3.118130126953125,-2.0680992359876633,0.5818599770009517,-1.4138194810725748
1772537557627198200,3.1281982421875,-1.5101327602714298,0.5805190837860107,-0.810074200804159
1772537557637266400,3.138266357421875,-0.5461357526689767,0.7214712767869234,0.1395262701173313
1772537557647333400,3.14833349609375,0.5250204839259386,0.8020084563136101,1.101822519950196
1772537557657401300,3.1584013671875,1.3745324496924876,0.80583181399405,1.957882226859778
1772537557667468300,3.16846826171875,1.8919009575605392,0.7580489030778408,2.646535376019776
1772537557677536300,3.178536376953125,1.9887223324120042,0.6073948157519101,2.9759605148702857
1772537557687604500,3.1886044921875,1.6465806275904178,0.5355313565462827,2.6203172311797736
1772537557697671400,3.19867138671875,1.073260515397787,0.40074703852534294,1.825872488118708
1772537557707739400,3.208739501953125,0.2436380759716034,-0.11329320170283316,1.3716156854629515
1772537557717807400,3.218807373046875,-0.7778764700978994,-0.6037409694194793,0.6981492917798459
1772537557727874300,3.228874267578125,-1.4881798716604708,-0.7637842318594456,-0.04439151491224765
1772537557737942300,3.2389423828125,-1.5440958201497792,-0.6713456021368504,-0.42113560042902826
1772537557748010500,3.249010498046875,-1.077005547145009,-0.562105475217104,-0.22628658020887524
1772537557758077400,3.259077392578125,-0.50174248419106,-0.5401601853907108,0.18543365121893585
1772537557768145400,3.2691455078125,-0.09056757515370845,-0.4256739745110273,0.33263167980685826
1772537557778213400,3.27921337890625,-0.0645323856651783,-0.38700259081125254,0.29441494453940537
1772537557788280300,3.2892802734375,-0.2611597041368484,-0.45549160514771936,-0.04061933942977339
1772537557798348500,3.2993486328125,-0.3699655312925577,-0.5256868388801813,-0.35932690410669893
1772537557808415500,3.30941552734375,-0.30042437755465506,-0.5910124207496643,-0.4196182546686381
1772537557818483500,3.3194833984375,-0.06696925742328166,-0.6499275510549545,-0.3341453723054379
1772537557828551200,3.32955126953125,0.19084055176377296,-0.6467196949243545,-0.14082527868561445
1772537557838618400,3.339618408203125,0.48077568400800225,-0.5691600699037314,0.1778048368409276
1772537557848686300,3.349686279296875,0.648162294948101,-0.549457006046176,0.49458932450078424
1772537557858754300,3.35975439453125,0.535982022923231,-0.5277116227060556,0.6564204202055931
1772537557868821500,3.369821533203125,0.1633113243252039,-0.4893921211838722,0.639859161505103
1772537557878889200,3.37988916015625,-0.27019465898573397,-0.4672743974000215,0.4631407316613942
1772537557888957200,3.389957275390625,-0.5323410360723734,-0.44315643970966334,0.24331984033528714
1772537557899024100,3.400024169921875,-0.592186140704155,-0.40163025110065936,0.10423884803373366
1772537557909092400,3.41009228515625,-0.40078912410140033,-0.31187925302684305,0.13694284776169807
1772537557919160300,3.420160400390625,-0.06670914518237113,-0.1722989329010248,0.33296219040285796
1772537557929227300,3.430227294921875,0.15811200211644172,-0.04292904114425182,0.4755319016030058
1772537557939295200,3.440295166015625,0.2502460959345102,0.052397126713395116,0.5455049074195325
1772537557949362200,3.450362060546875,0.3240285405039787,0.13953238933086395,0.7243711629468947
1772537557959430100,3.46043017578125,0.2964490441828966,0.17305179709494112,0.8602788589745759
1772537557969498400,3.470498291015625,0.129653384873271,0.16885960610210896,0.8998493834711611
1772537557979565300,3.4805654296875,-0.06299743118286133,0.18153379423618315,0.8638491186767816
1772537557989633300,3.49063330078125,-0.1966851861387491,0.17393910132348536,0.7816375761970877
1772537557999701200,3.500701171875,-0.27239187676906584,0.07925123136937617,0.6283871157024056
1772537558009768200,3.510768310546875,-0.22715923485755918,0.04246843789517879,0.611209478669241
1772537558019836400,3.52083642578125,-0.21929273926615714,0.050886137628555296,0.6109268988681956
1772537558029904400,3.530904296875,-0.30023557698428627,-0.07203589316308498,0.5136798459505661
1772537558039971300,3.540971435546875,-0.39700609843134876,-0.1702297254115343,0.4302582335613668
1772537558050039300,3.551039306640625,-0.4411766640692949,-0.21658172674179077,0.4388387957062572
1772537558060107300,3.561107177734375,-0.4071405389547348,-0.27136194919943807,0.5501596378901973
1772537558070174200,3.57117431640625,-0.3480699258267879,-0.30557050827145577,0.6904082491990179
1772537558080242400,3.581242431640625,-0.29224457823038097,-0.29821605385541916,0.7638264635659754
1772537558090309400,3.591309326171875,-0.3251017226934433,-0.3385831355571747,0.6219613935038447
1772537558100377300,3.60137744140625,-0.395838223695755,-0.4532154769092798,0.35403643301576376
1772537558110445300,3.6114453125,-0.4093611376136541,-0.5636351690024137,0.1495079129654914
1772537558120512300,3.62151220703125,-0.3362427099108696,-0.6327297480165958,0.1290796766385436
1772537558130580500,3.63158056640625,-0.1469727684646845,-0.6353156728565692,0.3473109241530299
1772537558140648400,3.6416484375,0.09526888471245765,-0.5934387711137533,0.703560357043147
1772537558150715400,3.65171533203125,0.21725158882737158,-0.5777285762846469,0.8059889773171395
1772537558160783400,3.661783447265625,0.1076584106862545,-0.6127203946888446,0.6308906960211694
1772537558170851300,3.671851318359375,-0.012968202644586563,-0.6486737516015768,0.45865394163615997
1772537558180918300,3.681918212890625,-0.1682908663034439,-0.6980395477950573,0.24047785837501287
1772537558190986500,3.691986572265625,-0.3893395093262195,-0.6915531083852052,-0.05679850347749889
1772537558201054200,3.70205419921875,-0.6566507218301296,-0.6030921501219272,-0.2738161374185234
1772537558211121400,3.712121337890625,-0.8621890765100717,-0.35488311297297476,-0.4487595204137265
1772537558221189400,3.722189453125,-0.9525187512546777,-0.011183072793483734,-0.4609702922871336
1772537558231256300,3.73225634765625,-0.9284773659318685,0.3619575814038515,-0.4067092713980004
1772537558241324500,3.742324462890625,-0.8078443228602409,0.7146960835635662,-0.35695889633372424
1772537558251392300,3.752392333984375,-0.601745996209979,0.9744774850845336,-0.32191655331868674
1772537558261459500,3.76245947265625,-0.4288485128939151,1.1250286965578793,-0.43713995589911936
1772537558271527400,3.77252734375,-0.22081658783257005,1.221481822618842,-0.4365519999433309
1772537558281595400,3.782595458984375,0.032934301352500917,1.2371966936230658,-0.2538316262710839
1772537558291662300,3.792662353515625,0.23089959042966365,1.2495324435830115,0.01776935584861785
1772537558301730300,3.802730224609375,0.26008243029415606,1.1954267593860626,0.19176066228337585
1772537558311798300,3.81279833984375,0.1251040510058403,1.048530563288927,0.17315374136576428
1772537558321865500,3.822865478515625,0.009025017976760863,0.8978554331749677,0.11931304651424288
1772537558331933400,3.832933349609375,-0.05814297688901424,0.756845372506976,0.060377325512073
1772537558342001400,3.84300146484375,-0.12156067931056022,0.6406634636253118,-0.10307281819535419
1772537558352068400,3.853068359375,-0.10772972235679626,0.5114695129573344,-0.28029090465689077
1772537558362136300,3.86313623046875,0.00992401264309883,0.3649859893143177,-0.3874368540426716
1772537558372203300,3.873203369140625,0.17968319793343543,0.1997054107427597,-0.5060033930385485
1772537558382271500,3.883271484375,0.29273908374905583,0.046448447442054744,-0.5846913645019755
1772537558392339500,3.89333935546875,0.37352585412263867,-0.08427461248934269,-0.7057677308943122
1772537558402406400,3.903406494140625,0.4531201998412609,-0.19407471137940882,-0.7774993073485791
1772537558412474400,3.913474365234375,0.5214841264933348,-0.2767991718173027,-0.7150771918356418
1772537558422542300,3.923542236328125,0.4786602992892265,-0.3557178102314472,-0.6835305454492568
1772537558432609500,3.933609619140625,0.20013854146301746,-0.43753100104331966,-0.7688632886894047
1772537558442677500,3.943677490234375,-0.37310032218694683,-0.49829906573891636,-1.063484021466598
1772537558452745500,3.953745361328125,-0.9669874215900898,-0.47622927275001997,-1.3860492844849823
1772537558462812400,3.9638125,-1.2901912017077206,-0.3618967911273241,-1.4910513354435562
1772537558472880400,3.97388037109375,-1.24011696498394,-0.17803776881396768,-1.317555886234343
1772537558482947300,3.983947265625,-0.8194435752391814,0.029723522612452504,-1.0025313209190965
1772537558493015600,3.994015625,-0.22923428756594658,0.1749181754887104,-0.6249116216115653
1772537558503083500,4.00408349609375,0.2747229500651359,0.3725812667489052,-0.3547131632335484
1772537558513150500,4.014150390625,0.8255506599426269,0.5659422769010066,-0.09643689644536935
1772537558523218400,4.024218505859375,1.2848732215553522,0.608150602555275,0.13649808140257372
1772537558533286400,4.034286376953125,1.588719974774122,0.5393219810009002,0.16929080059360713
1772537558543353600,4.044353515625,1.7154992655158041,0.4396756118565798,0.025106585135217754
1772537558553421600,4.054421630859375,1.7427426617503166,0.28367607184946536,-0.08887592313918284
1772537558563489500,4.064489501953125,1.8231079918414352,0.15228081174492836,-0.04489259630218148
1772537558573556500,4.074556396484375,1.800778671133518,0.04330956489443779,-0.01900388434594497
1772537558583624400,4.08462451171875,1.5789093593776224,-0.061305240312218665,-0.09168351877266541
1772537558593692400,4.0946923828125,1.288171094056964,-0.13311375446021556,-0.1887786507979035
1772537558603759600,4.104759521484375,0.967475497367978,-0.22923896374106406,-0.30100542884562165
1772537558613827600,4.11482763671875,0.7129267358034849,-0.30051147131621836,-0.3504414772637188
1772537558623894500,4.12489453125,0.5408955139279366,-0.32620939167439933,-0.3480691586418077
1772537558633962500,4.13496240234375,0.34713702889084813,-0.3492863158792257,-0.3671859105113894
1772537558644030200,4.1450302734375,0.15252455737292767,-0.35835575751960275,-0.37155908409431576
1772537558654097700,4.15509765625,0.052421676632761954,-0.3785632637679577,-0.37778486327398564
1772537558664165400,4.165165283203125,0.05685995134115219,-0.379053093111515,-0.36493992168288675
1772537558674233300,4.1752333984375,0.12148936764001846,-0.30955344042778016,-0.27736235865801573
1772537558684300500,4.185300537109375,0.28472587316334247,-0.26148937448263165,-0.09161551330406219
1772537558694368300,4.1953681640625,0.4547060077279806,-0.24475860443413255,0.05229162051230669
1772537558704436500,4.2054365234375,0.5371054739952087,-0.22528818028867242,0.1254727381877601
1772537558714503400,4.21550341796875,0.4692611873030662,-0.2061918501526117,0.19274729870054869
1772537558724571400,4.2255712890625,0.3459627244144678,-0.21897826648950575,0.2148611500268802
1772537558734639400,4.235639404296875,0.26077216612398624,-0.2578852125108242,0.28701365530695766
1772537558744706300,4.245706298828125,0.21590718848109244,-0.32200784833133217,0.32986232469137755
1772537558754774300,4.255774169921875,0.1941542063564062,-0.39271979941427704,0.35691019835378973
1772537558764841500,4.265841552734375,0.1599731198132038,-0.4905629185289144,0.3282301934449002
1772537558774909400,4.275909423828125,0.1019634139150381,-0.5705038857281207,0.16929328481163827
1772537558784977400,4.285977294921875,0.011319266393780707,-0.6809463741749525,-0.04542531493939459
1772537558795044400,4.29604443359375,0.020764555609226226,-0.7860147683680057,-0.09743318660687654
1772537558805112300,4.3061123046875,0.152231127384305,-0.8970178133070469,0.020647651231288908
1772537558815180500,4.3161806640625,0.31011925761699677,-0.9793775320857763,0.1722212645549327
1772537558825247500,4.32624755859375,0.40364626709818835,-1.0169476765453815,0.22531784477457403
1772537558835315500,4.3363154296875,0.3486503560632467,-1.0404536398172377,0.18844134513493627
1772537558845383400,4.346383544921875,0.04246551528573036,-1.0738842002540827,-0.0741639547003433
1772537558855450400,4.356450439453125,-0.36149288650155065,-1.0785773265063763,-0.3993245679741725
1772537558865518300,4.366518310546875,-0.6864034705370664,-1.0245184040606021,-0.6749963797293603
1772537558875586600,4.376586669921875,-0.9326730640560388,-0.8996995997369289,-0.9069656452171504
1772537558885653500,4.386653564453125,-1.0883569622427225,-0.7444073312163353,-1.009834775800258
1772537558895721500,4.396721435546875,-1.095388760575652,-0.5949801553368568,-1.0301241881784051
1772537558905788400,4.406788330078125,-0.9462631979912519,-0.41637072411477566,-0.9516030246492475
1772537558915856400,4.4168564453125,-0.6561018557757139,-0.3271650849640369,-0.7939873546823859
1772537558925924600,4.426924560546875,-0.31517887909412384,-0.31370822201967236,-0.6528966299936175
1772537558935991600,4.436991455078125,-0.08154314169883728,-0.26966449763178824,-0.613778233178705
1772537558946059500,4.4470595703125,0.04551905763745308,-0.1917979986190796,-0.6665138711314648
1772537558956127500,4.45712744140625,0.10603343983292579,-0.10265490331053734,-0.7619232602931558
1772537558966194400,4.4671943359375,0.15557166998386382,-0.005523147335648537,-0.8407474253568797
1772537558976262400,4.477262451171875,0.2189496249169111,0.0880120454519987,-0.8733069751128554
1772537558986330600,4.48733056640625,0.2274158399671316,0.22296002960205077,-0.8807701506003737
1772537558996397600,4.4973974609375,0.21381109298467635,0.3800011876165867,-0.8402711861472576
1772537559006465500,4.507465576171875,0.24833529387712477,0.5369347936034202,-0.7318858494259417
1772537559016533200,4.517533203125,0.32605683146119113,0.7009720941156149,-0.5908611757107078
1772537559026600400,4.527600341796875,0.3867664439678192,0.7971639388918876,-0.4030917019553482
1772537559036668400,4.53766845703125,0.36873043653964993,0.8898813855558634,-0.24075419109836219
1772537559046735600,4.547735595703125,0.2982411882966757,0.9441875607609749,-0.15719443061379715
1772537559056803600,4.557803466796875,0.1823550474911928,0.9627093058794737,-0.17447991193560883
1772537559066871300,4.567871337890625,-0.009074117815494536,0.9480518349736928,-0.33770956759303805
1772537559076938500,4.5779384765625,-0.2330412786334753,0.8699223011106252,-0.5729986982185393
1772537559087006200,4.588006103515625,-0.4048696714133024,0.7542728916704654,-0.7655909890204667
1772537559097074400,4.598074462890625,-0.5703291136831045,0.6606254706799983,-0.888022240620479
1772537559107141400,4.608141357421875,-0.7562292864352465,0.6489420471489429,-0.9475780069168657
1772537559117209300,4.618209228515625,-0.8972644815444946,0.6168757608026266,-0.9774713331382721
1772537559127277300,4.62827734375,-0.9655746321827172,0.5731733971983194,-1.0123524577096104
1772537559137344300,4.63834423828125,-0.9736568163514137,0.5242863244324922,-1.0305619220085442
1772537559147412500,4.64841259765625,-0.9088497053980826,0.4357406104952097,-1.025152244984731
1772537559157480400,4.65848046875,-0.8412310441553592,0.32808336885273454,-1.1128984060421585
1772537559167547400,4.66854736328125,-0.8042863381177187,0.22291326785087584,-1.3267818336106836
1772537559177615400,4.678615478515625,-0.8017460059851408,0.1572375573694706,-1.5736971776872872
1772537559187682300,4.688682373046875,-0.7871417265713214,0.13886544985473157,-1.8148977973788976
1772537559197750300,4.698750244140625,-0.6327709568098187,0.17789514547288418,-1.9309232005245982
1772537559207818500,4.708818603515625,-0.4012707701385021,0.24429332500994205,-1.9009129699252545
1772537559217885400,4.718885498046875,-0.21011749916374683,0.3519230941236019,-1.7971248248010874
1772537559227953400,4.728953369140625,-0.1238274551987648,0.48291328055858607,-1.653573116826266
1772537559238021400,4.739021484375,-0.034361703807115555,0.6193792680561542,-1.4170996717870235
1772537559248088300,4.74908837890625,0.18323942911028862,0.7778069119930267,-1.0454827200256287
1772537559258156800,4.75915673828125,0.43929567262828345,0.871560131445527,-0.6489381746914238
1772537559268225000,4.76922509765625,0.6960901672929525,0.9075514822810887,-0.3902016791135072
1772537559278292000,4.7792919921875,0.8233382445901631,0.8872200573921203,-0.2659169999328442
1772537559288360000,4.78935986328125,0.7902560591995715,0.8241185813128947,-0.22409049493670463
1772537559298428000,4.799427978515625,0.644074148851633,0.7262421444505452,-0.27914739717757325
1772537559308494800,4.809494873046875,0.40852001061439513,0.626140432754159,-0.35751729740146543
1772537559318562800,4.819562744140625,0.16455927855968475,0.5194149190038442,-0.41236068475581705
1772537559328630000,4.829630126953125,-0.016729016482830046,0.36992870641350745,-0.46741322134882207
1772537559338698000,4.839697998046875,-0.20200901151001452,0.221734287199378,-0.6097840855086222
1772537559348766000,4.849765869140625,-0.46369712343513964,0.09330489116311073,-0.7782990794241428
1772537559358833000,4.8598330078125,-0.7653776385307312,-0.03145896810293197,-0.9215269622720778
1772537559368900900,4.86990087890625,-1.0428618700027465,-0.16251169838011265,-1.0522397200051694
1772537559378968800,4.87996875,-1.202099076756835,-0.2841431048393249,-1.1316340131070464
1772537559389036000,4.8900361328125,-1.2284183438837528,-0.3965653689265251,-1.1401923634201288
1772537559399104000,4.90010400390625,-1.1535825908690691,-0.43844753136634823,-1.1369459288448094
1772537559409171700,4.910171630859375,-0.9873451499640941,-0.41700609940886496,-1.1537054865963756
1772537559419239000,4.920239013671875,-0.8918342731893062,-0.37998423648178575,-1.2417039419144391
1772537559429306600,4.930306640625,-0.8483212946772575,-0.33184359816908837,-1.309407651092112
1772537559439374800,4.940374755859375,-0.6676677904069424,-0.25527649131715296,-1.1996461306467652
1772537559449441800,4.95044189453125,-0.36653029614686966,-0.16409692174494264,-0.9423132913216948
1772537559459509800,4.960509765625,-0.015907763227820396,-0.1183025542974472,-0.5886723238969221
1772537559469577000,4.970576904296875,0.26859189996421334,-0.13703998799324035,-0.27858028308041394
1772537559479644700,4.980644775390625,0.31964462633132934,-0.09988193146586417,-0.18213623537505044
1772537559489713000,4.990712890625,0.08153145126104354,-0.015464111113548278,-0.3603537994690239
1772537559499779800,5.00077978515625,-0.2767132470995188,0.05870061077177524,-0.7529504108950495
1772537559509847800,5.010847900390625,-0.5233300466209649,0.13446516906917094,-1.1299319584295153
1772537559519915800,5.020915771484375,-0.5639958190083504,0.20752689814865588,-1.3188321897804736
1772537559529982700,5.030982666015625,-0.3968962083160877,0.32989421766698357,-1.358368081355095
1772537559540050700,5.04105078125,0.04020283105075359,0.5002437700659036,-1.1974132570281624
1772537559550119000,5.051118896484375,0.583267505711317,0.6207341897964477,-0.9370293595694005
1772537559560185900,5.061185791015625,1.049651091751456,0.6936293301373719,-0.7752963904768229
1772537559570253800,5.07125390625,1.4444944591909645,0.7291618312895297,-0.6343121218372136
1772537559580321800,5.08132177734375,1.746539131423831,0.7036924589902163,-0.4549874915504828
1772537559590388700,5.091388671875,1.8344126451879739,0.6607879677653312,-0.19488480391958726
1772537559600457000,5.10145703125,1.7190853073090313,0.6055097326576709,0.07586746611602138
1772537559610524000,5.11152392578125,1.4042746770054102,0.4885901571512222,0.21041962391547858
1772537559620591900,5.121591796875,0.9322750046491622,0.3402642205119133,0.23616837941175325
1772537559630659800,5.131659912109375,0.4787608370542526,0.17867197506427765,0.24311280998848378
1772537559640726800,5.141726806640625,0.1885474723905325,0.022134090396761893,0.2746670003605075
1772537559650794800,5.151794677734375,0.012262684723734854,-0.16676000347435474,0.32169001455381513
1772537559660863000,5.161863037109375,-0.11148819810748099,-0.35978608258366584,0.32245986641515045
1772537559670930000,5.171929931640625,-0.16421499516665936,-0.528427077499032,0.22156757059665397
1772537559680998000,5.181997802734375,-0.16280337480306625,-0.6859072114527225,0.03837343279966153
1772537559691065900,5.19206591796875,-0.012129413732886314,-0.8104150501310825,-0.1394162430047523
1772537559701132800,5.2021328125,0.2636842541784048,-0.8688146321296691,-0.2228711092095822
1772537559711201000,5.212200927734375,0.5804249757617712,-0.8479746731966733,-0.20141400475893168
1772537559721269000,5.22226904296875,0.8111801892846823,-0.7836001084417105,-0.19976912362873553
1772537559731336000,5.2323359375,0.9921528425067663,-0.7300082189857959,-0.15017504423786884
1772537559741404000,5.24240380859375,1.1983645664036273,-0.6596341215550899,-0.014857459590444341
1772537559751470800,5.252470947265625,1.3189011633634566,-0.601675269061327,0.07980415254440158
1772537559761538800,5.262538818359375,1.3665572330296039,-0.5188602077305317,0.1805778269519098
1772537559771607000,5.27260693359375,1.4270757068783044,-0.4606786523967981,0.2948752007286064
1772537559781674000,5.282674072265625,1.4291571893274784,-0.47344344142377376,0.3491153432264924
1772537559791742000,5.292741943359375,1.3987217190533876,-0.5106716405779123,0.3908884558012709
1772537559801809700,5.3028095703125,1.3623416611611843,-0.563752073380351,0.43815790077000855
1772537559811876900,5.312876953125,1.3807891719996928,-0.578081042984128,0.5048102011986076
1772537559821944800,5.32294482421875,1.37743752348423,-0.6052320847600698,0.5275116431545466
1772537559832012800,5.3330126953125,1.334573948791623,-0.6552788489550352,0.49829910227153446
1772537559842079000,5.343078857421875,1.2302560807049274,-0.6992062534868717,0.4518463074479252
1772537559852147000,5.35314697265625,1.13101420070827,-0.7314309452652931,0.40146344316639004
1772537559862214000,5.3632138671875,0.9760124395668506,-0.7669400655418634,0.3276426393479109
1772537559872281900,5.37328173828125,0.8543594057977199,-0.7950847945302725,0.3167325748095289
1772537559882348800,5.383348876953125,0.7715963669151067,-0.7935925101459026,0.30653339848686006
1772537559892417000,5.3934169921875,0.6786264067947864,-0.8148188380479812,0.30579580492731184
1772537559902485000,5.403485107421875,0.5837643493175506,-0.7898585843145847,0.2785181776296347
1772537559912552000,5.413552001953125,0.5502209761559963,-0.7624339862942695,0.2942339254166931
1772537559922620000,5.423619873046875,0.5813724857449531,-0.7520031931728124,0.324152020753175
1772537559932688000,5.43368798828125,0.6374538539290427,-0.7471089913904666,0.36178313815239815
1772537559942754800,5.4437548828125,0.666094257479906,-0.7590577878594398,0.36413839604165404
1772537559952823000,5.453822998046875,0.6146785430192947,-0.7859007865995168,0.28562172602452335
1772537559962890800,5.463890869140625,0.45824587229192254,-0.8443751873999834,0.11048051890227943
1772537559972958000,5.4739580078125,0.28995968216359613,-0.8531938691496849,-0.09070990623384713
1772537559983025700,5.484025634765625,0.18122224406898021,-0.8495435299485922,-0.2804965284978971
1772537559993094000,5.494093994140625,0.16847323713302612,-0.8491308574944734,-0.38945104340929537
1772537560003160800,5.504160888671875,0.2002151138305664,-0.8243412841528653,-0.4837500601762905
1772537560013228800,5.514228759765625,0.27285306454002856,-0.7101800674438477,-0.49720845749061554
1772537560023296000,5.5242958984375,0.4083189350843429,-0.5938274781703948,-0.34407088278587905
1772537560033363700,5.53436376953125,0.547023056897521,-0.5151759662598371,-0.11851939365221187
1772537560043431700,5.544431640625,0.6130325293779373,-0.42476796558201313,0.13438233135761693
1772537560053498600,5.55449853515625,0.6307277605444193,-0.31487375866770745,0.39318811104577034
1772537560063566800,5.56456689453125,0.5724684637993573,-0.23752631509304045,0.4925081343125552
1772537560073634800,5.574634765625,0.40819150931239123,-0.23778934994339943,0.49506001075245437
1772537560083701800,5.58470166015625,0.1859714844226837,-0.2895224597901106,0.46658349252641196
1772537560093769700,5.594769775390625,-0.06020926176905632,-0.3601157529294491,0.3786578467162326
1772537560103838000,5.604837890625,-0.2964835309743881,-0.46273909205794334,0.25114196706200015
1772537560113905000,5.61490478515625,-0.45878772408366203,-0.5896405478745699,0.2444407158576883
1772537560123972900,5.624972900390625,-0.4544610930562019,-0.685432579678297,0.3013499679669738
1772537560134040800,5.635040771484375,-0.5097334829449653,-0.8266916466712951,0.22199481956539674
1772537560144107800,5.645107666015625,-0.7311866151154041,-0.9289975904136896,-0.05169822119642049
1772537560154175700,5.65517578125,-0.9782797999769449,-0.9271090001881122,-0.4017662620378658
1772537560164242700,5.66524267578125,-1.1399638153612612,-0.8028045751273631,-0.7546656903803348
1772537560174311000,5.675310791015625,-1.2268220146030187,-0.564399139112234,-1.1537161541208625
1772537560184379000,5.68537890625,-1.146607491159439,-0.2871896329283714,-1.3948615364938974
1772537560194445800,5.69544580078125,-0.7849047612994908,0.06791910549402237,-1.2991858245462178
1772537560204513800,5.705513671875,-0.3185702750980854,0.45356326743364334,-0.9230869050651788
1772537560214582000,5.71558203125,0.1279191084265709,0.7618862892836332,-0.4527623628469184
1772537560224649000,5.72564892578125,0.5227905329167842,1.026402318111062,0.0023657062180340287
1772537560234718000,5.735718017578125,0.8227285882592201,1.219201018205285,0.4931705437440425
1772537560244785700,5.74578564453125,1.0628320603638888,1.2991525067985057,0.9498593227870762
1772537560254853400,5.755853271484375,1.154336039584875,1.2936106547623871,1.2668860217049718
1772537560264920600,5.765920654296875,1.057126542198658,1.2184206814825533,1.4262291730515657
1772537560274988300,5.77598828125,0.8694383169859647,1.0993342833310364,1.4575148304142056
1772537560285055500,5.786055419921875,0.5947539453655482,0.9434761976212263,1.347487206378579
1772537560295123500,5.79612353515625,0.36982407699525355,0.7467734758257866,1.1642566912271082
1772537560305191200,5.806191162109375,0.20112346084713933,0.5544657741189003,0.8213055697187781
1772537560315258400,5.81625830078125,0.1284539459556341,0.3147030782759189,0.5153528937293216
1772537560325326300,5.826326416015625,0.09646423197686671,0.03655366089344025,0.2875689511021599
1772537560335394300,5.836394287109375,-0.11620528975725174,-0.24119594351649282,-0.15421028197016567
1772537560345461200,5.846461181640625,-0.5528308663934469,-0.4453811300218105,-0.6876397343337536
1772537560355529200,5.856529296875,-0.8410814065515995,-0.542554387050867,-1.032987541720271
1772537560365597200,5.86659716796875,-0.841352624708414,-0.47761809675991534,-1.115981978205964
1772537560375664400,5.876664306640625,-0.6238286486804485,-0.31450726344287394,-0.9421103160955011
1772537560385732400,5.886732421875,-0.3209925338089466,-0.1210036299496889,-0.642667058532685
1772537560395800300,5.89680029296875,-0.035597967603802676,0.11764379812777041,-0.21605730100888756
1772537560405867300,5.9068671875,0.22966157306730745,0.3681523443907499,0.23821955805420875
1772537560415935200,5.916935302734375,0.5022416658848524,0.5806523547768593,0.7159764787629246
1772537560426003500,5.92700341796875,0.7069067448616028,0.7282768651485443,1.0308804864384233
1772537560436070400,5.9370703125,0.7779694090783595,0.8493313485026359,1.1662355900846422
1772537560446138400,5.947138427734375,0.8928525103211402,0.8959510608583688,1.3140259585425258
1772537560456205300,5.957205322265625,1.0899491998702286,0.8284323528587818,1.4625009482637046
1772537560466273300,5.967273193359375,1.1814333053469657,0.6960504198044538,1.5463937218286097
1772537560476341200,5.97734130859375,1.1109592546731233,0.5873381161510944,1.5339428210563957
1772537560486408400,5.987408447265625,0.9503513440877198,0.4883855744898319,1.485394478725642
1772537560496476400,5.997476318359375,0.7806178777605295,0.32139994556605817,1.3872209586128592
1772537560506544400,6.00754443359375,0.5982400339156388,0.11932546760439872,1.16229503576532
1772537560516611300,6.017611328125,0.2729875045746565,-0.07657412111461162,0.7888558370128274
1772537560526679300,6.02767919921875,-0.0675777447104454,-0.2406955927789211,0.48495516164973373
1772537560536747500,6.03774755859375,-0.2548305011153221,-0.3804752348691225,0.40220545717272904
1772537560546814500,6.047814453125,-0.29403438425660133,-0.4661199666678905,0.4834088089905679
1772537560556882400,6.05788232421875,-0.29124387675523755,-0.5566694216430187,0.6001303777068853
1772537560566950400,6.067950439453125,-0.3398147231787443,-0.6371516561120748,0.6333581090480089
1772537560577017300,6.078017333984375,-0.46054947305917737,-0.673643942207098,0.5324809925323352
1772537560587085300,6.088085205078125,-0.6139473061352968,-0.7000725149273872,0.33027963678799566
1772537560597152500,6.098152587890625,-0.7464280233889817,-0.7129045239716768,0.13627660240530967
1772537560607220500,6.108220458984375,-0.7934674224615097,-0.7317717215269803,0.0335721973972395
1772537560617288400,6.118288330078125,-0.6919646117955446,-0.7280828038811683,0.03342003904283047
1772537560627355400,6.12835546875,-0.4448316794455051,-0.697131785300374,0.08030128841158002
1772537560637423400,6.13842333984375,-0.13897884710133074,-0.6602958003342151,0.20230090712867677
1772537560647491300,6.1484912109375,0.06337678588926791,-0.5861749175906181,0.3397703360477462
1772537560657558500,6.15855859375,0.1612152288287878,-0.5135352133154869,0.3803594264697283
1772537560667626500,6.16862646484375,0.19585750314295292,-0.4628653487861156,0.388570972639136
1772537560677694200,6.178694091796875,0.12587737346589564,-0.4327624714672565,0.3737759564261883
1772537560687761400,6.188761474609375,-0.0109013332426548,-0.3958282868236303,0.2900385560860857
1772537560697829000,6.1988291015625,-0.1083335334688425,-0.29206688357591626,0.18284049292057752
1772537560707897300,6.2088974609375,-0.19695231264233587,-0.1999579241991043,-0.030789069484733044
1772537560717964300,6.21896435546875,-0.2656038240641355,-0.11740355963110922,-0.29018201967738566
1772537560728032300,6.2290322265625,-0.15282207901477812,-0.031633155626058576,-0.33117318809423596
1772537560738099500,6.239099365234375,0.22922376617193221,-0.019089315873384475,-0.09788746971301734
1772537560748167200,6.249167236328125,0.7523083135992288,-0.03484802601933479,0.27388500140365213
1772537560758235400,6.2592353515625,1.1553174518376588,-0.03867430630922317,0.6461066775925457
1772537560768302300,6.26930224609375,1.3168261106550694,-0.12120645904541015,0.8150302888415754
1772537560778370300,6.279370361328125,1.2484464019119739,-0.23046295257806776,0.7155847029663622
1772537560788438300,6.289438232421875,0.9931383464127779,-0.40811318337917324,0.4520343773659318
1772537560798505200,6.299505126953125,0.6167693778187037,-0.59128130081892,0.2033226513918489
1772537560808573200,6.3095732421875,0.17980244039893148,-0.7412175952643155,-0.05387720920331776
1772537560818641400,6.319641357421875,-0.2604185303807258,-0.841449655342102,-0.37468605700843033
1772537560828708400,6.329708251953125,-0.7931283997654914,-0.8461579791635274,-0.7275633831169456
1772537560838776300,6.3397763671875,-1.377993403801322,-0.7472124517649412,-1.1319687980193645
1772537560848844300,6.34984423828125,-1.7579519213199615,-0.5392722966402769,-1.448206319320947
1772537560858911200,6.3599111328125,-1.8640847298741339,-0.2606049928635359,-1.5252239464193582
1772537560868979500,6.3699794921875,-1.6916659699857235,0.03785889827311039,-1.4348157996110618
1772537560879046400,6.38004638671875,-1.2410434321790933,0.3543015136927366,-1.1499812053762375
1772537560889114400,6.3901142578125,-0.6172393334180116,0.6553168428778648,-0.7409613554809242
1772537560899182300,6.400182373046875,-0.052337505480647084,0.966311714285612,-0.4272219711380079
1772537560909249300,6.410249267578125,0.3449894954681396,1.1996937691807745,-0.2500464634428732
1772537560919317200,6.420317138671875,0.6358604472577571,1.339553490769863,-0.18993162022531032
1772537560929385500,6.430385498046875,0.8698176716923713,1.3773001608401536,-0.1140010485780891
1772537560939452400,6.440452392578125,1.1053361540943383,1.3462550342351198,0.010720099490811116
1772537560949520400,6.450520263671875,1.3061170851141213,1.2414876688152552,0.09306918271109461
1772537560959588400,6.46058837890625,1.390593357655406,1.080291729208827,0.06412775038704276
1772537560969655300,6.4706552734375,1.3193231881678105,0.882487183651328,-0.0559690075505292
1772537560979723500,6.4807236328125,1.1927636776566504,0.6649076780438423,-0.21907228318220004
1772537560989791500,6.49079150390625,1.0357581754773855,0.42881636418998237,-0.3810790094485506
1772537560999858400,6.5008583984375,0.8592857562839984,0.21557284196019172,-0.5009770527765155
1772537561009926400,6.510926513671875,0.7143155598133802,0.031186580902338026,-0.5620911178981886
1772537561019993300,6.520993408203125,0.5695885244488715,-0.13451836056113242,-0.6405835302568972
1772537561030061300,6.531061279296875,0.32491701377630233,-0.269373990252614,-0.7343625417377799
1772537561040129500,6.541129638671875,-0.05174070863127708,-0.3496317683160305,-0.8318059209451079
1772537561050196500,6.551196533203125,-0.4797428338289261,-0.379855057144165,-0.9199030873972922
1772537561060264400,6.561264404296875,-0.9086766869187355,-0.38488136087357994,-1.0019183035872876
1772537561070332400,6.57133251953125,-1.1491893243461846,-0.3278933992385864,-1.0039284743659198
1772537561080399400,6.5813994140625,-1.0774871931821106,-0.2580330965489149,-0.8022221721295267
1772537561090467300,6.59146728515625,-0.7117097612291574,-0.1878629972577095,-0.5193910632042213
1772537561100535300,6.601535400390625,-0.289046074450016,-0.09936346054971218,-0.27391331418268383
1772537561110602500,6.6116025390625,0.06389467228353023,-0.06414543217420578,-0.14265930744605138
1772537561120670200,6.621670166015625,0.4052186309814453,-0.04909340899288654,-0.08198589876396581
1772537561130738200,6.63173828125,0.6966314345628023,-0.03814297591149807,-0.07331946670021862
1772537561140805000,6.64180517578125,0.9452215799838304,-0.002730301746726036,-0.06699522298160009
1772537561150873300,6.651873291015625,1.2041957567751407,0.0017331074029207228,-0.028486765625420955
1772537561160941300,6.66194140625,1.3453373348683118,-0.026535540226101873,-0.06018095812317915
1772537561171008300,6.67200830078125,1.3493272812873125,-0.08768822032511234,-0.21226715147830544
1772537561181076200,6.682076171875,1.3229460548400878,-0.1495855813115835,-0.37231476129982616
1772537561191143200,6.69214306640625,1.3527227689445018,-0.2133113267689943,-0.4105836651459336
1772537561201211400,6.70221142578125,1.4164520215332508,-0.23906477670669554,-0.31794388682805
1772537561211279400,6.712279296875,1.4583406137138604,-0.23529577956199646,-0.23109914985606445
1772537561221346300,6.72234619140625,1.3666864123672247,-0.24567396571338176,-0.18782414481835438
1772537561231414300,6.732414306640625,1.1699082872480153,-0.2407137129575014,-0.2273505744448863
1772537561241482200,6.742482177734375,0.9291454744517803,-0.25544424909949304,-0.32526042038649317
1772537561251549200,6.752549072265625,0.6999059261888265,-0.26389175944924353,-0.3304635419875383
1772537561261617400,6.762617431640625,0.5341267504453658,-0.24486674098372457,-0.26013516512839124
1772537561271685400,6.772685302734375,0.4786614683330059,-0.2333329550564289,-0.08144015624839812
1772537561281752300,6.78275244140625,0.49606911472976206,-0.26781623941659927,0.09077836836017668
1772537561291820500,6.792820556640625,0.5150117156088352,-0.33150866712629795,0.1950681428635493
1772537561301888500,6.802888427734375,0.5215472548574209,-0.4337842157304287,0.2030976835295558
1772537561311955500,6.81295556640625,0.506446131837368,-0.5316641597241163,0.11499233377091586
1772537561322023400,6.8230234375,0.5664554871201515,-0.6162754568219184,0.02493953973893076
1772537561332090400,6.83309033203125,0.6294704539597034,-0.6754775873750448,-0.08195285501088946
1772537561342158600,6.84315869140625,0.6297860957801341,-0.6839701059103012,-0.14288173629138617
1772537561352226600,6.8532265625,0.5740314753323793,-0.7102379351109266,-0.15148867498654872
1772537561362293500,6.86329345703125,0.4819850597977638,-0.7444798119306564,-0.367896616064012
1772537561372361500,6.873361572265625,0.36060792036056516,-0.7364882286548614,-0.5268144181380048
1772537561382429400,6.883429443359375,0.36535365358293054,-0.7218465398401022,-0.6010610096205026
1772537561392496400,6.893496337890625,0.5045224702984095,-0.7344581841319799,-0.588541938982904
1772537561402564600,6.903564697265625,0.7323433839350938,-0.8126642903625965,-0.36576205172073095
1772537561412632600,6.913632568359375,0.9415326623380184,-0.8711603184729814,0.0005264715595170855
1772537561422699500,6.923699462890625,0.9517582882761955,-0.8867658838838338,0.294675422106497
1772537561432767500,6.933767578125,0.782395993348956,-0.9526210425853728,0.4100665459366515
1772537561442835500,6.94383544921875,0.4021247566193342,-1.0705489183515309,0.2788268782526255
1772537561452902700,6.953902587890625,-0.1778723491191864,-1.1925094106346368,-0.09827193898595869
1772537561462970400,6.963970458984375,-0.6995563820987939,-1.2049568042755125,-0.5028092366397381
1772537561473037600,6.97403759765625,-1.033737483304739,-1.1575246064931153,-0.8587973882451653
1772537561483105500,6.98410546875,-1.2384352955073117,-1.0907611007750033,-1.1346253769427537
1772537561493173200,6.99417333984375,-1.2944506127178668,-1.0323305391162634,-1.2767306855015457
1772537561503240400,7.004240478515625,-1.283564477044344,-1.0251987875401973,-1.355599785685539
1772537561513308400,7.014308349609375,-1.3270137426704167,-0.964510217821598,-1.597769250409305
1772537561523376400,7.02437646484375,-1.289220895370841,-0.8849111959278583,-1.8095457688264547
1772537561533443300,7.034443359375,-1.143908753594756,-0.7001011564999818,-1.9096964342311022
1772537561543511300,7.04451123046875,-0.9521610238581896,-0.3847819921523332,-1.8706604550026356
1772537561553579300,7.054579345703125,-0.6686299134373664,-0.06359188994467257,-1.6930172384642064
1772537561563646500,7.064646484375,-0.38337855509519575,0.29279285976290703,-1.4806272643238305
1772537561573714400,7.07471435546875,-0.12352525738179683,0.627690000283718,-1.2875338190667331
1772537561583782400,7.084782470703125,0.14464987847507,0.9397475324869156,-0.9432348631460219
1772537561593849300,7.094849365234375,0.4189695084363222,1.180578734344244,-0.49684283904861654
1772537561603917300,7.104917236328125,0.6236807646423578,1.3110755843043327,-0.07392538300438319
1772537561613984300,7.114984375,0.7055208434611558,1.3282453302919863,0.25278520422438155
1772537561624052500,7.125052490234375,0.5633002379596233,1.2477239328563212,0.36870833430569616
1772537561634120400,7.135120361328125,0.2807189756095409,1.0676754087418316,0.2616975008079782
1772537561644187400,7.1451875,-0.06792144358158111,0.8787561804294586,-0.012104089778673369
1772537561654255400,7.15525537109375,-0.4138444205075502,0.7054454401373863,-0.3216698485486209
1772537561664323300,7.1653232421875,-0.5825339307397603,0.5398755232304334,-0.5964552693907171
1772537561674390500,7.175390625,-0.5773860464572906,0.4151835601568222,-0.8443866586420684
1772537561684458500,7.18545849609375,-0.5134270767658948,0.29460370857715606,-1.0036701156906782
1772537561694526500,7.1955263671875,-0.428412459564209,0.1616723249465227,-1.0671415210608393
1772537561704593400,7.205593505859375,-0.4606663774371147,0.02825929527878761,-1.1077149389896541
1772537561714661400,7.215661376953125,-0.6035094987511634,-0.06530804621279239,-1.1919786647588013
1772537561724729600,7.2257294921875,-0.7549187883585691,-0.11695698490738868,-1.2255771291084587
1772537561734796500,7.235796630859375,-0.8614736217170953,-0.11669395005702972,-1.2140601481854916
1772537561744864500,7.245864501953125,-0.8958967003226279,-0.050879123365879055,-1.2407868270695208
1772537561754931500,7.255931396484375,-0.8749515274494886,0.057310617718100546,-1.2659873192995785
1772537561764999400,7.26599951171875,-0.7203793898969888,0.22224925098419188,-1.1906477814812213
1772537561775067400,7.2760673828125,-0.4567804759144783,0.39152211406230925,-1.0547807097248731
1772537561785134600,7.286134521484375,-0.14607202023267746,0.5680050546497106,-0.8245903635431081
1772537561795202600,7.29620263671875,0.1470809050142765,0.7394692902922629,-0.5133707800013945
1772537561805270500,7.3062705078125,0.38600656551122664,0.8934083906382322,-0.22908675058772787
1772537561815337500,7.31633740234375,0.5690168620407581,1.0328402422040701,-0.01456370537483599
1772537561825405400,7.326405517578125,0.7061503735363484,1.1113508843392133,0.20979634091798216
1772537561835473700,7.3364736328125,0.7659814496427774,1.14157008151412,0.33085623109955337
1772537561845540600,7.34654052734375,0.7016296812415123,1.0780395663678646,0.39987164393030106
1772537561855608600,7.356608642578125,0.5632651666462422,0.9460527701109647,0.418961471260339
1772537561865676300,7.36667626953125,0.453828640371561,0.8083318141162396,0.46435668332241475
1772537561875743500,7.376743408203125,0.37654724777042864,0.6693932990252971,0.5742149421405047
1772537561885811500,7.3868115234375,0.2680769361793995,0.5397703092902898,0.6432606405116618
1772537561895878700,7.396878662109375,0.12822598241865635,0.4244838879436254,0.6026524800630286
1772537561905946400,7.4069462890625,-0.009191022193431854,0.29607261208593844,0.4792029547985643
1772537561916014300,7.417014404296875,-0.09361644133031367,0.1379921741515398,0.35205234652645884
1772537561926081500,7.42708154296875,-0.14818389782011507,0.00022036475241184232,0.2536790843241848
1772537561936149200,7.437149169921875,-0.1810743600308895,-0.14591127671301363,0.09122005684622563
1772537561946217500,7.447217529296875,-0.10872340956926345,-0.24968787752985952,-0.04593753877785057
1772537561956284400,7.457284423828125,-0.00825403360426426,-0.35273908668160436,-0.1559958319463767
1772537561966352400,7.467352294921875,0.13413374515771864,-0.42199499373733995,-0.11028854912729003
1772537561976420400,7.47742041015625,0.2882312509357929,-0.469979564705491,0.053681038177246225
1772537561986487300,7.4874873046875,0.3464467085391283,-0.4744342060267925,0.322572350346297
1772537561996555300,7.49755517578125,0.2772738035917282,-0.37906069189608094,0.6251193460781127
1772537562006623500,7.50762353515625,0.1183767885774374,-0.2647556828022003,0.8024712515197694
1772537562016690400,7.5176904296875,-0.015377601873874663,-0.180433724039793,0.845943971086666
1772537562026758400,7.52775830078125,0.003985270243883132,-0.1232218905210495,0.9022812867932021
1772537562036826400,7.537826416015625,0.1878635817795992,-0.08881985470354556,0.9988234793771058
1772537562046893300,7.547893310546875,0.4950140527188778,-0.05422551118433475,1.1404202538918704
1772537562056961500,7.55796142578125,0.7770236526608467,-0.01065992570221424,1.2958046576753257
1772537562067028500,7.568028564453125,0.9508312365591526,0.010989011526107787,1.3434236102014778
1772537562077096400,7.578096435546875,1.0427332751870155,-0.035839959666132924,1.3548045436546206
1772537562087164400,7.588164306640625,1.0219757338404656,-0.10248130030930042,1.3063643378734588
1772537562097231400,7.5982314453125,0.9435404950290918,-0.16607845095098017,1.2449290414407848
1772537562107299300,7.60829931640625,0.9035515989899635,-0.255815420499444,1.2135937727827577
1772537562117367600,7.618367431640625,0.9001759850770235,-0.3004278846859932,1.257435764053464
1772537562127434500,7.6284345703125,0.9070131376206875,-0.3581014904975891,1.3219886079847811
1772537562137502500,7.63850244140625,0.8167056747078895,-0.4532856195360422,1.282882486129552
1772537562147570400,7.6485703125,0.5853180085003375,-0.5485860684305429,1.1595521667979658
1772537562157637400,7.658637451171875,0.3880255041182041,-0.6057984864711761,1.089737164554745
1772537562167705600,7.66870556640625,0.2939092965722084,-0.7033084281086921,1.0258277330935002
1772537562177773600,7.678773681640625,0.22091654107570646,-0.7689461446672677,0.9138517514690756
1772537562187840500,7.688840576171875,0.2075350814551115,-0.8536252463042736,0.7566730116147548
1772537562197908500,7.698908447265625,0.29735680667757985,-0.9313561362385749,0.6016026056839153
1772537562207975400,7.708975341796875,0.3769523214399814,-0.9779939687728881,0.455544175585173
1772537562218043400,7.71904345703125,0.4223357699990272,-0.9768839617043733,0.3376598832324147
1772537562228111600,7.729111572265625,0.4261503598511219,-0.9342758230775594,0.25589075075797735
1772537562238178600,7.739178466796875,0.3631289632707834,-0.8998322862058877,0.15170011664698832
1772537562248246500,7.74924658203125,0.28479660031199455,-0.8439537471175194,0.03517173241521231
1772537562258314500,7.759314453125,0.23592706320285795,-0.8014338712960482,-0.008321591548295692
1772537562268381700,7.769381591796875,0.36288814025223254,-0.7798837182670831,0.18192038240097463
1772537562278449700,7.77944970703125,0.6754851861596107,-0.7039911496758461,0.5913233863949775
1772537562288517600,7.789517578125,0.9840729964256286,-0.6326549292147159,0.9535966096192597
1772537562298584600,7.79958447265625,1.0269979459166527,-0.6032084699779748,1.0374103265985846
1772537562308652500,7.809652587890625,0.8252104682028293,-0.6205442201822996,0.916226590841636
1772537562318720500,7.819720458984375,0.5812760396331549,-0.7106991228818893,0.6582160714507103
1772537562328787700,7.82978759765625,0.20216098720133305,-0.8159411200761795,0.3115670452725142
1772537562338855700,7.839855712890625,-0.23533435800671576,-0.7946352971971035,-0.022338944769499356
1772537562348922600,7.849922607421875,-0.6619388913661242,-0.6916933936387301,-0.3415596306173131
1772537562358990600,7.859990478515625,-0.9787304663538933,-0.518410125875473,-0.6368244699843227
1772537562369058600,7.87005859375,-1.1567670661240816,-0.3157482034146786,-0.8196659858182073
1772537562379125500,7.88012548828125,-1.123283898717165,-0.175483992677927,-0.8158033190406858
1772537562389193700,7.89019384765625,-1.0516945802778006,0.01725567070543766,-0.7740554505050182
1772537562399261700,7.90026171875,-1.0663146417826412,0.23745558794438837,-0.7580824400212616
1772537562409328600,7.91032861328125,-1.0565993034541605,0.4535194282919168,-0.725069958866015
1772537562419396600,7.920396728515625,-0.8693746040999889,0.6102145493477582,-0.6240942408140748
1772537562429464600,7.930464599609375,-0.5809031146675347,0.7416483878970146,-0.5288754788536578
1772537562439531800,7.94053173828125,-0.3060048080354929,0.8866174153238534,-0.5340843360757455
1772537562449599700,7.950599853515625,-0.09269523483216761,0.9824000947773456,-0.643457916649431
1772537562459667700,7.960667724609375,0.10906301678717135,1.0538409446567296,-0.8229423040751367
1772537562469734700,7.970734619140625,0.39345278986394405,1.085722522085905,-0.8228503880079835
1772537562479802600,7.980802734375,0.7957394590467214,1.0385194568842648,-0.7477538651652633
1772537562489869600,7.99086962890625,1.2258809343606234,0.9699404261767863,-0.6063614541161805
1772537562499937800,8.000937744140625,1.5673615449249743,0.8961299245566129,-0.41298667116705323
1772537562510005800,8.011005859375,1.7785358596652745,0.7602695017367601,-0.2528284588442184
1772537562520072700,8.02107275390625,1.7740443934649228,0.6197486858904362,-0.18633858243571594
1772537562530140700,8.031140625,1.5225661253869534,0.508665561452508,-0.23283439441714435
1772537562540208600,8.041208740234374,1.102930846518278,0.4107856174588203,-0.29780007519936186
1772537562550275800,8.05127587890625,0.6657949822723865,0.3412462172865867,-0.35673133465554563
1772537562560343800,8.06134375,0.21853870602846145,0.2725450215041637,-0.3833331815835088
1772537562570411800,8.071411865234374,-0.20423896251916884,0.21865561040639875,-0.37586364942044015
1772537562580478700,8.081478759765625,-0.543666147685051,0.18982874437272548,-0.3268234684521332
1772537562590546700,8.091546630859375,-0.8507482295632361,0.18399053973853588,-0.30033346613449974
1772537562600615000,8.101614990234374,-1.05507077871263,0.2224538336455822,-0.23407462200289592
1772537562610681900,8.111681884765625,-1.0469242971360684,0.2613046655654907,-0.09529300537356175
1772537562620749800,8.121749755859375,-0.8616858031630515,0.3113251262754202,0.13127443760330787
1772537562630816800,8.131816650390626,-0.6029185471206903,0.36391046903729435,0.3491653198480606
1772537562640884700,8.141884765625,-0.3942348801523447,0.41784605736434455,0.4689939877342432
1772537562650952700,8.15195263671875,-0.23931202946603297,0.39359132155179977,0.5215475105857477
1772537562661020000,8.16202001953125,-0.10762392389476298,0.3567313711881637,0.47949145288374273
1772537562671087600,8.172087646484375,-0.007063947036862373,0.33077567667663094,0.43499998472835866
1772537562681155600,8.182155517578124,0.15826222424209116,0.3025613895833492,0.389783636364527
1772537562691222800,8.192222900390625,0.38970483550727364,0.25312486624121666,0.3468829810645431
1772537562701290500,8.20229052734375,0.578140664216876,0.15237842690050601,0.2626777074843645
1772537562711358700,8.212358642578126,0.6790168674170971,0.03985737861394882,0.1306693021838553
1772537562721425700,8.22242578125,0.7515016733914613,-0.030307459980249404,0.03022359935538843
1772537562731493600,8.23249365234375,0.8323959957927465,-0.045806057885289186,0.07449926933562383
1772537562741561600,8.2425615234375,0.9083148678690195,-0.03837269301414489,0.1515109507504385
1772537562751628500,8.252628662109375,0.8819558532536029,-0.08430091597437858,0.15364095764961092
1772537562761696500,8.262696533203124,0.8083125248938798,-0.1442009656637907,0.11842186982817947
1772537562771764700,8.2727646484375,0.7079384259968996,-0.23733108478188514,0.08626717454604804
1772537562781831700,8.282831787109375,0.561443211916089,-0.28435177915394305,0.046936742415651676
1772537562791899600,8.292899658203124,0.4514338541895151,-0.30909225265681745,-0.009667535397689789
1772537562801966600,8.302966552734375,0.39013212100863454,-0.3327998759806156,-0.1018810693938285
1772537562812034600,8.31303466796875,0.34723639761209485,-0.37727439300119875,-0.23406579937562344
1772537562822102800,8.323102783203124,0.2403822890460491,-0.4279109397828579,-0.3679893358487636
1772537562832169700,8.333169677734375,0.14821137034893034,-0.4631535180777311,-0.4320750006597489
1772537562842237700,8.34323779296875,0.13589374056756495,-0.49475627856552595,-0.4362735117955133
1772537562852305700,8.3533056640625,0.16062719980776308,-0.5150128846526145,-0.4120571717645973
1772537562862372600,8.36337255859375,0.1988286279082298,-0.5080863002598285,-0.39416780626550313
1772537562872440600,8.373440673828124,0.2152601227492094,-0.5561509507268667,-0.42151619724445044
1772537562882508800,8.3835087890625,0.18742811297178266,-0.6175368550598621,-0.4844950698573142
1772537562892575700,8.39357568359375,0.11313012009561062,-0.6429296549916267,-0.5330880550473928
1772537562902643700,8.403643798828124,0.03366612275838852,-0.6182189921051263,-0.560596166632697
1772537562912711700,8.413711669921875,-0.05134907896518707,-0.5811275710731745,-0.6203100461002439
1772537562922778600,8.423778564453125,-0.09774258134961128,-0.5546253485947847,-0.7130348723530769
1772537562932846800,8.433846923828124,0.014462825116515159,-0.49521512824892994,-0.7286047088634222
1772537562942913800,8.443913818359375,0.31223698042333126,-0.505429648271203,-0.6158670952167362
1772537562952981800,8.453981689453125,0.7357154907166957,-0.5354179592996835,-0.3805670048058033
1772537562963049700,8.4640498046875,1.15425186843276,-0.6450877098083496,-0.09538756092237308
1772537562973116700,8.47411669921875,1.240461832898855,-0.7086702474027872,0.038734187836875204
1772537562983184600,8.4841845703125,0.898069368186593,-0.8015238876670598,-0.05992092808065936
1772537562993252900,8.4942529296875,0.3406488359153271,-0.8822738331615925,-0.30798480287157
1772537563003319800,8.50431982421875,-0.16645897470116613,-0.9759498957246542,-0.46855380621869114
1772537563013387800,8.5143876953125,-0.5586316616266965,-0.9401485145032406,-0.5264618418406695
1772537563023455700,8.524455810546876,-0.8094277926594019,-0.8798065662652254,-0.4007658528236672
1772537563033522700,8.534522705078125,-1.0007534975916146,-0.8449562021583318,-0.3444412504682317
1772537563043591000,8.5445908203125,-1.3205600364863872,-0.7933563633024692,-0.49690742871742694
1772537563053658600,8.55465869140625,-1.6081249324679374,-0.7386164728552103,-0.692858564960584
1772537563063725800,8.564725830078125,-1.7301824553847311,-0.6770277394264936,-0.8146993763867765
1772537563073793500,8.57479345703125,-1.6330694041103124,-0.5791518870860338,-0.7630629318475722
1772537563083860700,8.58486083984375,-1.4442916300952433,-0.47888475569486616,-0.7224764352414756
1772537563093928400,8.594928466796874,-1.4212339951127766,-0.37441315835118294,-0.7956392135426401
1772537563103996700,8.60499658203125,-1.4874813680022954,-0.17953706746101378,-0.9579811083137989
1772537563114063600,8.615063720703125,-1.5085206488996743,0.06186871941387653,-1.1425018094062804
1772537563124131600,8.625131591796874,-1.4111135831147432,0.33315994146466255,-1.1596466401483863
1772537563134199600,8.635199462890625,-1.177969428628683,0.6986340065568685,-1.0517299438521266
1772537563144266500,8.6452666015625,-0.8663970495939254,1.0975614284396171,-0.8121835211083293
1772537563154334700,8.655334716796874,-0.46519057686328885,1.4286381338894367,-0.5154935808416455
1772537563164402700,8.665402587890625,-0.068954878282547,1.6675637943863868,-0.2246081986678764
1772537563174469600,8.6754697265625,0.26251813300848004,1.7704571826279163,0.03529273757953197
1772537563184537600,8.68553759765625,0.5420002602994441,1.746059823474288,0.1953722038440406
1772537563194605600,8.69560546875,0.6530927370876074,1.629782053002715,0.20545484111495316
1772537563204672500,8.705672607421874,0.6015121874541044,1.5044728348135947,0.19706943621598183
1772537563214740700,8.71574072265625,0.4953618432432413,1.3690133940100668,0.16559749903362245
1772537563224808700,8.72580859375,0.37396190745234487,1.2027701078861952,0.0882698926705867
1772537563234875600,8.735875732421874,0.23393676616847514,1.0345996530920267,-0.0340278322102502
1772537563244943600,8.745943603515625,0.08150573229789733,0.8586439512491225,-0.16251575350072234
1772537563255010600,8.756010498046875,-0.058960723012685776,0.6689817956149577,-0.30761286428663875
1772537563265079000,8.7660791015625,-0.1589011066675186,0.47693011449575423,-0.47523920226674526
1772537563275147000,8.77614697265625,-0.30903029333651066,0.23628595964312551,-0.7535389513727277
1772537563285214000,8.7862138671875,-0.5341033695697784,0.007676525977253913,-1.1364555149793625
1772537563295282000,8.796281982421876,-0.6809861216634512,-0.14786591791212558,-1.3925713797301054
1772537563305350000,8.806349853515625,-0.667489511230588,-0.21028993312120436,-1.4225180435739457
1772537563315417000,8.8164169921875,-0.5781839188367128,-0.2060275995016098,-1.3119282556109129
1772537563325485000,8.826485107421876,-0.4824778117507696,-0.10256313337385654,-1.2113926825419068
1772537563335553000,8.836552978515625,-0.42477439532279965,0.057895724129676814,-1.036310110271722
1772537563345620000,8.846619873046874,-0.41274902648627754,0.23638065218925475,-0.866743817204982
1772537563355688000,8.85668798828125,-0.3907780176967382,0.38977439361214633,-0.7231373103030025
1772537563365756200,8.866756103515625,-0.4105553158342838,0.5572901838898658,-0.6003568068739027
1772537563375823000,8.876822998046874,-0.3403413774013519,0.7193366028457879,-0.4874054774112999
1772537563385891000,8.88689111328125,-0.11810381685495376,0.8547440212011337,-0.2933149474082514
1772537563395958000,8.8969580078125,0.16968436648845672,0.9334954863548278,-0.1004012426322326
1772537563406026000,8.90702587890625,0.4597223745852709,0.9828840789020061,0.04286021369174123
1772537563416094000,8.917093994140625,0.7221323710441588,1.05341132106781,0.20352193682361394
1772537563426161200,8.9271611328125,0.9279466200560331,1.1385831746578217,0.4144836682591587
1772537563436228900,8.937228759765626,1.0014742130815981,1.055352518263459,0.5008894840909168
1772537563446296800,8.947296875,0.8120096258461474,0.915109934836626,0.3291334258949384
1772537563456364000,8.957364013671874,0.5520107821822167,0.7480220145821571,0.08704745646985247
1772537563466431700,8.967431640625,0.2614168937683105,0.5544803871661425,-0.16805672875400632
1772537563476500000,8.9775,0.043159927290678024,0.43823768800795077,-0.3798338682256639
1772537563486567000,8.98756689453125,-0.19326690212786196,0.36153263399004937,-0.5819384855972602
1772537563496635000,8.997634765625,-0.4165945959985256,0.4852314943730831,-0.7278166272256523
1772537563506702800,9.007702880859375,-0.4666559732407331,0.21681670454144478,-0.4722476923005655
1772537563516769800,9.017769775390626,-0.4254541942805052,-0.012875263664126396,-0.3408736576471478
1772537563526837800,9.027837646484375,-0.5119055662870406,0.11402443858683109,-0.6559907235514372
1772537563536905000,9.037905029296875,-0.7469014861196279,-0.08102583982646465,-0.7497306451309472
1772537563546973000,9.047972900390626,-0.9371820659130811,-0.23386603901982306,-0.5611845609799027
1772537563557041000,9.058041015625,-0.9629869537770748,-0.15699381174147128,-0.34746121934391555
1772537563567107800,9.06810791015625,-0.9339572586476802,-0.0670680416226387,-0.1437530209668912
1772537563577175800,9.07817578125,-1.0425035580843687,0.007347440153360366,-0.12724738317746667
1772537563587244000,9.088244140625,-1.2551292406767607,0.13830080170929432,-0.3136592683114111
1772537563597311000,9.09831103515625,-1.377235863432288,0.23554887754023074,-0.3580915536254644
1772537563607379000,9.10837890625,-1.390015265506506,0.2540951725780964,-0.40979072466995564
1772537563617447000,9.118447021484375,-1.2704635879307984,0.30387071861624715,-0.45208917629309
1772537563627513900,9.128513916015624,-1.0631681604504584,0.3587053016096353,-0.42848603625707327
1772537563637581800,9.138581787109375,-0.7703104187577963,0.3616267420142889,-0.33555911156088114
1772537563647650000,9.148650146484375,-0.4421218359649181,0.33038813866376876,-0.09789846603106707
1772537563657717000,9.158717041015626,-0.17164485290646553,0.2042974147081375,0.20214332368047908
1772537563667785000,9.168784912109375,-0.019455226576328276,0.03191255708932876,0.36195407427251336
1772537563677853000,9.17885302734375,-0.001616203024983406,-0.15544950490891932,0.30872046020235866
1772537563687919900,9.188919921875,-0.1611275505453348,-0.3179325617164373,0.04994429020117968
1772537563697988000,9.198988037109375,-0.34530630633234977,-0.38118250635564327,-0.320436434296146
1772537563708055000,9.209054931640624,-0.5346025512635707,-0.407568993499875,-0.5959872865527868
1772537563718123000,9.219123046875,-0.7038257299810647,-0.2833352955877781,-0.7275774847075342
1772537563728191000,9.22919091796875,-0.8034475492060184,-0.05556991153061389,-0.705144849755615
1772537563738258000,9.2392578125,-0.846020616519451,0.1270773969054222,-0.6940132148884236
1772537563748326000,9.249325927734375,-0.6927905412256717,0.24091712657511233,-0.5920078249951825
1772537563758394000,9.25939404296875,-0.6341127268075942,0.40034079581201076,-0.32446010032165795
1772537563768461000,9.2694609375,-0.7738292405337095,0.533233016476035,-0.11730886708498
1772537563778529000,9.279529052734375,-0.7630161700963973,0.5046206699758767,-0.0624058950304985
1772537563788597000,9.289596923828125,-0.6684142248600721,0.629251258251071,-0.01727605590634048
1772537563798664000,9.299663818359376,-0.7435545137792825,0.8461679160356521,-0.10871661450229585
1772537563808732200,9.309732177734375,-1.0294751496851444,0.8138871101558208,-0.34258016930408774
1772537563818799900,9.3197998046875,-1.234063656294346,0.8565548700153827,-0.5561331958744674
1772537563828867000,9.3298671875,-1.1640636528730393,0.9719669635683298,-0.6124984955664724
1772537563838934800,9.339934814453125,-0.9853326410979032,0.9602104748010635,-0.5580575150005519
1772537563849001000,9.3500009765625,-0.8382628419995307,0.9223544991374015,-0.45733540638349945
1772537563859069000,9.36006884765625,-0.7652046200513839,0.834946264797449,-0.4530243382513523
1772537563869136000,9.370135986328124,-0.7184159808695316,0.727553811571002,-0.5222872595697641
1772537563879204000,9.3802041015625,-0.5731400794506073,0.7141857959538698,-0.479375096495077
1772537563889272000,9.39027197265625,-0.40059740092158314,0.6826099234730005,-0.2629518482506275
1772537563899339000,9.400339111328124,-0.16262392658293245,0.6673340284079313,0.06858465673066676
1772537563909407000,9.410406982421875,0.06765080994665622,0.5848878003895283,0.437785852587223
1772537563919475000,9.420474853515625,0.2598375156223774,0.3823153097778558,0.6412907286781817
1772537563929542000,9.4305419921875,0.467405914825201,0.2050298206359148,0.6569472936239094
1772537563939610000,9.440610107421875,0.640040363290906,0.11415829409956932,0.6437284041538834
1772537563949677800,9.450677734375,0.7573644279450178,0.1300666418492794,0.596769888297841
1772537563959745000,9.4607451171875,0.8028583511412143,0.1848474488288164,0.47779593754485244
1772537563969813000,9.47081298828125,0.6279840147942304,0.20441139647662637,0.2875547399137169
1772537563979880000,9.4808798828125,0.380920056027174,0.25041911441385745,0.016739684007316825
1772537563989948200,9.4909482421875,0.1640115815490484,0.34214170482158657,-0.11860416759252547
1772537564000016000,9.501015869140625,-0.05101180983483791,0.41430443923473353,0.013812544514238833
1772537564010083000,9.5110830078125,-0.11055588569343089,0.4462333629369735,0.17370025106631218
1772537564020150800,9.52115087890625,-0.008299041789770126,0.44043841292262076,0.3971648691896349
1772537564030218800,9.53121875,0.20616963832080362,0.42028234460055824,0.6440753909606486
1772537564040286000,9.541285888671876,0.5371107346922159,0.3382154712885618,0.9074052056781947
1772537564050354000,9.55135400390625,0.8252548918664455,0.18629589407145977,1.1059644420605153
1772537564060422000,9.561421875,1.0470745192617177,0.07598141591846942,1.1822563852328807
1772537564070488800,9.57148876953125,1.193719370946288,-0.036948213168978686,1.113152599998936
1772537564080556800,9.581556884765625,1.1497738462358713,-0.22842647831439972,0.8433194678019732
1772537564090625000,9.591625,0.9678221188485622,-0.36772388984560966,0.38447102650702
1772537564100692000,9.60169189453125,0.6380518198221922,-0.4264297613143921,0.04209317484200001
1772537564110760000,9.611760009765625,0.3576139992415905,-0.5092237798571586,-0.20377945524863897
1772537564120827000,9.621826904296874,0.17536182760298252,-0.5565758981406689,-0.34667131107524035
1772537564130894800,9.631894775390625,0.11863105559945106,-0.5330968228757381,-0.35722163892313835
1772537564140962800,9.641962890625,0.18233400470316408,-0.5490905108213424,-0.2536642338149249
1772537564151029800,9.65202978515625,0.3279939370036125,-0.5869885720610618,-0.12854396232664583
1772537564161098000,9.662097900390625,0.5126350496053695,-0.5899918455302715,-0.06293174553550779
1772537564171166000,9.672166015625,0.6973135716080665,-0.5519903239160776,0.0471104184821248
1772537564181233000,9.68223291015625,0.7855155866742134,-0.5064157366991042,0.154461662915349
1772537564191300900,9.69230078125,0.7630003880053758,-0.45174540435671806,0.14459756376594304
1772537564201369000,9.702369140625,0.6389432157039642,-0.4082593138515949,0.03417283017151058
1772537564211436000,9.71243603515625,0.500272996160388,-0.3751899879425764,-0.007450900527834892
1772537564221504000,9.72250390625,0.4439747703552246,-0.40758243750333784,0.008610299696028232
1772537564231572000,9.732572021484375,0.4708703760653734,-0.47956923082768915,0.03430252096578479
1772537564241641000,9.742640869140626,0.5607207428604364,-0.5357260023355483,0.03486884961165487
1772537564251708000,9.7527080078125,0.648231268531084,-0.5734960532814264,0.08762173096016049
1772537564261775600,9.762775634765624,0.7197989596605301,-0.6047416708946227,0.19750855828560887
1772537564271843300,9.77284326171875,0.7143804417431354,-0.6350953081041574,0.26154738828018304
1772537564281910500,9.78291064453125,0.6304618030846119,-0.6309124694615602,0.26032654124833643
1772537564291978200,9.792978271484374,0.5280570751428604,-0.6234674141526222,0.24486060350388286
1772537564302045400,9.80304541015625,0.43496494994759555,-0.6106476800680161,0.19855558312050997
1772537564312113400,9.813113525390625,0.45267304059565067,-0.5848223339378833,0.16013379026763142
1772537564322181400,9.823181396484374,0.5823989061832427,-0.5487526571691036,0.19460626097284256
1772537564332248600,9.83324853515625,0.7184253332197665,-0.5679547857671976,0.34262875768616796
1772537564342316300,9.84331640625,0.8461129709780215,-0.624098113271594,0.4885843119323253
1772537564352384300,9.85338427734375,0.8626806594192982,-0.6426987688452005,0.6387954047311097
1772537564362451500,9.863451416015625,0.7249024202793836,-0.6824696382194757,0.7011197589579969
1772537564372519400,9.87351953125,0.4381745596438646,-0.705153179192543,0.5827288687899709
1772537564382587400,9.88358740234375,0.08835106814801692,-0.6729454385489225,0.33494492518529295
1772537564392654300,9.893654296875,-0.20925416033267974,-0.6125140584617853,0.17775515248030424
1772537564402722300,9.903722412109374,-0.34523616370558735,-0.6029062721610069,0.1397075997672975
1772537564412790500,9.91379052734375,-0.3705518067479133,-0.6110743810474872,0.22222791593521832
1772537564422857500,9.923857421875,-0.3716144675433635,-0.61548927488029,0.3504339515443891
1772537564432925400,9.933925537109374,-0.38711189640462396,-0.6425292574971914,0.38724955130964517
1772537564442992400,9.943992431640625,-0.462612835329771,-0.7361258250832557,0.2556388948887586
1772537564453060400,9.954060302734375,-0.6427963840007782,-0.8002396930754184,-0.04875767423249781
1772537564463128300,9.96412841796875,-0.836693985247612,-0.7605787138164043,-0.40432548153400416
1772537564473195500,9.974195556640625,-0.9657096567392349,-0.6927642377406358,-0.688523312235251
1772537564483263500,9.984263427734374,-0.9981365930914878,-0.6520522881239652,-0.8807131597161293
1772537564493331500,9.99433154296875,-1.00492113866508,-0.5336608864992857,-1.0243556147143245
1772537564503398400,10.0043984375,-1.0459241801828145,-0.3013414923995733,-1.1084634192693978
1772537564513466400,10.01446630859375,-1.0764975976228712,0.03405249172747135,-1.0522761795580386
1772537564523534600,10.02453466796875,-1.0089192683905361,0.32424539812505243,-0.9064354107979684
1772537564533601500,10.0346015625,-0.8859609972417354,0.49618777267336844,-0.6660539254695177
1772537564543669500,10.04466943359375,-0.668569123160839,0.6572200461506843,-0.4038668510463089
1772537564553737500,10.054737548828125,-0.34126726007461544,0.8182821302443742,-0.1910757487591356
1772537564563804400,10.064804443359375,-0.05991290917098522,0.9378057507693767,0.026383710665255782
1772537564573872400,10.074872314453126,0.20416531276106833,1.0406313344717024,0.18258089213632045
1772537564583940600,10.084940673828125,0.4854875149607658,1.105051491934061,0.320621508539468
1772537564594007600,10.095007568359375,0.6967816566884517,1.0585299792557954,0.49046778759136794
1772537564604075500,10.105075439453126,0.7294564303219317,0.9841793794095516,0.5531576871950179
1772537564614142500,10.115142578125,0.6075625735342502,0.8951181171655654,0.542290621548146
1772537564624210400,10.12521044921875,0.42206922801733016,0.826343271625042,0.4484143602378666
1772537564634278700,10.135278564453126,0.1393424197167158,0.8128905003339052,0.3429065517142415
1772537564644345600,10.145345703125,-0.1775011777192354,0.7980892370432615,0.2686773497579619
1772537564654413600,10.15541357421875,-0.4703326159268617,0.7423889771312475,0.1344142060669139
1772537564664481300,10.165481201171875,-0.6788251442372798,0.656457829606533,0.006152677410840988
1772537564674548500,10.175548583984375,-0.8234826214969158,0.46374739231765266,-0.19965799140445886
1772537564684616400,10.185616455078126,-0.8222837671011686,0.2148112099379301,-0.4305574722362682
1772537564694684400,10.195684326171875,-0.8246914127647876,0.029150691160559652,-0.6452656236585229
1772537564704751600,10.205751708984375,-0.8426099312931299,-0.004188099339604377,-0.8496827192235737
1772537564714819300,10.2158193359375,-0.8168243326514959,0.03718494453430175,-1.0473094239961356
1772537564724887300,10.22588720703125,-0.7323650112450122,0.08025485545396804,-1.179352918876335
1772537564734954200,10.235954345703124,-0.6314952377855777,0.18989596439003945,-1.1104719826128333
1772537564745022500,10.2460224609375,-0.43501755691766736,0.2920662990540266,-0.9316176367189735
1772537564755090400,10.25609033203125,-0.2750806774616241,0.3410913189858198,-0.6152960903957486
1772537564765157400,10.266157470703124,-0.13351532099843025,0.35666415117084976,-0.3397454938674345
1772537564775225300,10.276225341796875,-0.006157938107848167,0.41019232774078845,-0.15450886305794118
1772537564785292300,10.286292236328125,0.12681903823018073,0.4954927761465311,-0.006252959447540342
1772537564795360300,10.2963603515625,0.36353637502789493,0.6168629013210535,0.17666549408007412
1772537564805428500,10.306428466796875,0.6239771172404289,0.5744768810123205,0.3435702032547444
1772537564815495400,10.316495361328125,0.7153191838979721,0.510487516182661,0.3284956394480541
1772537564825563400,10.3265634765625,0.7539210094928741,0.5675006122589111,0.25152002486046404
1772537564835631400,10.33663134765625,0.7191969021141529,0.5389402882069348,0.17529175804145633
1772537564845698300,10.3466982421875,0.6375415322124958,0.5057926363646984,0.13409812585506586
1772537564855766500,10.3567666015625,0.47130876748263834,0.45827100673317905,0.07713054942097515
1772537564865834500,10.36683447265625,0.2883493243575096,0.3963163626015186,-0.03918766265884042
1772537564875901400,10.3769013671875,0.07986556387543678,0.3623059564501047,-0.18566716771386563
1772537564885969400,10.386969482421875,0.005664017111063003,0.3142681939899921,-0.28070991552025076
1772537564896037400,10.397037353515625,0.00969838719367981,0.21061668085753915,-0.26952428544349966
1772537564906104300,10.407104248046876,0.060875616723299025,0.13218202656805514,-0.22194712623246013
1772537564916172500,10.417172607421875,0.14745266093611717,0.10490297449827193,-0.22010573614947496
1772537564926239500,10.427239501953125,0.155987265047431,0.04471066386401653,-0.2164382996831089
1772537564936307500,10.437307373046876,0.08430208501815796,0.010651157873868942,-0.20768055434040725
1772537564946375400,10.44737548828125,0.025471125864982604,0.03842939163744449,-0.2250347900494933
1772537564956442400,10.4574423828125,-0.032141105148196215,0.03841770119965076,-0.20839608219861983
1772537564966510600,10.467510498046876,-0.08944178599417209,-0.00203998139500618,-0.1054994790866971
1772537564976578600,10.47757861328125,-0.07087853982150555,-0.0463853190779686,0.013558569753170012
1772537564986645500,10.4876455078125,-0.04069266039431095,-0.01973696612715721,0.1334118606239557
1772537564996713500,10.49771337890625,0.03760872290432453,-0.1775835953056812,0.3675369159061461
1772537565006781400,10.507781494140625,0.13245266020298002,-0.2699187646538019,0.5112744287766516
1772537565016848400,10.517848388671876,0.22556232105493546,-0.2014735894590616,0.4245342298913747
1772537565026916600,10.52791650390625,0.24246201792955396,-0.1793009206175804,0.25027744092084464
1772537565036984300,10.537984375,0.17906886542737482,-0.26382453943192957,0.12353870138525962
1772537565047051500,10.548051513671876,0.059117959401011465,-0.3624269524812698,0.042209421632811425
1772537565057119500,10.558119384765625,-0.03392915760874748,-0.41257366991937156,-0.06609064795784651
1772537565067187500,10.5681875,-0.0022796353697776793,-0.42859483039379115,-0.11986688100472091
1772537565077254700,10.578254638671876,0.18078560621738432,-0.41669747185111045,-0.09722988258711993
1772537565087322400,10.588322265625,0.38765257915258405,-0.4494412190675735,-0.08112893487475811
