time,seconds_elapsed,z,y,x
1772537554576701400,0.077701416015625,-0.07834801822900772,0.08463206887245178,-0.13653889298439026
1772537554586769700,0.087769775390625,-0.03286335617303848,0.15798431634902954,-0.15285474061965942
1772537554596837600,0.097837646484375,-0.005663663148880005,0.16507768630981445,-0.1488872617483139
1772537554606904600,0.107904541015625,-0.0036588353104889393,0.14253614842891693,-0.11073799431324005
1772537554616972500,0.11797265625,-0.021903708577156067,0.11389485746622086,-0.051413923501968384
1772537554627040500,0.12804052734375,-0.03904647380113602,0.0721237063407898,0.014861233532428741
1772537554637107500,0.138107421875,-0.053740404546260834,0.05805341526865959,0.08453725278377533
1772537554647175400,0.148175537109375,-0.06196238100528717,0.056456319987773895,0.14747761189937592
1772537554657243400,0.158243408203125,-0.06514447927474976,0.06038275361061096,0.1822592318058014
1772537554667310600,0.168310546875,-0.04621819034218788,0.0949481874704361,0.17756620049476624
1772537554677378300,0.17837841796875,-0.00868226494640112,0.17565445601940155,0.13888905942440033
1772537554687445500,0.188445556640625,0.0374402217566967,0.2595192492008209,0.12808860838413239
1772537554697513500,0.198513427734375,0.06499290466308594,0.2915189862251282,0.12808428704738617
1772537554707581400,0.20858154296875,0.0849439725279808,0.29834121465682983,0.14995309710502625
1772537554717648400,0.2186484375,0.11426392942667007,0.3353675603866577,0.17468413710594177
1772537554727716400,0.22871630859375,0.14269183576107025,0.36161407828330994,0.17954334616661072
1772537554737784300,0.238784423828125,0.16532205045223236,0.33469319343566895,0.14327338337898254
1772537554747851300,0.248851318359375,0.17985625565052032,0.2313563972711563,0.09334178268909454
1772537554757919500,0.25891943359375,0.17852289974689484,0.14414675533771515,0.05272433161735535
1772537554767987500,0.268987548828125,0.16219772398471832,0.0942860022187233,0.004478505812585354
1772537554778054400,0.279054443359375,0.20035992562770844,0.11490404605865479,-0.05144714564085007
1772537554788122400,0.289122314453125,0.2654944658279419,0.1139434427022934,-0.10449331998825073
1772537554798190600,0.299190673828125,0.273640900850296,0.07345984876155853,-0.16629426181316376
1772537554808257500,0.309257568359375,0.26925599575042725,-0.01796913333237171,-0.21384818851947784
1772537554818325500,0.319325439453125,0.24569398164749146,-0.11282020807266235,-0.22156155109405518
1772537554828393500,0.3293935546875,0.20499953627586365,-0.15530188381671906,-0.18762463331222534
1772537554838460400,0.33946044921875,0.16510917246341705,-0.1398845911026001,-0.13797129690647125
1772537554848528400,0.3495283203125,0.13626420497894287,-0.11114508658647537,-0.07836390286684036
1772537554858595300,0.35959521484375,0.12184727936983109,-0.08237866312265396,-0.05418673902750015
1772537554868663600,0.36966357421875,0.10113082081079483,-0.04722147434949875,-0.06423031538724899
1772537554878731500,0.3797314453125,0.06772521883249283,-0.051491208374500275,-0.1128857284784317
1772537554888798500,0.389798583984375,0.03843550384044647,-0.0852811262011528,-0.1783299744129181
1772537554898866400,0.399866455078125,0.026111073791980743,-0.13366690278053284,-0.2440607100725174
1772537554908934700,0.4099345703125,0.02614942379295826,-0.16558462381362915,-0.30087101459503174
1772537554919001600,0.420001708984375,0.02190268784761429,-0.16090236604213715,-0.34995853900909424
1772537554929069600,0.430069580078125,0.009729646146297455,-0.09886882454156876,-0.38042083382606506
1772537554939137500,0.440137451171875,-0.007642420008778572,0.004060223698616028,-0.36903077363967896
1772537554949204500,0.45020458984375,-0.04692830517888069,0.09130538254976273,-0.3313467800617218
1772537554959272400,0.4602724609375,-0.09168130904436111,0.1362583041191101,-0.2706860899925232
1772537554969340700,0.470340576171875,-0.12635725736618042,0.16438688337802887,-0.20098261535167694
1772537554979407600,0.48040771484375,-0.1491139978170395,0.15493856370449066,-0.1317378580570221
1772537554989475600,0.4904755859375,-0.15835091471672058,0.14798372983932495,-0.07318906486034393
1772537554999542500,0.50054248046875,-0.14401784539222717,0.15999740362167358,-0.0345989391207695
1772537555009610500,0.510610595703125,-0.1167215034365654,0.11841639876365662,-0.011105330660939217
1772537555019678700,0.5206787109375,-0.09603637456893921,0.039192214608192444,0.004323128145188093
1772537555029745700,0.53074560546875,-0.0842079445719719,-0.045826539397239685,0.03435825929045677
1772537555039813600,0.540813720703125,-0.0816076323390007,-0.10348260402679443,0.05953929200768471
1772537555049881300,0.55088134765625,-0.06462838500738144,-0.10381203889846802,0.07164335995912552
1772537555059948500,0.560948486328125,-0.03707532212138176,-0.08166944980621338,0.07408201694488525
1772537555070016500,0.5710166015625,-0.0287617314606905,-0.08820245414972305,0.07024413347244263
1772537555080084500,0.58108447265625,-0.06276121735572815,-0.1349465250968933,0.06818991154432297
1772537555090151400,0.5911513671875,-0.11626225709915161,-0.19842670857906342,0.0595889613032341
1772537555100219400,0.601219482421875,-0.15926913917064667,-0.2477034032344818,0.05845143273472786
1772537555110287400,0.611287353515625,-0.1806498020887375,-0.2580433785915375,0.0512545071542263
1772537555120354300,0.621354248046875,-0.18194229900836945,-0.23474889993667603,0.04234972223639488
1772537555130422500,0.631422607421875,-0.16105379164218903,-0.19669844210147858,0.03505798801779747
1772537555140490500,0.641490478515625,-0.13210445642471313,-0.14463382959365845,0.028186991810798645
1772537555150557400,0.651557373046875,-0.10053907334804535,-0.10597885400056839,0.029023757204413414
1772537555160625400,0.66162548828125,-0.09287212789058685,-0.11507437378168106,0.040131621062755585
1772537555170693400,0.671693359375,-0.125289186835289,-0.13078463077545166,0.08092192560434341
1772537555180760300,0.68176025390625,-0.19035457074642181,-0.15974056720733643,0.15316379070281982
1772537555190828500,0.69182861328125,-0.26920944452285767,-0.17979416251182556,0.25157877802848816
1772537555200895500,0.7018955078125,-0.3432822525501251,-0.2324116975069046,0.35639581084251404
1772537555210963500,0.71196337890625,-0.39429083466529846,-0.3533210754394531,0.42899462580680847
1772537555221031400,0.722031494140625,-0.4154618978500366,-0.4926973879337311,0.46756356954574585
1772537555231098400,0.732098388671875,-0.40179774165153503,-0.6016233563423157,0.4630337953567505
1772537555241166600,0.74216650390625,-0.371393620967865,-0.6732411980628967,0.4072853624820709
1772537555251235000,0.752235107421875,-0.3325708508491516,-0.7164831757545471,0.3172052800655365
1772537555261302000,0.762302001953125,-0.306444376707077,-0.7283067107200623,0.2149941474199295
1772537555271370000,0.772369873046875,-0.3074004650115967,-0.6973485350608826,0.09666110575199127
1772537555281438000,0.78243798828125,-0.3320971727371216,-0.5782255530357361,-0.023156849667429924
1772537555291505000,0.7925048828125,-0.36799630522727966,-0.3716830313205719,-0.12764064967632294
1772537555301573000,0.802572998046875,-0.40989452600479126,-0.1651599109172821,-0.2114219218492508
1772537555311641000,0.81264111328125,-0.44609034061431885,-0.01219913363456726,-0.24819591641426086
1772537555321708000,0.8227080078125,-0.46453386545181274,0.07834801077842712,-0.232826367020607
1772537555331776000,0.83277587890625,-0.45527777075767517,0.07855121046304703,-0.17470021545886993
1772537555341844000,0.842843994140625,-0.4154312014579773,0.01665039174258709,-0.0864395797252655
1772537555351911000,0.852910888671875,-0.36639121174812317,-0.08730130642652512,0.008419018238782883
1772537555361979000,0.862978759765625,-0.31577068567276,-0.2118517905473709,0.10422578454017639
1772537555372046000,0.873046142578125,-0.26824524998664856,-0.32473042607307434,0.1860966831445694
1772537555382114000,0.883114013671875,-0.2340242862701416,-0.3813927471637726,0.24279065430164337
1772537555392181800,0.893181640625,-0.2015390396118164,-0.3855283856391907,0.25926870107650757
1772537555402249000,0.9032490234375,-0.16466999053955078,-0.3382869362831116,0.254676878452301
1772537555412317000,0.91331689453125,-0.13976863026618958,-0.2721071243286133,0.2360033094882965
1772537555422385000,0.923385009765625,-0.11691126972436905,-0.22030536830425262,0.20054341852664948
1772537555432451800,0.933451904296875,-0.10216774046421051,-0.1936202347278595,0.1576492190361023
1772537555442519800,0.943519775390625,-0.099882572889328,-0.22958281636238098,0.10347495973110199
1772537555452587800,0.953587890625,-0.11470253020524979,-0.30289512872695923,0.050682321190834045
1772537555462654700,0.96365478515625,-0.1383724957704544,-0.38635382056236267,-0.001665894640609622
1772537555472723000,0.973722900390625,-0.1721421778202057,-0.4554159939289093,-0.04824511334300041
1772537555482791000,0.983791015625,-0.20486414432525635,-0.49067577719688416,-0.08549657464027405
1772537555492857900,0.99385791015625,-0.23434746265411377,-0.4722283184528351,-0.11341342329978943
1772537555502925800,1.00392578125,-0.24726305902004242,-0.41144242882728577,-0.14034858345985413
1772537555512994000,1.013994140625,-0.24449549615383148,-0.33896344900131226,-0.15958434343338013
1772537555523061000,1.02406103515625,-0.24129027128219604,-0.2563907504081726,-0.1667310893535614
1772537555533129000,1.03412890625,-0.23750485479831696,-0.1735038310289383,-0.16230545938014984
1772537555543196000,1.04419580078125,-0.2284509539604187,-0.07757635414600372,-0.1373770833015442
1772537555553263900,1.054263916015625,-0.20281270146369934,0.03178315609693527,-0.11044187098741531
1772537555563331800,1.064331787109375,-0.17759977281093597,0.10971181839704514,-0.08424350619316101
1772537555573398800,1.074398681640625,-0.15706147253513336,0.13334257900714874,-0.04140016809105873
1772537555583467000,1.084467041015625,-0.13561737537384033,0.09715455025434494,0.017025690525770187
1772537555593535000,1.094534912109375,-0.10581234097480774,0.04227159172296524,0.06140114739537239
1772537555603602000,1.104601806640625,-0.06661131978034973,0.0032457327470183372,0.09639562666416168
1772537555613670000,1.114669921875,-0.03247678279876709,-0.03984714299440384,0.11306461691856384
1772537555623738000,1.124738037109375,-0.006093435455113649,-0.09064385294914246,0.11054512113332748
1772537555633805000,1.13480517578125,0.014357510954141617,-0.14433664083480835,0.10092578083276749
1772537555643873000,1.144873046875,0.020995410159230232,-0.1956976056098938,0.0769084095954895
1772537555653941000,1.15494091796875,0.019793258979916573,-0.24122834205627441,0.04676835611462593
1772537555664008000,1.165008056640625,0.027901900932192802,-0.27726441621780396,-0.011138858273625374
1772537555674076000,1.175075927734375,0.03408842533826828,-0.28282830119132996,-0.07562357932329178
1772537555684144000,1.18514404296875,0.028563136234879494,-0.2692526876926422,-0.12821994721889496
1772537555694211000,1.195211181640625,0.017864152789115906,-0.2545506954193115,-0.18025252223014832
1772537555704279000,1.205279052734375,0.017899636179208755,-0.25731557607650757,-0.2375842183828354
1772537555714346000,1.215345947265625,0.008814528584480286,-0.25160282850265503,-0.2768365442752838
1772537555724414000,1.2254140625,-0.014722789637744427,-0.2076760232448578,-0.30066201090812683
1772537555734482200,1.235482177734375,-0.03469543159008026,-0.13137751817703247,-0.30473610758781433
1772537555744549000,1.245549072265625,-0.04446606710553169,-0.07909677177667618,-0.30625084042549133
1772537555754617000,1.2556171875,-0.043642085045576096,-0.06907529383897781,-0.3010728359222412
1772537555764684800,1.265684814453125,-0.03880980983376503,-0.09129522740840912,-0.2786453366279602
1772537555774752000,1.275751953125,-0.037869714200496674,-0.11137333512306213,-0.24002443253993988
1772537555784820000,1.285820068359375,-0.04392198473215103,-0.07198244333267212,-0.16998572647571564
1772537555794888000,1.295887939453125,-0.05933316424489021,-0.004168507643043995,-0.09216070175170898
1772537555804955000,1.305954833984375,-0.08480508625507355,0.04645271971821785,-0.017326073721051216
1772537555815022800,1.31602294921875,-0.10970457643270493,0.06434517353773117,0.049119528383016586
1772537555825090800,1.3260908203125,-0.1430482119321823,0.04663462936878204,0.09030929952859879
1772537555835157800,1.33615771484375,-0.16840842366218567,0.05198279023170471,0.11550919711589813
1772537555845226000,1.34622607421875,-0.1934373825788498,0.09094027429819107,0.13411279022693634
1772537555855294000,1.3562939453125,-0.2269095778465271,0.11683978140354156,0.14394518733024597
1772537555865361000,1.36636083984375,-0.24672196805477142,0.10878680646419525,0.15597426891326904
1772537555875428900,1.376428955078125,-0.24631424248218536,0.0761905163526535,0.14867746829986572
1772537555885495800,1.386495849609375,-0.2226838320493698,0.07078640162944794,0.1252846121788025
1772537555895563800,1.396563720703125,-0.20633335411548615,0.11156526207923889,0.11833909153938293
1772537555905632000,1.406632080078125,-0.20878875255584717,0.16497118771076202,0.12916360795497894
1772537555915699000,1.416698974609375,-0.22457917034626007,0.2395484745502472,0.15954041481018066
1772537555925767000,1.426766845703125,-0.22736580669879913,0.3376334011554718,0.19927248358726501
1772537555935835000,1.4368349609375,-0.2141147255897522,0.4485125243663788,0.24186894297599792
1772537555945901800,1.44690185546875,-0.19533668458461761,0.47007107734680176,0.27196574211120605
1772537555955970000,1.456969970703125,-0.1780754029750824,0.391008198261261,0.28369536995887756
1772537555966038000,1.4670380859375,-0.16047696769237518,0.26523247361183167,0.267584890127182
1772537555976105000,1.47710498046875,-0.13763077557086945,0.11919963359832764,0.2355470508337021
1772537555986173000,1.4871728515625,-0.10036230087280273,-0.04221755638718605,0.1926458328962326
1772537555996241000,1.497240966796875,-0.04614832624793053,-0.2374456375837326,0.13510584831237793
1772537556006307800,1.507307861328125,0.015320954844355583,-0.45152944326400757,0.06436988711357117
1772537556016376000,1.5173759765625,0.07405856996774673,-0.6287503242492676,-0.0011694419663399458
1772537556026443000,1.527443115234375,0.10436677932739258,-0.7459402680397034,-0.06275752931833267
1772537556036511000,1.537510986328125,0.09700126945972443,-0.7755394577980042,-0.1404067873954773
1772537556046579000,1.547578857421875,0.05166088044643402,-0.6968134045600891,-0.2268579602241516
1772537556056646000,1.55764599609375,-0.014047294855117798,-0.5459368228912354,-0.32494351267814636
1772537556066714000,1.567714111328125,-0.09365758299827576,-0.3531171679496765,-0.4405463635921478
1772537556076782000,1.577781982421875,-0.183638334274292,-0.128585547208786,-0.5347133278846741
1772537556086849000,1.58784912109375,-0.26535293459892273,0.08557595312595367,-0.5846473574638367
1772537556096917000,1.5979169921875,-0.31862735748291016,0.3083336651325226,-0.5667902827262878
1772537556106985000,1.60798486328125,-0.33595380187034607,0.4952559769153595,-0.49542275071144104
1772537556117052000,1.618052001953125,-0.32036659121513367,0.6039584875106812,-0.3914255201816559
1772537556127120100,1.6281201171875,-0.2707309126853943,0.637057363986969,-0.2693089246749878
1772537556137187800,1.638187744140625,-0.20085197687149048,0.5939210653305054,-0.14703123271465302
1772537556147255000,1.648255126953125,-0.11304337531328201,0.48719322681427,-0.03454514220356941
1772537556157323000,1.658322998046875,-0.021418387070298195,0.33675417304039,0.05736320838332176
1772537556167390000,1.668389892578125,0.050800204277038574,0.16386334598064423,0.12598197162151337
1772537556177458000,1.6784580078125,0.10455211997032166,0.013354266062378883,0.19896456599235535
1772537556187526000,1.68852587890625,0.14342425763607025,-0.15473268926143646,0.2558910846710205
1772537556197593000,1.698593017578125,0.1768072545528412,-0.3262389302253723,0.29730188846588135
1772537556207660800,1.708660888671875,0.21143892407417297,-0.5110452175140381,0.32628333568573
1772537556217728800,1.718728759765625,0.26364782452583313,-0.7104067802429199,0.30855441093444824
1772537556227795700,1.728795654296875,0.31094545125961304,-0.9084955453872681,0.2507171332836151
1772537556237864000,1.738864013671875,0.3218686580657959,-1.050736904144287,0.17520347237586975
1772537556247932000,1.748931884765625,0.2865196466445923,-1.1172069311141968,0.09758780896663666
1772537556257998800,1.758998779296875,0.20438030362129211,-1.0658398866653442,0.03428713232278824
1772537556268066800,1.76906689453125,0.09073925018310547,-0.8983221054077148,-0.0006491447566077113
1772537556278134800,1.779134765625,-0.03238401561975479,-0.6674385070800781,-0.035869449377059937
1772537556288202000,1.789201904296875,-0.16821354627609253,-0.4002175033092499,-0.059997741132974625
1772537556298270000,1.79927001953125,-0.31024792790412903,-0.11999250203371048,-0.06975450366735458
1772537556308338000,1.809337890625,-0.44717666506767273,0.12823116779327393,-0.06007758155465126
1772537556318404900,1.81940478515625,-0.550089418888092,0.3228272795677185,-0.043673574924468994
1772537556328472800,1.829472900390625,-0.6019688844680786,0.4245088994503021,-0.03031555935740471
1772537556338539800,1.839539794921875,-0.617861270904541,0.434262216091156,-0.02170609124004841
1772537556348608000,1.84960791015625,-0.5961083769798279,0.3730039894580841,-0.030115729197859764
1772537556358676000,1.859676025390625,-0.5501211881637573,0.2725660800933838,-0.04731842130422592
1772537556368743000,1.869742919921875,-0.4966255724430084,0.1547386199235916,-0.06841631233692169
1772537556378811000,1.879810791015625,-0.4443621039390564,0.008562779985368252,-0.08028335869312286
1772537556388878800,1.88987890625,-0.39467576146125793,-0.16112783551216125,-0.09526963531970978
1772537556398946000,1.899946044921875,-0.3482840359210968,-0.36452385783195496,-0.11437328904867172
1772537556409014000,1.910013916015625,-0.299605131149292,-0.5430433750152588,-0.14409556984901428
1772537556419082000,1.92008203125,-0.26050034165382385,-0.6425366401672363,-0.17160628736019135
1772537556429149000,1.93014892578125,-0.24676939845085144,-0.6855587959289551,-0.182217538356781
1772537556439217000,1.940216796875,-0.25974830985069275,-0.6994982957839966,-0.18330809473991394
1772537556449285000,1.95028515625,-0.2936601936817169,-0.6913567781448364,-0.16052190959453583
1772537556459352000,1.96035205078125,-0.3449457287788391,-0.6599743366241455,-0.11195091903209686
1772537556469420000,1.970419921875,-0.39530837535858154,-0.6489862203598022,-0.06399952620267868
1772537556479487000,1.980487060546875,-0.4385194778442383,-0.6709495782852173,-0.02981092594563961
1772537556489555000,1.990554931640625,-0.4686603546142578,-0.7199509739875793,-0.019777247682213783
1772537556499623200,2.000623046875,-0.4983564615249634,-0.7656872868537903,-0.020743442699313164
1772537556509690000,2.010690185546875,-0.5357224345207214,-0.7602024078369141,-0.02360725775361061
1772537556519758000,2.020758056640625,-0.5776371359825134,-0.719704270362854,-0.014892597682774067
1772537556529826000,2.030825927734375,-0.626244068145752,-0.6731916069984436,-0.006141982972621918
1772537556539893000,2.04089306640625,-0.6682224869728088,-0.6363574862480164,-0.0036011599004268646
1772537556549961000,2.0509609375,-0.7052617073059082,-0.6186800003051758,0.005592338275164366
1772537556560029000,2.06102880859375,-0.7312067747116089,-0.6217050552368164,0.02549786865711212
1772537556570096000,2.07109619140625,-0.7428622245788574,-0.6653755307197571,0.0478997677564621
1772537556580163800,2.081163818359375,-0.7440952658653259,-0.7292793989181519,0.07823557406663895
1772537556590231800,2.091231689453125,-0.7338897585868835,-0.8125842809677124,0.11864745616912842
1772537556600299000,2.101299072265625,-0.7193207144737244,-0.9031184315681458,0.16294433176517487
1772537556610367000,2.111366943359375,-0.7024230360984802,-0.9930567145347595,0.21419930458068848
1772537556620435000,2.12143505859375,-0.6932827830314636,-1.0844265222549438,0.2564719021320343
1772537556630502000,2.131501953125,-0.7001245617866516,-1.136206030845642,0.29507744312286377
1772537556640569900,2.14156982421875,-0.7115926742553711,-1.1445411443710327,0.30921298265457153
1772537556650636800,2.15163671875,-0.7406499981880188,-1.1002711057662964,0.32356342673301697
1772537556660704800,2.161704833984375,-0.7999074459075928,-1.0221179723739624,0.33602461218833923
1772537556670773000,2.17177294921875,-0.8646632432937622,-0.9210196733474731,0.34330475330352783
1772537556680840000,2.18183984375,-0.9170699715614319,-0.8133068084716797,0.34007832407951355
1772537556690908000,2.191907958984375,-0.9526395201683044,-0.7501580715179443,0.31036296486854553
1772537556700975900,2.201975830078125,-0.9610692262649536,-0.7939601540565491,0.2565423548221588
1772537556711042800,2.212042724609375,-0.947705090045929,-0.9192410707473755,0.16530780494213104
1772537556721111000,2.222111083984375,-0.9231789708137512,-1.0624136924743652,0.056814346462488174
1772537556731179000,2.232178955078125,-0.9017941355705261,-1.1928989887237549,-0.0390600822865963
1772537556741246000,2.242245849609375,-0.8988736867904663,-1.2928063869476318,-0.11937090009450912
1772537556751314000,2.25231396484375,-0.9194446206092834,-1.3224607706069946,-0.14165477454662323
1772537556761382000,2.2623818359375,-0.9644091725349426,-1.3027944564819336,-0.13144102692604065
1772537556771448800,2.27244873046875,-1.0177903175354004,-1.2012782096862793,-0.09505153447389603
1772537556781517000,2.28251708984375,-1.0539965629577637,-1.0444581508636475,-0.06710991263389587
1772537556791584000,2.292583984375,-1.0698341131210327,-0.8742329478263855,-0.05977894365787506
1772537556801652000,2.30265185546875,-1.0573632717132568,-0.7344383001327515,-0.08139076083898544
1772537556811720000,2.312719970703125,-1.0168787240982056,-0.6655414700508118,-0.13040252029895782
1772537556821787000,2.322786865234375,-0.9470384120941162,-0.6736828088760376,-0.1922949105501175
1772537556831855000,2.332855224609375,-0.869133472442627,-0.7526060342788696,-0.2425021082162857
1772537556841923000,2.342923095703125,-0.7825223803520203,-0.8490042090415955,-0.27661001682281494
1772537556851990000,2.352989990234375,-0.7088050842285156,-0.9174227118492126,-0.25797605514526367
1772537556862058000,2.36305810546875,-0.6610780358314514,-0.9438521862030029,-0.18507228791713715
1772537556872126000,2.3731259765625,-0.631899893283844,-0.9161399006843567,-0.07017166167497635
1772537556882193000,2.38319287109375,-0.6144338250160217,-0.8473501801490784,0.05094970017671585
1772537556892261000,2.39326123046875,-0.6079103946685791,-0.772957444190979,0.17622381448745728
1772537556902329000,2.4033291015625,-0.606936514377594,-0.7174909710884094,0.28191402554512024
1772537556912396000,2.41339599609375,-0.6082423329353333,-0.6772715449333191,0.3489197790622711
1772537556922464000,2.423464111328125,-0.6013357043266296,-0.6325584053993225,0.38510146737098694
1772537556932531000,2.433531005859375,-0.5860678553581238,-0.6275570392608643,0.3802356421947479
1772537556942599200,2.44359912109375,-0.5658499002456665,-0.6744236350059509,0.3336971700191498
1772537556952667000,2.4536669921875,-0.5369724035263062,-0.7480883598327637,0.25347673892974854
1772537556962734000,2.463734130859375,-0.5067085027694702,-0.8197824954986572,0.15983466804027557
1772537556972802000,2.473802001953125,-0.47627195715904236,-0.8702776432037354,0.058888617902994156
1772537556982869800,2.483869873046875,-0.4636560380458832,-0.8899338841438293,-0.02207227610051632
1772537556992937000,2.49393701171875,-0.47578907012939453,-0.8727332353591919,-0.06726939231157303
1772537557003005000,2.5040048828125,-0.5072268843650818,-0.8293710947036743,-0.07438775151968002
1772537557013073000,2.514072998046875,-0.5533206462860107,-0.7745050191879272,-0.05479155853390694
1772537557023139800,2.524139892578125,-0.5929138660430908,-0.7011809945106506,-0.03868529200553894
1772537557033207800,2.534207763671875,-0.6210533380508423,-0.6279956102371216,-0.03471437841653824
1772537557043275800,2.54427587890625,-0.6244760155677795,-0.5724077224731445,-0.05246541276574135
1772537557053343000,2.554343017578125,-0.6135339140892029,-0.5300517678260803,-0.08089545369148254
1772537557063411000,2.564410888671875,-0.5881885886192322,-0.5204859375953674,-0.12611806392669678
1772537557073479000,2.57447900390625,-0.5451278686523438,-0.5427700281143188,-0.1680654138326645
1772537557083545900,2.5845458984375,-0.4928545653820038,-0.5984417796134949,-0.19409620761871338
1772537557093613800,2.59461376953125,-0.4479219913482666,-0.6664261817932129,-0.20096556842327118
1772537557103680800,2.6046806640625,-0.4082967936992645,-0.7272695302963257,-0.19321976602077484
1772537557113749000,2.6147490234375,-0.3683430254459381,-0.7705737948417664,-0.17887207865715027
1772537557123817000,2.62481689453125,-0.3308537006378174,-0.8185474872589111,-0.16157963871955872
1772537557133884000,2.6348837890625,-0.31246355175971985,-0.8598928451538086,-0.140905499458313
1772537557143952000,2.644951904296875,-0.29576313495635986,-0.8725348711013794,-0.12131927162408829
1772537557154019800,2.655019775390625,-0.28947243094444275,-0.8387802839279175,-0.08996245265007019
1772537557164087000,2.665087158203125,-0.29114091396331787,-0.7959489226341248,-0.05151679366827011
1772537557174155000,2.675155029296875,-0.2987973690032959,-0.759360671043396,-0.014525783248245716
1772537557184223000,2.685222900390625,-0.3041934669017792,-0.7319508790969849,0.0012792781926691532
1772537557194290000,2.6952900390625,-0.3021501302719116,-0.7047056555747986,0.004680790472775698
1772537557204358000,2.70535791015625,-0.29475560784339905,-0.6682464480400085,0.007002001628279686
1772537557214424800,2.7154248046875,-0.2999884784221649,-0.6449906229972839,0.020507819950580597
1772537557224493000,2.7254931640625,-0.31781619787216187,-0.6189092397689819,0.04167382791638374
1772537557234561000,2.73556103515625,-0.3299371302127838,-0.6150407791137695,0.06102122738957405
1772537557244628000,2.7456279296875,-0.3332517147064209,-0.6135334372520447,0.09173040091991425
1772537557254695400,2.7556953125,-0.3370334208011627,-0.6310826539993286,0.14142899215221405
1772537557264763400,2.765763427734375,-0.3509737551212311,-0.6658534407615662,0.21344831585884094
1772537557274830300,2.775830322265625,-0.38558804988861084,-0.6968899965286255,0.31351709365844727
1772537557284898300,2.785898193359375,-0.42508459091186523,-0.6948220729827881,0.40513914823532104
1772537557294966300,2.79596630859375,-0.4526519775390625,-0.6580885052680969,0.46490243077278137
1772537557305033200,2.806033203125,-0.47604626417160034,-0.5937625169754028,0.4789287745952606
1772537557315101400,2.816101318359375,-0.48432430624961853,-0.5165432691574097,0.45285287499427795
1772537557325169400,2.82616943359375,-0.4891137480735779,-0.432654470205307,0.4061402380466461
1772537557335236400,2.836236328125,-0.49809491634368896,-0.3679950535297394,0.34815123677253723
1772537557345304300,2.84630419921875,-0.50496506690979,-0.33163440227508545,0.2915952801704407
1772537557355372500,2.85637255859375,-0.5021595358848572,-0.3267510235309601,0.24090883135795593
1772537557365439500,2.866439453125,-0.4988740086555481,-0.3495391607284546,0.2028040587902069
1772537557375507500,2.876507568359375,-0.5110300779342651,-0.39552798867225647,0.20231157541275024
1772537557385574400,2.886574462890625,-0.5386582612991333,-0.44457194209098816,0.23366416990756989
1772537557395642400,2.896642333984375,-0.5867835283279419,-0.48441624641418457,0.2563863694667816
1772537557405710300,2.90671044921875,-0.6384488940238953,-0.48871245980262756,0.29279446601867676
1772537557415777300,2.91677734375,-0.6799659132957458,-0.38881686329841614,0.33616819977760315
1772537557425845500,2.926845458984375,-0.6653475165367126,-0.3002963364124298,0.31484454870224
1772537557435913200,2.936913330078125,-0.6258351802825928,-0.3314898908138275,0.2604950964450836
1772537557445980400,2.94698046875,-0.6015189290046692,-0.4127520024776459,0.24043402075767517
1772537557456048000,2.957048095703125,-0.6068476438522339,-0.6774412393569946,0.24378401041030884
1772537557466116400,2.967116455078125,-0.5850504636764526,-0.9223899841308594,0.35690179467201233
1772537557476183300,2.977183349609375,-0.504294216632843,-1.063281536102295,0.5122123956680298
1772537557486251300,2.987251220703125,-0.42862340807914734,-1.1118773221969604,0.6541218161582947
1772537557496319200,2.9973193359375,-0.4181360900402069,-1.1531238555908203,0.8226649761199951
1772537557506386200,3.00738623046875,-0.5109352469444275,-1.175781011581421,1.0116314888000488
1772537557516454100,3.0174541015625,-0.6513163447380066,-1.0709089040756226,1.213427186012268
1772537557526521000,3.02752099609375,-0.7107900381088257,-0.9096192121505737,1.3079233169555664
1772537557536589300,3.03758935546875,-0.6713987588882446,-0.8795874714851379,1.1794060468673706
1772537557546657300,3.0476572265625,-0.6235619783401489,-0.9787476062774658,0.919501781463623
1772537557556724200,3.05772412109375,-0.6161795854568481,-1.2111555337905884,0.6086851358413696
1772537557566792200,3.067792236328125,-0.6517964601516724,-1.443397045135498,0.3666139245033264
1772537557576860400,3.0778603515625,-0.7384588122367859,-1.4606258869171143,0.26265957951545715
1772537557586927400,3.08792724609375,-0.840224027633667,-1.3452143669128418,0.25323599576950073
1772537557596995300,3.097995361328125,-0.9443873167037964,-1.142183780670166,0.30159953236579895
1772537557607063300,3.108063232421875,-1.02981698513031,-0.9238500595092773,0.36670103669166565
1772537557617130200,3.118130126953125,-1.0702378749847412,-0.6992489099502563,0.3964310884475708
1772537557627198200,3.1281982421875,-1.0326186418533325,-0.4887737035751343,0.36562392115592957
1772537557637266400,3.138266357421875,-0.9304645657539368,-0.3279394507408142,0.25463393330574036
1772537557647333400,3.14833349609375,-0.7736651301383972,-0.2800360918045044,0.08933207392692566
1772537557657401300,3.1584013671875,-0.5662171244621277,-0.36164039373397827,-0.10118287056684494
1772537557667468300,3.16846826171875,-0.34624752402305603,-0.5202885866165161,-0.2769395411014557
1772537557677536300,3.178536376953125,-0.17521227896213531,-0.7488678693771362,-0.40972641110420227
1772537557687604500,3.1886044921875,-0.08649279177188873,-1.033113956451416,-0.4990788996219635
1772537557697671400,3.19867138671875,-0.03050396777689457,-1.258223533630371,-0.5122839212417603
1772537557707739400,3.208739501953125,-0.03149466589093208,-1.3081200122833252,-0.4271612763404846
1772537557717807400,3.218807373046875,-0.0767749473452568,-1.196589469909668,-0.2888411283493042
1772537557727874300,3.228874267578125,-0.12713345885276794,-1.0377086400985718,-0.17256911098957062
1772537557737942300,3.2389423828125,-0.1433056741952896,-0.8534208536148071,-0.13049785792827606
1772537557748010500,3.249010498046875,-0.13125114142894745,-0.7100570201873779,-0.17272122204303741
1772537557758077400,3.259077392578125,-0.1125306636095047,-0.6360505819320679,-0.2404111623764038
1772537557768145400,3.2691455078125,-0.10503466427326202,-0.6272786259651184,-0.2699946165084839
1772537557778213400,3.27921337890625,-0.14163102209568024,-0.6577056646347046,-0.23177334666252136
1772537557788280300,3.2892802734375,-0.22843383252620697,-0.7118312120437622,-0.1316520720720291
1772537557798348500,3.2993486328125,-0.3259528875350952,-0.7699072360992432,-0.009415004402399063
1772537557808415500,3.30941552734375,-0.4234517216682434,-0.8408908843994141,0.06562355160713196
1772537557818483500,3.3194833984375,-0.5084357261657715,-0.8779529929161072,0.08697131276130676
1772537557828551200,3.32955126953125,-0.5513200759887695,-0.8477383852005005,0.04663853347301483
1772537557838618400,3.339618408203125,-0.5462808609008789,-0.7940787076950073,-0.0457853302359581
1772537557848686300,3.349686279296875,-0.5160893797874451,-0.7377390265464783,-0.1400282084941864
1772537557858754300,3.35975439453125,-0.48265814781188965,-0.7127491235733032,-0.17974773049354553
1772537557868821500,3.369821533203125,-0.4681471288204193,-0.7110795974731445,-0.14604543149471283
1772537557878889200,3.37988916015625,-0.4768550395965576,-0.7243556976318359,-0.05056239292025566
1772537557888957200,3.389957275390625,-0.49933290481567383,-0.7415595054626465,0.05620772764086723
1772537557899024100,3.400024169921875,-0.5301403403282166,-0.7669379711151123,0.14197640120983124
1772537557909092400,3.41009228515625,-0.5406760573387146,-0.7763807773590088,0.1736544370651245
1772537557919160300,3.420160400390625,-0.541368842124939,-0.7755277752876282,0.15418048202991486
1772537557929227300,3.430227294921875,-0.5371914505958557,-0.7235386371612549,0.10776504874229431
1772537557939295200,3.440295166015625,-0.5142562985420227,-0.6544395089149475,0.06189418211579323
1772537557949362200,3.450362060546875,-0.4670554995536804,-0.6050586104393005,0.010363617911934853
1772537557959430100,3.46043017578125,-0.4203086495399475,-0.5591520667076111,-0.008140183985233307
1772537557969498400,3.470498291015625,-0.37494462728500366,-0.5186376571655273,0.004825682379305363
1772537557979565300,3.4805654296875,-0.3492155969142914,-0.4994083344936371,0.03553387522697449
1772537557989633300,3.49063330078125,-0.3427448868751526,-0.5058702826499939,0.07895485311746597
1772537557999701200,3.500701171875,-0.35514238476753235,-0.5141464471817017,0.11635425686836243
1772537558009768200,3.510768310546875,-0.35488593578338623,-0.5190618634223938,0.14203912019729614
1772537558019836400,3.52083642578125,-0.36643311381340027,-0.5108689069747925,0.16645802557468414
1772537558029904400,3.530904296875,-0.38156330585479736,-0.48636385798454285,0.1882789134979248
1772537558039971300,3.540971435546875,-0.38804322481155396,-0.44508129358291626,0.2005273401737213
1772537558050039300,3.551039306640625,-0.3832191824913025,-0.40183475613594055,0.20129379630088806
1772537558060107300,3.561107177734375,-0.3647770881652832,-0.37311071157455444,0.1920682042837143
1772537558070174200,3.57117431640625,-0.3370985984802246,-0.3703133165836334,0.1894894689321518
1772537558080242400,3.581242431640625,-0.3285655677318573,-0.3854252099990845,0.1980465054512024
1772537558090309400,3.591309326171875,-0.35176730155944824,-0.4009506404399872,0.217258021235466
1772537558100377300,3.60137744140625,-0.398894339799881,-0.41375264525413513,0.23679132759571075
1772537558110445300,3.6114453125,-0.45350539684295654,-0.42149817943573,0.23584243655204773
1772537558120512300,3.62151220703125,-0.4915247857570648,-0.4142111539840698,0.20730510354042053
1772537558130580500,3.63158056640625,-0.48945391178131104,-0.408858984708786,0.1392940878868103
1772537558140648400,3.6416484375,-0.46969538927078247,-0.4361198842525482,0.04909314215183258
1772537558150715400,3.65171533203125,-0.4556136727333069,-0.4712693393230438,-0.028875427320599556
1772537558160783400,3.661783447265625,-0.4463645815849304,-0.5306837558746338,-0.08853211253881454
1772537558170851300,3.671851318359375,-0.4454495310783386,-0.6239742636680603,-0.13757288455963135
1772537558180918300,3.681918212890625,-0.4637952744960785,-0.7128133773803711,-0.17581787705421448
1772537558190986500,3.691986572265625,-0.4893328547477722,-0.775519609451294,-0.19424988329410553
1772537558201054200,3.70205419921875,-0.5214126706123352,-0.7720369696617126,-0.20943723618984222
1772537558211121400,3.712121337890625,-0.5369735360145569,-0.6842397451400757,-0.2309768795967102
1772537558221189400,3.722189453125,-0.5327820777893066,-0.5517479777336121,-0.25309813022613525
1772537558231256300,3.73225634765625,-0.5206369757652283,-0.39610034227371216,-0.2593890428543091
1772537558241324500,3.742324462890625,-0.5095558762550354,-0.26833614706993103,-0.2471683770418167
1772537558251392300,3.752392333984375,-0.5191922783851624,-0.17229270935058594,-0.2217186689376831
1772537558261459500,3.76245947265625,-0.5372263193130493,-0.07885364443063736,-0.16723190248012543
1772537558271527400,3.77252734375,-0.5403746962547302,-0.021352002397179604,-0.1294640153646469
1772537558281595400,3.782595458984375,-0.5067672729492188,-0.00837579183280468,-0.0907139927148819
1772537558291662300,3.792662353515625,-0.4530685544013977,-0.06428459286689758,-0.029349705204367638
1772537558301730300,3.802730224609375,-0.40503883361816406,-0.1733211725950241,0.055975690484046936
1772537558311798300,3.81279833984375,-0.36032408475875854,-0.3050626814365387,0.1587311029434204
1772537558321865500,3.822865478515625,-0.3116808831691742,-0.4108240306377411,0.2522464096546173
1772537558331933400,3.832933349609375,-0.2568809986114502,-0.4452488422393799,0.3212909996509552
1772537558342001400,3.84300146484375,-0.20370720326900482,-0.42264145612716675,0.34884440898895264
1772537558352068400,3.853068359375,-0.15366561710834503,-0.3962266147136688,0.34123656153678894
1772537558362136300,3.86313623046875,-0.11917661130428314,-0.3807951509952545,0.30566662549972534
1772537558372203300,3.873203369140625,-0.09843511134386063,-0.39902928471565247,0.2530497610569
1772537558382271500,3.883271484375,-0.09151456505060196,-0.41478613018989563,0.17533451318740845
1772537558392339500,3.89333935546875,-0.09337931126356125,-0.418722540140152,0.07901756465435028
1772537558402406400,3.903406494140625,-0.08551020175218582,-0.40714746713638306,-0.04699638485908508
1772537558412474400,3.913474365234375,-0.06717752665281296,-0.39056235551834106,-0.18559421598911285
1772537558422542300,3.923542236328125,-0.04536077007651329,-0.37885037064552307,-0.29178014397621155
1772537558432609500,3.933609619140625,-0.04245845973491669,-0.36163437366485596,-0.3348429203033447
1772537558442677500,3.943677490234375,-0.07040433585643768,-0.31531721353530884,-0.29626116156578064
1772537558452745500,3.953745361328125,-0.11053364723920822,-0.23972895741462708,-0.19864487648010254
1772537558462812400,3.9638125,-0.133351668715477,-0.13942071795463562,-0.08964435756206512
1772537558472880400,3.97388037109375,-0.12827542424201965,-0.027043582871556282,-0.0008239437593147159
1772537558482947300,3.983947265625,-0.09652725607156754,0.053102944046258926,0.05174066126346588
1772537558493015600,3.994015625,-0.05766534432768822,0.11933469027280807,0.07399563491344452
1772537558503083500,4.00408349609375,-0.011415972374379635,0.16590872406959534,0.0762091800570488
1772537558513150500,4.014150390625,0.05201280117034912,0.13914261758327484,0.06412908434867859
1772537558523218400,4.024218505859375,0.09245801717042923,0.03196452930569649,0.04862954095005989
1772537558533286400,4.034286376953125,0.09977106004953384,-0.11707475036382675,0.03696649149060249
1772537558543353600,4.044353515625,0.08455366641283035,-0.25084516406059265,0.022015489637851715
1772537558553421600,4.054421630859375,0.07784117013216019,-0.3603934943675995,-0.019806791096925735
1772537558563489500,4.064489501953125,0.0806632936000824,-0.43925368785858154,-0.09427876770496368
1772537558573556500,4.074556396484375,0.08671320229768753,-0.4461486041545868,-0.16748853027820587
1772537558583624400,4.08462451171875,0.0860021635890007,-0.4160117506980896,-0.23968881368637085
1772537558593692400,4.0946923828125,0.078854501247406,-0.3715910017490387,-0.28674209117889404
1772537558603759600,4.104759521484375,0.06823240220546722,-0.3203854262828827,-0.31457075476646423
1772537558613827600,4.11482763671875,0.05785858631134033,-0.29294314980506897,-0.3209620714187622
1772537558623894500,4.12489453125,0.047938790172338486,-0.26758718490600586,-0.30453038215637207
1772537558633962500,4.13496240234375,0.03279152885079384,-0.2589433491230011,-0.2621355354785919
1772537558644030200,4.1450302734375,0.013654378242790699,-0.26457735896110535,-0.2013324499130249
1772537558654097700,4.15509765625,-0.017462261021137238,-0.2693886160850525,-0.1350564956665039
1772537558664165400,4.165165283203125,-0.04034429416060448,-0.23167863488197327,-0.08773639053106308
1772537558674233300,4.1752333984375,-0.03951844945549965,-0.15011772513389587,-0.07999857515096664
1772537558684300500,4.185300537109375,-0.030850950628519058,-0.05532040819525719,-0.09209989756345749
1772537558694368300,4.1953681640625,-0.020777277648448944,0.023764554411172867,-0.10943068563938141
1772537558704436500,4.2054365234375,-0.010746069252490997,0.06710553914308548,-0.10195428133010864
1772537558714503400,4.21550341796875,-0.008063999935984612,0.09623812884092331,-0.056107692420482635
1772537558724571400,4.2255712890625,0.012189222499728203,0.0948004201054573,0.00016337004490196705
1772537558734639400,4.235639404296875,0.023031482473015785,0.07808055728673935,0.05599494278430939
1772537558744706300,4.245706298828125,0.04310334473848343,0.06432230770587921,0.10744386911392212
1772537558754774300,4.255774169921875,0.0720263421535492,0.05581910163164139,0.15578556060791016
1772537558764841500,4.265841552734375,0.0803283303976059,0.051812734454870224,0.19680719077587128
1772537558774909400,4.275909423828125,0.0739404708147049,0.07077417522668839,0.23349648714065552
1772537558784977400,4.285977294921875,0.06124133616685867,0.10041533410549164,0.26145607233047485
1772537558795044400,4.29604443359375,0.05971214920282364,0.12180957198143005,0.25677981972694397
1772537558805112300,4.3061123046875,0.0637366846203804,0.11772903800010681,0.21530836820602417
1772537558815180500,4.3161806640625,0.07725062966346741,0.09763974696397781,0.15817371010780334
1772537558825247500,4.32624755859375,0.09945094585418701,0.04198463633656502,0.09701219946146011
1772537558835315500,4.3363154296875,0.09735770523548126,-0.042405880987644196,0.06758693605661392
1772537558845383400,4.346383544921875,0.07265674322843552,-0.1034020259976387,0.07890179008245468
1772537558855450400,4.356450439453125,0.03540764003992081,-0.13481374084949493,0.10688521713018417
1772537558865518300,4.366518310546875,-0.01046098954975605,-0.11130009591579437,0.1418137401342392
1772537558875586600,4.376586669921875,-0.05813317373394966,-0.04019981995224953,0.17259269952774048
1772537558885653500,4.386653564453125,-0.09063267707824707,0.0709332749247551,0.1921384185552597
1772537558895721500,4.396721435546875,-0.11601126939058304,0.17824400961399078,0.21344530582427979
1772537558905788400,4.406788330078125,-0.12255820631980896,0.24039071798324585,0.22178640961647034
1772537558915856400,4.4168564453125,-0.12272252142429352,0.21454155445098877,0.21666674315929413
1772537558925924600,4.426924560546875,-0.13164940476417542,0.1525457799434662,0.20602083206176758
1772537558935991600,4.436991455078125,-0.15028062462806702,0.0993797555565834,0.18869031965732574
1772537558946059500,4.4470595703125,-0.1693316549062729,0.0665319636464119,0.16537846624851227
1772537558956127500,4.45712744140625,-0.1966780573129654,0.059253279119729996,0.13065670430660248
1772537558966194400,4.4671943359375,-0.2210594266653061,0.06658376008272171,0.08024471998214722
1772537558976262400,4.477262451171875,-0.24256791174411774,0.08907708525657654,0.02328396774828434
1772537558986330600,4.48733056640625,-0.25240951776504517,0.13528382778167725,-0.022874457761645317
1772537558996397600,4.4973974609375,-0.25139328837394714,0.1933351457118988,-0.06935753673315048
1772537559006465500,4.507465576171875,-0.24373593926429749,0.23868444561958313,-0.10661712288856506
1772537559016533200,4.517533203125,-0.21241582930088043,0.2470550239086151,-0.1292441338300705
1772537559026600400,4.527600341796875,-0.17345505952835083,0.20672094821929932,-0.13375069200992584
1772537559036668400,4.53766845703125,-0.12551230192184448,0.12742000818252563,-0.12067030370235443
1772537559046735600,4.547735595703125,-0.07548265904188156,0.03594769164919853,-0.09858927875757217
1772537559056803600,4.557803466796875,-0.02939772419631481,-0.05637158453464508,-0.07206738740205765
1772537559066871300,4.567871337890625,-0.0022130347788333893,-0.11261628568172455,-0.036490846425294876
1772537559076938500,4.5779384765625,0.012313177809119225,-0.15307368338108063,-0.017001569271087646
1772537559087006200,4.588006103515625,0.015651332214474678,-0.17517198622226715,-0.0069302748888731
1772537559097074400,4.598074462890625,0.03304550424218178,-0.16444504261016846,0.0038872193545103073
1772537559107141400,4.608141357421875,0.051652006804943085,-0.13941273093223572,0.015257022343575954
1772537559117209300,4.618209228515625,0.07171519845724106,-0.12983840703964233,0.03854982927441597
1772537559127277300,4.62827734375,0.0871763825416565,-0.15798887610435486,0.07575275748968124
1772537559137344300,4.63834423828125,0.10646912455558777,-0.23222662508487701,0.11023589968681335
1772537559147412500,4.64841259765625,0.11338851600885391,-0.3350559175014496,0.1351979672908783
1772537559157480400,4.65848046875,0.09230666607618332,-0.43176141381263733,0.14206387102603912
1772537559167547400,4.66854736328125,0.04652035981416702,-0.4888187050819397,0.13226643204689026
1772537559177615400,4.678615478515625,-0.027651075273752213,-0.48615849018096924,0.09626954048871994
1772537559187682300,4.688682373046875,-0.11860927194356918,-0.42248210310935974,0.04223470389842987
1772537559197750300,4.698750244140625,-0.20684193074703217,-0.3411504924297333,-0.03886201232671738
1772537559207818500,4.708818603515625,-0.29929450154304504,-0.2706126272678375,-0.12395763397216797
1772537559217885400,4.718885498046875,-0.38096752762794495,-0.21052424609661102,-0.17910929024219513
1772537559227953400,4.728953369140625,-0.4519365727901459,-0.1748703271150589,-0.20971883833408356
1772537559238021400,4.739021484375,-0.49499163031578064,-0.1697453409433365,-0.23125316202640533
1772537559248088300,4.74908837890625,-0.4985334277153015,-0.1964101344347,-0.25515973567962646
1772537559258156800,4.75915673828125,-0.48143327236175537,-0.2639950215816498,-0.29683154821395874
1772537559268225000,4.76922509765625,-0.462890088558197,-0.37490496039390564,-0.3233101963996887
1772537559278292000,4.7792919921875,-0.4459633231163025,-0.5071061849594116,-0.33255907893180847
1772537559288360000,4.78935986328125,-0.43585407733917236,-0.6596216559410095,-0.3298187553882599
1772537559298428000,4.799427978515625,-0.4332260489463806,-0.8080276250839233,-0.30638107657432556
1772537559308494800,4.809494873046875,-0.4233855605125427,-0.9209370017051697,-0.28179776668548584
1772537559318562800,4.819562744140625,-0.4142053723335266,-1.0071673393249512,-0.2720985412597656
1772537559328630000,4.829630126953125,-0.4246250092983246,-1.070683479309082,-0.27490559220314026
1772537559338698000,4.839697998046875,-0.4430389106273651,-1.1123720407485962,-0.2689209282398224
1772537559348766000,4.849765869140625,-0.48025479912757874,-1.1395047903060913,-0.2404298335313797
1772537559358833000,4.8598330078125,-0.5220041275024414,-1.1542478799819946,-0.1916969120502472
1772537559368900900,4.86990087890625,-0.5722410678863525,-1.1737185716629028,-0.1402588188648224
1772537559378968800,4.87996875,-0.6276348233222961,-1.2035486698150635,-0.0940316841006279
1772537559389036000,4.8900361328125,-0.6906366348266602,-1.223321795463562,-0.0695774108171463
1772537559399104000,4.90010400390625,-0.7538137435913086,-1.227044701576233,-0.06890123337507248
1772537559409171700,4.910171630859375,-0.8229219913482666,-1.217917799949646,-0.0747334435582161
1772537559419239000,4.920239013671875,-0.9012357592582703,-1.182877779006958,-0.07682722061872482
1772537559429306600,4.930306640625,-0.9681957960128784,-1.1528046131134033,-0.08469116687774658
1772537559439374800,4.940374755859375,-1.015110731124878,-1.1277527809143066,-0.11249616742134094
1772537559449441800,4.95044189453125,-1.0298939943313599,-1.1440376043319702,-0.14899905025959015
1772537559459509800,4.960509765625,-1.017316222190857,-1.2264336347579956,-0.19957859814167023
1772537559469577000,4.970576904296875,-0.9957336783409119,-1.3520748615264893,-0.24593251943588257
1772537559479644700,4.980644775390625,-0.9788129925727844,-1.4722963571548462,-0.2513667047023773
1772537559489713000,4.990712890625,-0.9864992499351501,-1.5495668649673462,-0.20621715486049652
1772537559499779800,5.00077978515625,-1.009989619255066,-1.574612021446228,-0.1284792125225067
1772537559509847800,5.010847900390625,-1.0451862812042236,-1.5638118982315063,-0.05159886181354523
1772537559519915800,5.020915771484375,-1.0739893913269043,-1.488146424293518,0.0073254406452178955
1772537559529982700,5.030982666015625,-1.0822679996490479,-1.3871811628341675,0.026890549808740616
1772537559540050700,5.04105078125,-1.0765217542648315,-1.3227335214614868,0.0017303358763456345
1772537559550119000,5.051118896484375,-1.0729283094406128,-1.279045820236206,-0.04758889973163605
1772537559560185900,5.061185791015625,-1.0742950439453125,-1.2488346099853516,-0.12426876276731491
1772537559570253800,5.07125390625,-1.0735594034194946,-1.24015212059021,-0.2258201688528061
1772537559580321800,5.08132177734375,-1.0602188110351562,-1.245922565460205,-0.3272764980792999
1772537559590388700,5.091388671875,-1.0255967378616333,-1.2597328424453735,-0.41309845447540283
1772537559600457000,5.10145703125,-0.9746396541595459,-1.2797963619232178,-0.4686357378959656
1772537559610524000,5.11152392578125,-0.9144056439399719,-1.28749680519104,-0.47759515047073364
1772537559620591900,5.121591796875,-0.8460995554924011,-1.2605626583099365,-0.442789763212204
1772537559630659800,5.131659912109375,-0.7642570734024048,-1.2149264812469482,-0.39261502027511597
1772537559640726800,5.141726806640625,-0.6743839383125305,-1.1778364181518555,-0.33083659410476685
1772537559650794800,5.151794677734375,-0.5867441296577454,-1.1544967889785767,-0.25467121601104736
1772537559660863000,5.161863037109375,-0.5112105011940002,-1.1305187940597534,-0.17484109103679657
1772537559670930000,5.171929931640625,-0.4644171893596649,-1.1047898530960083,-0.08992447704076767
1772537559680998000,5.181997802734375,-0.447450190782547,-1.07920503616333,-0.02264663577079773
1772537559691065900,5.19206591796875,-0.4475288689136505,-1.0522884130477905,0.015361404977738857
1772537559701132800,5.2021328125,-0.4553859829902649,-1.0113959312438965,0.025787945836782455
1772537559711201000,5.212200927734375,-0.47488683462142944,-0.9689304232597351,0.014882593415677547
1772537559721269000,5.22226904296875,-0.49376359581947327,-0.9221975207328796,-0.002814910840243101
1772537559731336000,5.2323359375,-0.5040167570114136,-0.8993825316429138,-0.02758089452981949
1772537559741404000,5.24240380859375,-0.5194380879402161,-0.8920575380325317,-0.05176958441734314
1772537559751470800,5.252470947265625,-0.5257444381713867,-0.8773866295814514,-0.06792009621858597
1772537559761538800,5.262538818359375,-0.5161871910095215,-0.861808180809021,-0.0821128860116005
1772537559771607000,5.27260693359375,-0.5115283727645874,-0.8598594069480896,-0.08425159752368927
1772537559781674000,5.282674072265625,-0.5069493055343628,-0.8811457753181458,-0.07601577043533325
1772537559791742000,5.292741943359375,-0.5040300488471985,-0.9044018983840942,-0.06328423321247101
1772537559801809700,5.3028095703125,-0.49293848872184753,-0.9232781529426575,-0.05236580967903137
1772537559811876900,5.312876953125,-0.47714176774024963,-0.9244405031204224,-0.06079402193427086
1772537559821944800,5.32294482421875,-0.4684542715549469,-0.915563702583313,-0.06651449203491211
1772537559832012800,5.3330126953125,-0.45714494585990906,-0.9009361863136292,-0.07735268771648407
1772537559842079000,5.343078857421875,-0.4571816921234131,-0.8731034994125366,-0.08412323892116547
1772537559852147000,5.35314697265625,-0.4547901451587677,-0.8349989652633667,-0.08296861499547958
1772537559862214000,5.3632138671875,-0.4625665843486786,-0.8002995848655701,-0.0697297751903534
1772537559872281900,5.37328173828125,-0.4663773775100708,-0.777839183807373,-0.04921261966228485
1772537559882348800,5.383348876953125,-0.46857690811157227,-0.7634688019752502,-0.01852208375930786
1772537559892417000,5.3934169921875,-0.4715001881122589,-0.7418336868286133,0.011558732017874718
1772537559902485000,5.403485107421875,-0.4671269953250885,-0.710545003414154,0.048189450055360794
1772537559912552000,5.413552001953125,-0.45590367913246155,-0.694871187210083,0.07700178027153015
1772537559922620000,5.423619873046875,-0.4363004267215729,-0.6929766535758972,0.09732808917760849
1772537559932688000,5.43368798828125,-0.4119960069656372,-0.6931939125061035,0.10155215859413147
1772537559942754800,5.4437548828125,-0.39307981729507446,-0.6969375014305115,0.11292199045419693
1772537559952823000,5.453822998046875,-0.3869941234588623,-0.6917065978050232,0.12775225937366486
1772537559962890800,5.463890869140625,-0.39912375807762146,-0.6751475930213928,0.15016275644302368
1772537559972958000,5.4739580078125,-0.41781315207481384,-0.6387538313865662,0.17493902146816254
1772537559983025700,5.484025634765625,-0.4427003860473633,-0.5849630236625671,0.18606996536254883
1772537559993094000,5.494093994140625,-0.4742289185523987,-0.5161036849021912,0.18350140750408173
1772537560003160800,5.504160888671875,-0.5031577944755554,-0.42324134707450867,0.17522349953651428
1772537560013228800,5.514228759765625,-0.5181624889373779,-0.3313400447368622,0.14685304462909698
1772537560023296000,5.5242958984375,-0.5173672437667847,-0.26960423588752747,0.1161755621433258
1772537560033363700,5.53436376953125,-0.498386412858963,-0.23660269379615784,0.09355895966291428
1772537560043431700,5.544431640625,-0.4499778747558594,-0.24690407514572144,0.08222561329603195
1772537560053498600,5.55449853515625,-0.3909847140312195,-0.2927874028682709,0.08531588315963745
1772537560063566800,5.56456689453125,-0.3356764614582062,-0.3621648848056793,0.10775034874677658
1772537560073634800,5.574634765625,-0.2859506905078888,-0.4386279284954071,0.14445501565933228
1772537560083701800,5.58470166015625,-0.24245087802410126,-0.4826135039329529,0.18050089478492737
1772537560093769700,5.594769775390625,-0.2009669989347458,-0.5148352384567261,0.20903855562210083
1772537560103838000,5.604837890625,-0.15717290341854095,-0.5360481142997742,0.22803620994091034
1772537560113905000,5.61490478515625,-0.09712862968444824,-0.5769873857498169,0.21149525046348572
1772537560123972900,5.624972900390625,-0.03633159026503563,-0.6276223659515381,0.17183491587638855
1772537560134040800,5.635040771484375,-0.00535671878606081,-0.6689608097076416,0.13778245449066162
1772537560144107800,5.645107666015625,-0.006648617796599865,-0.6787612438201904,0.1162281483411789
1772537560154175700,5.65517578125,-0.03616543114185333,-0.6479437947273254,0.10133939981460571
1772537560164242700,5.66524267578125,-0.11913328617811203,-0.5570162534713745,0.0941278263926506
1772537560174311000,5.675310791015625,-0.22909700870513916,-0.3988753855228424,0.08504007011651993
1772537560184379000,5.68537890625,-0.3242035508155823,-0.19797691702842712,0.051202476024627686
1772537560194445800,5.69544580078125,-0.38370415568351746,0.01272808201611042,-0.005700659938156605
1772537560204513800,5.705513671875,-0.40989553928375244,0.19157826900482178,-0.07201337069272995
1772537560214582000,5.71558203125,-0.4042694866657257,0.3133479952812195,-0.12636664509773254
1772537560224649000,5.72564892578125,-0.37107157707214355,0.3551716208457947,-0.14846421778202057
1772537560234718000,5.735718017578125,-0.3060670495033264,0.3117276728153229,-0.14543457329273224
1772537560244785700,5.74578564453125,-0.2229870706796646,0.18798388540744781,-0.12511998414993286
1772537560254853400,5.755853271484375,-0.132249116897583,0.015274234116077423,-0.06716524064540863
1772537560264920600,5.765920654296875,-0.03792848065495491,-0.17342963814735413,0.00484104547649622
1772537560274988300,5.77598828125,0.040699221193790436,-0.3689522445201874,0.0929376631975174
1772537560285055500,5.786055419921875,0.11421844363212585,-0.5339504480361938,0.16774079203605652
1772537560295123500,5.79612353515625,0.1596066653728485,-0.6490494012832642,0.2117656022310257
1772537560305191200,5.806191162109375,0.1726582944393158,-0.7229385375976562,0.21683119237422943
1772537560315258400,5.81625830078125,0.16385598480701447,-0.8033592104911804,0.1845284104347229
1772537560325326300,5.826326416015625,0.11369746923446655,-0.8773913383483887,0.12324109673500061
1772537560335394300,5.836394287109375,0.01175506878644228,-0.8725950717926025,0.07846046984195709
1772537560345461200,5.846461181640625,-0.12183202058076859,-0.780147135257721,0.03849707543849945
1772537560355529200,5.856529296875,-0.25215694308280945,-0.6237297654151917,-0.01914348267018795
1772537560365597200,5.86659716796875,-0.3687533438205719,-0.43676331639289856,-0.10019253194332123
1772537560375664400,5.876664306640625,-0.4625493884086609,-0.2697772979736328,-0.19163274765014648
1772537560385732400,5.886732421875,-0.5275329351425171,-0.14598186314105988,-0.2598285973072052
1772537560395800300,5.89680029296875,-0.5532649159431458,-0.07169830799102783,-0.2935386300086975
1772537560405867300,5.9068671875,-0.5505754351615906,-0.07423976808786392,-0.2975735664367676
1772537560415935200,5.916935302734375,-0.5231954455375671,-0.13476836681365967,-0.2810784876346588
1772537560426003500,5.92700341796875,-0.4889567494392395,-0.1937275528907776,-0.2396673858165741
1772537560436070400,5.9370703125,-0.4442579746246338,-0.24078108370304108,-0.19492028653621674
1772537560446138400,5.947138427734375,-0.3831522762775421,-0.3100224733352661,-0.17932428419589996
1772537560456205300,5.957205322265625,-0.32299891114234924,-0.405280739068985,-0.1773015260696411
1772537560466273300,5.967273193359375,-0.2646344006061554,-0.48520591855049133,-0.18196338415145874
1772537560476341200,5.97734130859375,-0.1989383101463318,-0.5326577425003052,-0.1841094195842743
1772537560486408400,5.987408447265625,-0.1403873860836029,-0.5678306818008423,-0.19262807071208954
1772537560496476400,5.997476318359375,-0.101198710501194,-0.5975813865661621,-0.20423200726509094
1772537560506544400,6.00754443359375,-0.09883754700422287,-0.610151469707489,-0.19357429444789886
1772537560516611300,6.017611328125,-0.12649734318256378,-0.5887519121170044,-0.1679520159959793
1772537560526679300,6.02767919921875,-0.1516602337360382,-0.5475519895553589,-0.13631978631019592
1772537560536747500,6.03774755859375,-0.1616511344909668,-0.5158454775810242,-0.11168795078992844
1772537560546814500,6.047814453125,-0.154987633228302,-0.49952322244644165,-0.10148564726114273
1772537560556882400,6.05788232421875,-0.1425209641456604,-0.5051329731941223,-0.09031006693840027
1772537560566950400,6.067950439453125,-0.14093051850795746,-0.49970173835754395,-0.06652617454528809
1772537560577017300,6.078017333984375,-0.14799973368644714,-0.481115460395813,-0.026120448485016823
1772537560587085300,6.088085205078125,-0.1703905314207077,-0.44788721203804016,0.02583356387913227
1772537560597152500,6.098152587890625,-0.20510704815387726,-0.40163806080818176,0.08292687684297562
1772537560607220500,6.108220458984375,-0.23648972809314728,-0.3495149612426758,0.13104620575904846
1772537560617288400,6.118288330078125,-0.26445260643959045,-0.30854424834251404,0.14524179697036743
1772537560627355400,6.12835546875,-0.28512752056121826,-0.28770288825035095,0.14205798506736755
1772537560637423400,6.13842333984375,-0.2915223240852356,-0.2906096279621124,0.12776383757591248
1772537560647491300,6.1484912109375,-0.2953106462955475,-0.31053033471107483,0.12348919361829758
1772537560657558500,6.15855859375,-0.29710525274276733,-0.3335227072238922,0.12541130185127258
1772537560667626500,6.16862646484375,-0.2951246500015259,-0.3948558270931244,0.1515084207057953
1772537560677694200,6.178694091796875,-0.30344006419181824,-0.45560595393180847,0.19205015897750854
1772537560687761400,6.188761474609375,-0.30870088934898376,-0.48464295268058777,0.2370285540819168
1772537560697829000,6.1988291015625,-0.3294409513473511,-0.4808148145675659,0.2811877727508545
1772537560707897300,6.2088974609375,-0.36870715022087097,-0.422524094581604,0.33303314447402954
1772537560717964300,6.21896435546875,-0.41016486287117004,-0.3404827415943146,0.3832703232765198
1772537560728032300,6.2290322265625,-0.4421505033969879,-0.2824237048625946,0.40393540263175964
1772537560738099500,6.239099365234375,-0.45256131887435913,-0.2803081274032593,0.3662702739238739
1772537560748167200,6.249167236328125,-0.4267214834690094,-0.3505135774612427,0.29359152913093567
1772537560758235400,6.2592353515625,-0.38530871272087097,-0.4580433666706085,0.20211556553840637
1772537560768302300,6.26930224609375,-0.36444419622421265,-0.592671811580658,0.12348706275224686
1772537560778370300,6.279370361328125,-0.369447261095047,-0.7592241168022156,0.05180740728974342
1772537560788438300,6.289438232421875,-0.37841784954071045,-0.9148603081703186,-0.0047637284733355045
1772537560798505200,6.299505126953125,-0.3877989649772644,-1.0494840145111084,-0.06465970724821091
1772537560808573200,6.3095732421875,-0.4096994698047638,-1.1380897760391235,-0.13326433300971985
1772537560818641400,6.319641357421875,-0.44602352380752563,-1.1609864234924316,-0.1853865087032318
1772537560828708400,6.329708251953125,-0.5066388845443726,-1.0913196802139282,-0.20410612225532532
1772537560838776300,6.3397763671875,-0.5863407254219055,-0.9235213398933411,-0.19553880393505096
1772537560848844300,6.34984423828125,-0.6615079641342163,-0.7050025463104248,-0.16943901777267456
1772537560858911200,6.3599111328125,-0.7329506874084473,-0.49480631947517395,-0.13121545314788818
1772537560868979500,6.3699794921875,-0.7823877334594727,-0.3348073363304138,-0.08440321683883667
1772537560879046400,6.38004638671875,-0.7941398620605469,-0.24599479138851166,-0.04822024330496788
1772537560889114400,6.3901142578125,-0.7854694128036499,-0.22830261290073395,-0.020218167454004288
1772537560899182300,6.400182373046875,-0.7646188139915466,-0.24805030226707458,0.015572434291243553
1772537560909249300,6.410249267578125,-0.7381693124771118,-0.29205983877182007,0.05005717650055885
1772537560919317200,6.420317138671875,-0.701056718826294,-0.33728307485580444,0.07341308146715164
1772537560929385500,6.430385498046875,-0.6522833108901978,-0.3977586627006531,0.07714124023914337
1772537560939452400,6.440452392578125,-0.5945842266082764,-0.47319597005844116,0.052307017147541046
1772537560949520400,6.450520263671875,-0.5349776148796082,-0.5546253323554993,0.006817561574280262
1772537560959588400,6.46058837890625,-0.4841107428073883,-0.6246441602706909,-0.05212525650858879
1772537560969655300,6.4706552734375,-0.4369352459907532,-0.6761505007743835,-0.12050005048513412
1772537560979723500,6.4807236328125,-0.41326963901519775,-0.7261877059936523,-0.1884213238954544
1772537560989791500,6.49079150390625,-0.40008753538131714,-0.7678419351577759,-0.25417372584342957
1772537560999858400,6.5008583984375,-0.3901219367980957,-0.7968345284461975,-0.32198038697242737
1772537561009926400,6.510926513671875,-0.38294312357902527,-0.8190357089042664,-0.4007369875907898
1772537561019993300,6.520993408203125,-0.38243553042411804,-0.8272953033447266,-0.4712993800640106
1772537561030061300,6.531061279296875,-0.39283835887908936,-0.7965334057807922,-0.5187260508537292
1772537561040129500,6.541129638671875,-0.3969520330429077,-0.7288674116134644,-0.5294710993766785
1772537561050196500,6.551196533203125,-0.4122510850429535,-0.6411497592926025,-0.4827353060245514
1772537561060264400,6.561264404296875,-0.42546191811561584,-0.5370907783508301,-0.3913619816303253
1772537561070332400,6.57133251953125,-0.41897979378700256,-0.44019219279289246,-0.29139038920402527
1772537561080399400,6.5813994140625,-0.39545267820358276,-0.3739359378814697,-0.2069854736328125
1772537561090467300,6.59146728515625,-0.35443174839019775,-0.3549329340457916,-0.13492673635482788
1772537561100535300,6.601535400390625,-0.3158215284347534,-0.3647579550743103,-0.07333150506019592
1772537561110602500,6.6116025390625,-0.27859506011009216,-0.4113651514053345,-0.019653895869851112
1772537561120670200,6.621670166015625,-0.2534826099872589,-0.46754664182662964,0.026012198999524117
1772537561130738200,6.63173828125,-0.22185702621936798,-0.5089731812477112,0.045921988785266876
1772537561140805000,6.64180517578125,-0.18910737335681915,-0.5507420301437378,0.03576500341296196
1772537561150873300,6.651873291015625,-0.16504624485969543,-0.595862090587616,0.007381297182291746
1772537561160941300,6.66194140625,-0.16397625207901,-0.6238927841186523,-0.016363106667995453
1772537561171008300,6.67200830078125,-0.17499348521232605,-0.6219500303268433,-0.04680916666984558
1772537561181076200,6.682076171875,-0.19068212807178497,-0.5996534824371338,-0.08651852607727051
1772537561191143200,6.69214306640625,-0.2044605314731598,-0.5818542242050171,-0.13277576863765717
1772537561201211400,6.70221142578125,-0.21086569130420685,-0.5833922028541565,-0.18645285069942474
1772537561211279400,6.712279296875,-0.2182098925113678,-0.5956286191940308,-0.229098841547966
1772537561221346300,6.72234619140625,-0.22092357277870178,-0.5970131158828735,-0.24492764472961426
1772537561231414300,6.732414306640625,-0.23868872225284576,-0.5925158262252808,-0.23495997488498688
1772537561241482200,6.742482177734375,-0.25687700510025024,-0.5819041132926941,-0.1975470781326294
1772537561251549200,6.752549072265625,-0.26768359541893005,-0.551062822341919,-0.14199432730674744
1772537561261617400,6.762617431640625,-0.25445422530174255,-0.513105571269989,-0.0864684209227562
1772537561271685400,6.772685302734375,-0.2263147234916687,-0.4919435977935791,-0.026836786419153214
1772537561281752300,6.78275244140625,-0.20171469449996948,-0.5050330758094788,0.03450050577521324
1772537561291820500,6.792820556640625,-0.1830344796180725,-0.5433276891708374,0.0958797037601471
1772537561301888500,6.802888427734375,-0.1806018054485321,-0.579608142375946,0.15514256060123444
1772537561311955500,6.81295556640625,-0.1827717423439026,-0.6057204008102417,0.1955443173646927
1772537561322023400,6.8230234375,-0.19802142679691315,-0.6129478216171265,0.20968212187290192
1772537561332090400,6.83309033203125,-0.20921149849891663,-0.6086116433143616,0.21526305377483368
1772537561342158600,6.84315869140625,-0.22216960787773132,-0.6124588251113892,0.2289639562368393
1772537561352226600,6.8532265625,-0.25196558237075806,-0.6095066666603088,0.24197615683078766
1772537561362293500,6.86329345703125,-0.29610663652420044,-0.5911915898323059,0.26898661255836487
1772537561372361500,6.873361572265625,-0.34902018308639526,-0.5620898604393005,0.2843490540981293
1772537561382429400,6.883429443359375,-0.4054301083087921,-0.5205501914024353,0.28508639335632324
1772537561392496400,6.893496337890625,-0.43941470980644226,-0.4760031998157501,0.2472684532403946
1772537561402564600,6.903564697265625,-0.452252596616745,-0.4753883481025696,0.17093175649642944
1772537561412632600,6.913632568359375,-0.4266103506088257,-0.5142755508422852,0.08944649249315262
1772537561422699500,6.923699462890625,-0.3761981427669525,-0.593471348285675,0.019899090752005577
1772537561432767500,6.933767578125,-0.32617706060409546,-0.7389619946479797,-0.02665882371366024
1772537561442835500,6.94383544921875,-0.30779966711997986,-0.8731240630149841,-0.024249333888292313
1772537561452902700,6.953902587890625,-0.3053887188434601,-0.9470550417900085,-0.004505988210439682
1772537561462970400,6.963970458984375,-0.32714152336120605,-0.956243097782135,0.010741696693003178
1772537561473037600,6.97403759765625,-0.3558887541294098,-0.9048552513122559,0.021825505420565605
1772537561483105500,6.98410546875,-0.3792012929916382,-0.838716983795166,0.00339150195941329
1772537561493173200,6.99417333984375,-0.4025513529777527,-0.7805165648460388,-0.025676369667053223
1772537561503240400,7.004240478515625,-0.4564352333545685,-0.7043032050132751,-0.05541280657052994
1772537561513308400,7.014308349609375,-0.527193546295166,-0.605987548828125,-0.08553902059793472
1772537561523376400,7.02437646484375,-0.6153265833854675,-0.5001112818717957,-0.12489479780197144
1772537561533443300,7.034443359375,-0.7024697661399841,-0.3724321722984314,-0.15687483549118042
1772537561543511300,7.04451123046875,-0.7636591792106628,-0.2506663501262665,-0.20020194351673126
1772537561553579300,7.054579345703125,-0.8097137808799744,-0.12369108200073242,-0.24249906837940216
1772537561563646500,7.064646484375,-0.8416054248809814,-0.001608042512089014,-0.27370545268058777
1772537561573714400,7.07471435546875,-0.8364146947860718,0.09118607640266418,-0.2799372375011444
1772537561583782400,7.084782470703125,-0.7956763505935669,0.12105175852775574,-0.2728705108165741
1772537561593849300,7.094849365234375,-0.7220316529273987,0.08407243341207504,-0.2484477311372757
1772537561603917300,7.104917236328125,-0.6154616475105286,-0.036353155970573425,-0.19926248490810394
1772537561613984300,7.114984375,-0.5045090317726135,-0.2050343155860901,-0.12198394536972046
1772537561624052500,7.125052490234375,-0.3987464904785156,-0.3824879825115204,-0.024083977565169334
1772537561634120400,7.135120361328125,-0.31934991478919983,-0.5471845269203186,0.07697845250368118
1772537561644187400,7.1451875,-0.2608785331249237,-0.6547271013259888,0.18358832597732544
1772537561654255400,7.15525537109375,-0.22779648005962372,-0.7203396558761597,0.26060590147972107
1772537561664323300,7.1653232421875,-0.21655084192752838,-0.7502360939979553,0.29626426100730896
1772537561674390500,7.175390625,-0.22500264644622803,-0.7470536231994629,0.29326874017715454
1772537561684458500,7.18545849609375,-0.24408161640167236,-0.7559188008308411,0.26140329241752625
1772537561694526500,7.1955263671875,-0.274930864572525,-0.784532904624939,0.21860282123088837
1772537561704593400,7.205593505859375,-0.32710501551628113,-0.8052008152008057,0.18344467878341675
1772537561714661400,7.215661376953125,-0.3883875608444214,-0.8059467673301697,0.15719790756702423
1772537561724729600,7.2257294921875,-0.44694632291793823,-0.8002647757530212,0.1224847212433815
1772537561734796500,7.235796630859375,-0.5097236633300781,-0.7619147300720215,0.09963773190975189
1772537561744864500,7.245864501953125,-0.5794113874435425,-0.707798957824707,0.0726231187582016
1772537561754931500,7.255931396484375,-0.6491054892539978,-0.6476413011550903,0.04627273976802826
1772537561764999400,7.26599951171875,-0.7127439975738525,-0.5995972752571106,0.018518537282943726
1772537561775067400,7.2760673828125,-0.762620747089386,-0.5599505305290222,-0.016311347484588623
1772537561785134600,7.286134521484375,-0.7907631397247314,-0.5392507314682007,-0.05495371297001839
1772537561795202600,7.29620263671875,-0.8028554916381836,-0.5378960371017456,-0.0967206060886383
1772537561805270500,7.3062705078125,-0.7947822213172913,-0.5518632531166077,-0.13199681043624878
1772537561815337500,7.31633740234375,-0.7707567811012268,-0.5892420411109924,-0.15897169709205627
1772537561825405400,7.326405517578125,-0.7375690340995789,-0.6444047689437866,-0.174833282828331
1772537561835473700,7.3364736328125,-0.7027743458747864,-0.7157519459724426,-0.17635022103786469
1772537561845540600,7.34654052734375,-0.6752333045005798,-0.7784137725830078,-0.1581268310546875
1772537561855608600,7.356608642578125,-0.6508512496948242,-0.8180261850357056,-0.13963916897773743
1772537561865676300,7.36667626953125,-0.6170778274536133,-0.8544510006904602,-0.12201494723558426
1772537561875743500,7.376743408203125,-0.5731316804885864,-0.9000325798988342,-0.10428202152252197
1772537561885811500,7.3868115234375,-0.5340115427970886,-0.9505262970924377,-0.06921277940273285
1772537561895878700,7.396878662109375,-0.500360906124115,-0.9990929961204529,-0.03610862046480179
1772537561905946400,7.4069462890625,-0.47350504994392395,-1.0455576181411743,-0.0068170418962836266
1772537561916014300,7.417014404296875,-0.46409502625465393,-1.0855836868286133,0.008165104314684868
1772537561926081500,7.42708154296875,-0.4745391011238098,-1.0899206399917603,0.0022338104899972677
1772537561936149200,7.437149169921875,-0.5081151723861694,-1.0418164730072021,-0.03515377268195152
1772537561946217500,7.447217529296875,-0.5626282691955566,-0.9546882510185242,-0.1012486144900322
1772537561956284400,7.457284423828125,-0.621328592300415,-0.8293148875236511,-0.19124747812747955
1772537561966352400,7.467352294921875,-0.6740516424179077,-0.7174971103668213,-0.3018905818462372
1772537561976420400,7.47742041015625,-0.703688383102417,-0.6279400587081909,-0.4018544554710388
1772537561986487300,7.4874873046875,-0.6945868134498596,-0.5570700764656067,-0.4556574821472168
1772537561996555300,7.49755517578125,-0.6638054251670837,-0.518339991569519,-0.46070897579193115
1772537562006623500,7.50762353515625,-0.6315003633499146,-0.4802336096763611,-0.4074830412864685
1772537562016690400,7.5176904296875,-0.6019131541252136,-0.450387567281723,-0.3282894194126129
1772537562026758400,7.52775830078125,-0.5661455988883972,-0.41607725620269775,-0.2578221559524536
1772537562036826400,7.537826416015625,-0.5238229036331177,-0.3714405298233032,-0.21976397931575775
1772537562046893300,7.547893310546875,-0.46942976117134094,-0.3217637240886688,-0.2100566178560257
1772537562056961500,7.55796142578125,-0.41452470421791077,-0.2765568196773529,-0.19717517495155334
1772537562067028500,7.568028564453125,-0.36884480714797974,-0.25195425748825073,-0.18928776681423187
1772537562077096400,7.578096435546875,-0.3302507996559143,-0.23995058238506317,-0.16894495487213135
1772537562087164400,7.588164306640625,-0.29288098216056824,-0.2214687168598175,-0.13125725090503693
1772537562097231400,7.5982314453125,-0.2589184641838074,-0.20978489518165588,-0.09118466824293137
1772537562107299300,7.60829931640625,-0.22150035202503204,-0.2025637924671173,-0.0542183592915535
1772537562117367600,7.618367431640625,-0.1741783767938614,-0.2013200968503952,-0.027561452239751816
1772537562127434500,7.6284345703125,-0.13068129122257233,-0.2237800806760788,0.010530583560466766
1772537562137502500,7.63850244140625,-0.09346813708543777,-0.23872201144695282,0.06049574911594391
1772537562147570400,7.6485703125,-0.055448323488235474,-0.24430298805236816,0.13270412385463715
1772537562157637400,7.658637451171875,-0.026706689968705177,-0.2730155885219574,0.1976253241300583
1772537562167705600,7.66870556640625,0.003563570324331522,-0.2844608426094055,0.2547219395637512
1772537562177773600,7.678773681640625,0.016868723556399345,-0.28262859582901,0.30055442452430725
1772537562187840500,7.688840576171875,0.019485751166939735,-0.2741878032684326,0.32002148032188416
1772537562197908500,7.698908447265625,0.008856544271111488,-0.2684665322303772,0.3195759356021881
1772537562207975400,7.708975341796875,-0.010078119114041328,-0.2530066668987274,0.30900493264198303
1772537562218043400,7.71904345703125,-0.030928006395697594,-0.2274773269891739,0.2949429154396057
1772537562228111600,7.729111572265625,-0.05850222706794739,-0.19869987666606903,0.28078749775886536
1772537562238178600,7.739178466796875,-0.09161970019340515,-0.16366571187973022,0.2847553491592407
1772537562248246500,7.74924658203125,-0.12699568271636963,-0.12045739591121674,0.29852381348609924
1772537562258314500,7.759314453125,-0.14861150085926056,-0.07360865920782089,0.3055385649204254
1772537562268381700,7.769381591796875,-0.1383759081363678,-0.08032439649105072,0.2838231027126312
1772537562278449700,7.77944970703125,-0.09181426465511322,-0.1296730488538742,0.22385671734809875
1772537562288517600,7.789517578125,-0.03478408604860306,-0.21251636743545532,0.1599389612674713
1772537562298584600,7.79958447265625,0.0118382778018713,-0.31230631470680237,0.10985715687274933
1772537562308652500,7.809652587890625,0.03866518661379814,-0.42562344670295715,0.06829620152711868
1772537562318720500,7.819720458984375,0.04829411208629608,-0.5167773365974426,0.018429040908813477
1772537562328787700,7.82978759765625,0.05233010649681091,-0.5424098372459412,-0.03150684013962746
1772537562338855700,7.839855712890625,0.04888663813471794,-0.502662181854248,-0.07261379808187485
1772537562348922600,7.849922607421875,0.03693981468677521,-0.3891902267932892,-0.102273128926754
1772537562358990600,7.859990478515625,0.02178056538105011,-0.23984919488430023,-0.11597349494695663
1772537562369058600,7.87005859375,0.013507694937288761,-0.11161087453365326,-0.12227689474821091
1772537562379125500,7.88012548828125,0.005171201191842556,-0.036495089530944824,-0.11577238887548447
1772537562389193700,7.89019384765625,-0.0008922249544411898,0.0124386977404356,-0.06613389402627945
1772537562399261700,7.90026171875,-0.005794305354356766,0.04367411509156227,0.021928319707512856
1772537562409328600,7.91032861328125,-0.0007719678105786443,0.04723462462425232,0.1219058483839035
1772537562419396600,7.920396728515625,0.007641224656254053,0.015741148963570595,0.20888681709766388
1772537562429464600,7.930464599609375,0.015671513974666595,-0.010523904114961624,0.28021731972694397
1772537562439531800,7.94053173828125,0.015144205652177334,-0.017270488664507866,0.33350425958633423
1772537562449599700,7.950599853515625,-0.003920295741409063,-0.0004084990359842777,0.38058486580848694
1772537562459667700,7.960667724609375,-0.029538573697209358,0.008594583719968796,0.41005992889404297
1772537562469734700,7.970734619140625,-0.057760268449783325,-0.012909994460642338,0.4100065231323242
1772537562479802600,7.980802734375,-0.08712401986122131,-0.060997363179922104,0.35823068022727966
1772537562489869600,7.99086962890625,-0.10710935294628143,-0.12334802001714706,0.2671278715133667
1772537562499937800,8.000937744140625,-0.11109158396720886,-0.20363833010196686,0.14390875399112701
1772537562510005800,8.011005859375,-0.12111414968967438,-0.3063146770000458,0.002792192157357931
1772537562520072700,8.02107275390625,-0.14112061262130737,-0.4046849310398102,-0.12999674677848816
1772537562530140700,8.031140625,-0.16125816106796265,-0.4682101607322693,-0.24499161541461945
1772537562540208600,8.041208740234374,-0.18050377070903778,-0.5033298134803772,-0.3367612063884735
1772537562550275800,8.05127587890625,-0.2040749341249466,-0.5086079835891724,-0.40581008791923523
1772537562560343800,8.06134375,-0.21361596882343292,-0.4834964871406555,-0.4638776481151581
1772537562570411800,8.071411865234374,-0.2104196697473526,-0.43599531054496765,-0.49893704056739807
1772537562580478700,8.081478759765625,-0.21530844271183014,-0.36237701773643494,-0.513997495174408
1772537562590546700,8.091546630859375,-0.21427211165428162,-0.26788023114204407,-0.49261361360549927
1772537562600615000,8.101614990234374,-0.20880118012428284,-0.18689590692520142,-0.4588732123374939
1772537562610681900,8.111681884765625,-0.19126632809638977,-0.12376545369625092,-0.4198608994483948
1772537562620749800,8.121749755859375,-0.1605321168899536,-0.08954570442438126,-0.39142686128616333
1772537562630816800,8.131816650390626,-0.12466798722743988,-0.07634842395782471,-0.35722604393959045
1772537562640884700,8.141884765625,-0.07849010825157166,-0.08204492926597595,-0.3125531077384949
1772537562650952700,8.15195263671875,-0.046512290835380554,-0.10498149693012238,-0.2647872269153595
1772537562661020000,8.16202001953125,-0.014910957776010036,-0.11532708257436752,-0.20781715214252472
1772537562671087600,8.172087646484375,0.008084521628916264,-0.12348522990942001,-0.16118241846561432
1772537562681155600,8.182155517578124,0.030376510694622993,-0.12907707691192627,-0.14306040108203888
1772537562691222800,8.192222900390625,0.04449031874537468,-0.12916353344917297,-0.15107424557209015
1772537562701290500,8.20229052734375,0.03764306381344795,-0.12466491758823395,-0.16993021965026855
1772537562711358700,8.212358642578126,0.020556846633553505,-0.10635221004486084,-0.2010253667831421
1772537562721425700,8.22242578125,0.01384568028151989,-0.07641002535820007,-0.23338863253593445
1772537562731493600,8.23249365234375,0.01960301771759987,-0.060257505625486374,-0.27648553252220154
1772537562741561600,8.2425615234375,0.028312886133790016,-0.07033996284008026,-0.30293604731559753
1772537562751628500,8.252628662109375,0.02936486527323723,-0.09548714011907578,-0.3050139546394348
1772537562761696500,8.262696533203124,0.03363178297877312,-0.13510406017303467,-0.3033577501773834
1772537562771764700,8.2727646484375,0.03283156454563141,-0.16251209378242493,-0.28637805581092834
1772537562781831700,8.282831787109375,0.036290742456912994,-0.1621467024087906,-0.2701902985572815
1772537562791899600,8.292899658203124,0.03800924867391586,-0.14158372581005096,-0.25839483737945557
1772537562801966600,8.302966552734375,0.026168836280703545,-0.11467886716127396,-0.25206103920936584
1772537562812034600,8.31303466796875,0.0037856195122003555,-0.08891459554433823,-0.2254418283700943
1772537562822102800,8.323102783203124,-0.018310362473130226,-0.0709579661488533,-0.1865149438381195
1772537562832169700,8.333169677734375,-0.03944665938615799,-0.05651729553937912,-0.1448158174753189
1772537562842237700,8.34323779296875,-0.053200021386146545,-0.042818792164325714,-0.10807882994413376
1772537562852305700,8.3533056640625,-0.058802928775548935,-0.033010806888341904,-0.07329034060239792
1772537562862372600,8.36337255859375,-0.07144122570753098,-0.02960808575153351,-0.044386520981788635
1772537562872440600,8.373440673828124,-0.08519911766052246,-0.029905561357736588,-0.01071377843618393
1772537562882508800,8.3835087890625,-0.09729732573032379,-0.021064667031168938,0.030839791521430016
1772537562892575700,8.39357568359375,-0.11011508852243423,-0.012434086762368679,0.08776268362998962
1772537562902643700,8.403643798828124,-0.12535156309604645,0.0012550938408821821,0.16156500577926636
1772537562912711700,8.413711669921875,-0.15717509388923645,0.02515716850757599,0.24858860671520233
1772537562922778600,8.423778564453125,-0.1850445419549942,0.05851113051176071,0.31585314869880676
1772537562932846800,8.433846923828124,-0.21236807107925415,0.096111960709095,0.36393043398857117
1772537562942913800,8.443913818359375,-0.2444296032190323,0.11675385385751724,0.3528711199760437
1772537562952981800,8.453981689453125,-0.2509920597076416,0.08578961342573166,0.28974273800849915
1772537562963049700,8.4640498046875,-0.24489477276802063,0.005324596539139748,0.19063851237297058
1772537562973116700,8.47411669921875,-0.24705402553081512,-0.06476563215255737,0.11341965198516846
1772537562983184600,8.4841845703125,-0.27531519532203674,-0.13577988743782043,0.08498480916023254
1772537562993252900,8.4942529296875,-0.30538907647132874,-0.1763983964920044,0.0736771672964096
1772537563003319800,8.50431982421875,-0.32255819439888,-0.2065081000328064,0.08609681576490402
1772537563013387800,8.5143876953125,-0.3117459714412689,-0.2320789098739624,0.09140832722187042
1772537563023455700,8.524455810546876,-0.2889149487018585,-0.2964938282966614,0.09013427048921585
1772537563033522700,8.534522705078125,-0.28605565428733826,-0.35162028670310974,0.11167336255311966
1772537563043591000,8.5445908203125,-0.30018186569213867,-0.3943997025489807,0.16025766730308533
1772537563053658600,8.55465869140625,-0.33932775259017944,-0.42333218455314636,0.21350285410881042
1772537563063725800,8.564725830078125,-0.372611403465271,-0.4366607666015625,0.24439339339733124
1772537563073793500,8.57479345703125,-0.40239983797073364,-0.45349714159965515,0.22261971235275269
1772537563083860700,8.58486083984375,-0.43928807973861694,-0.4524369537830353,0.18556609749794006
1772537563093928400,8.594928466796874,-0.4887671172618866,-0.41090044379234314,0.15251773595809937
1772537563103996700,8.60499658203125,-0.5536741614341736,-0.35071566700935364,0.1324383020401001
1772537563114063600,8.615063720703125,-0.6131569147109985,-0.2791403532028198,0.11988214403390884
1772537563124131600,8.625131591796874,-0.6557584404945374,-0.2000972032546997,0.1172482818365097
1772537563134199600,8.635199462890625,-0.6720036864280701,-0.11650681495666504,0.12473094463348389
1772537563144266500,8.6452666015625,-0.6589975953102112,-0.056668512523174286,0.12174234539270401
1772537563154334700,8.655334716796874,-0.6199728846549988,-0.019077293574810028,0.11414925754070282
1772537563164402700,8.665402587890625,-0.5641447305679321,-0.024035565555095673,0.09941025823354721
1772537563174469600,8.6754697265625,-0.5068622827529907,-0.08100883662700653,0.0766996219754219
1772537563184537600,8.68553759765625,-0.4543685019016266,-0.16779059171676636,0.06198166683316231
1772537563194605600,8.69560546875,-0.40307095646858215,-0.2509874999523163,0.05601205676794052
1772537563204672500,8.705672607421874,-0.3485856056213379,-0.34827569127082825,0.061019331216812134
1772537563214740700,8.71574072265625,-0.29847952723503113,-0.44966942071914673,0.06849095970392227
1772537563224808700,8.72580859375,-0.25803011655807495,-0.5487858653068542,0.07225453853607178
1772537563234875600,8.735875732421874,-0.2295890897512436,-0.6435106992721558,0.0753050297498703
1772537563244943600,8.745943603515625,-0.20660759508609772,-0.7193306684494019,0.0761769488453865
1772537563255010600,8.756010498046875,-0.20209632813930511,-0.7970820069313049,0.06472546607255936
1772537563265079000,8.7660791015625,-0.22501468658447266,-0.8659529089927673,0.04616057500243187
1772537563275147000,8.77614697265625,-0.2978377342224121,-0.9075621366500854,0.037314265966415405
1772537563285214000,8.7862138671875,-0.3920119106769562,-0.9029399752616882,0.034376002848148346
1772537563295282000,8.796281982421876,-0.49010205268859863,-0.8733991980552673,0.001420882297679782
1772537563305350000,8.806349853515625,-0.5804244875907898,-0.8394824862480164,-0.053919870406389236
1772537563315417000,8.8164169921875,-0.6611994504928589,-0.7895804047584534,-0.11858851462602615
1772537563325485000,8.826485107421876,-0.7159662842750549,-0.7425148487091064,-0.16929802298545837
1772537563335553000,8.836552978515625,-0.761030375957489,-0.7294790148735046,-0.18959057331085205
1772537563345620000,8.846619873046874,-0.7917752265930176,-0.7453136444091797,-0.1753184199333191
1772537563355688000,8.85668798828125,-0.811683177947998,-0.772903323173523,-0.13673168420791626
1772537563365756200,8.866756103515625,-0.8212835788726807,-0.7982124090194702,-0.08608555048704147
1772537563375823000,8.876822998046874,-0.8146100640296936,-0.8208722472190857,-0.0380055233836174
1772537563385891000,8.88689111328125,-0.7945356965065002,-0.8709356784820557,-0.008207949809730053
1772537563395958000,8.8969580078125,-0.774528980255127,-0.9309777617454529,-0.0031913146376609802
1772537563406026000,8.90702587890625,-0.7221275568008423,-0.9850490093231201,-0.02407369390130043
1772537563416094000,8.917093994140625,-0.6494855284690857,-1.0099122524261475,-0.051052261143922806
1772537563426161200,8.9271611328125,-0.5869273543357849,-1.104751706123352,-0.086309053003788
1772537563436228900,8.937228759765626,-0.5510150194168091,-1.23087739944458,-0.0990295261144638
1772537563446296800,8.947296875,-0.5572715997695923,-1.3459728956222534,-0.09985590726137161
1772537563456364000,8.957364013671874,-0.5830675959587097,-1.4567756652832031,-0.1196894645690918
1772537563466431700,8.967431640625,-0.6182916164398193,-1.4660208225250244,-0.15527701377868652
1772537563476500000,8.9775,-0.6701836585998535,-1.4667335748672485,-0.19262121617794037
1772537563486567000,8.98756689453125,-0.7618869543075562,-1.4339858293533325,-0.21405114233493805
1772537563496635000,8.997634765625,-0.7926520705223083,-1.3935121297836304,-0.2618921101093292
1772537563506702800,9.007702880859375,-0.799321711063385,-1.3724555969238281,-0.35358792543411255
1772537563516769800,9.017769775390626,-0.8478431701660156,-1.3121694326400757,-0.42674967646598816
1772537563526837800,9.027837646484375,-0.8912020921707153,-1.2974822521209717,-0.4486254155635834
1772537563536905000,9.037905029296875,-0.9059118628501892,-1.3563281297683716,-0.4256749451160431
1772537563546973000,9.047972900390626,-0.9133104085922241,-1.4627081155776978,-0.3716719150543213
1772537563557041000,9.058041015625,-0.9115422368049622,-1.5754268169403076,-0.31147003173828125
1772537563567107800,9.06810791015625,-0.8892452120780945,-1.6567797660827637,-0.24318046867847443
1772537563577175800,9.07817578125,-0.8862465620040894,-1.6762053966522217,-0.1330060064792633
1772537563587244000,9.088244140625,-0.891649603843689,-1.669514775276184,-0.013014886528253555
1772537563597311000,9.09831103515625,-0.9041635394096375,-1.6607450246810913,0.10218359529972076
1772537563607379000,9.10837890625,-0.9211062788963318,-1.634541630744934,0.19819161295890808
1772537563617447000,9.118447021484375,-0.9328324794769287,-1.5947996377944946,0.2747994363307953
1772537563627513900,9.128513916015624,-0.9435149431228638,-1.5662881135940552,0.3201669156551361
1772537563637581800,9.138581787109375,-0.9431242942810059,-1.5593003034591675,0.3360118269920349
1772537563647650000,9.148650146484375,-0.9347047209739685,-1.570907473564148,0.3251884877681732
1772537563657717000,9.158717041015626,-0.9316648244857788,-1.6278293132781982,0.2968815267086029
1772537563667785000,9.168784912109375,-0.9561116099357605,-1.7684003114700317,0.2425791174173355
1772537563677853000,9.17885302734375,-1.00387704372406,-1.9560905694961548,0.18648068606853485
1772537563687919900,9.188919921875,-1.0865559577941895,-2.1329007148742676,0.11630427837371826
1772537563697988000,9.198988037109375,-1.1819604635238647,-2.254075527191162,0.043681550770998
1772537563708055000,9.209054931640624,-1.262709617614746,-2.293839454650879,-0.021160293370485306
1772537563718123000,9.219123046875,-1.2916266918182373,-2.252981185913086,-0.07747440785169601
1772537563728191000,9.22919091796875,-1.2934833765029907,-2.180244207382202,-0.13330836594104767
1772537563738258000,9.2392578125,-1.2690988779067993,-2.130840301513672,-0.19732676446437836
1772537563748326000,9.249325927734375,-1.225049614906311,-2.195509672164917,-0.2549282908439636
1772537563758394000,9.25939404296875,-1.193716287612915,-2.2776715755462646,-0.30986085534095764
1772537563768461000,9.2694609375,-1.1838537454605103,-2.2806248664855957,-0.34867164492607117
1772537563778529000,9.279529052734375,-1.1550556421279907,-2.2335729598999023,-0.37714746594429016
1772537563788597000,9.289596923828125,-1.1138813495635986,-2.1512017250061035,-0.38315555453300476
1772537563798664000,9.299663818359376,-1.0843154191970825,-2.0420055389404297,-0.34810736775398254
1772537563808732200,9.309732177734375,-1.0775954723358154,-1.9442903995513916,-0.27538469433784485
1772537563818799900,9.3197998046875,-1.1002612113952637,-1.8099509477615356,-0.19349780678749084
1772537563828867000,9.3298671875,-1.1184959411621094,-1.6389398574829102,-0.11721103638410568
1772537563838934800,9.339934814453125,-1.1129158735275269,-1.5020183324813843,-0.05339367687702179
1772537563849001000,9.3500009765625,-1.104394793510437,-1.42185378074646,-0.014963198453187943
1772537563859069000,9.36006884765625,-1.1178158521652222,-1.3539811372756958,0.011510700918734074
1772537563869136000,9.370135986328124,-1.1312443017959595,-1.220521092414856,0.05160485953092575
1772537563879204000,9.3802041015625,-1.1240355968475342,-1.0573290586471558,0.09572833776473999
1772537563889272000,9.39027197265625,-1.080337643623352,-0.96003657579422,0.12293758988380432
1772537563899339000,9.400339111328124,-1.0173574686050415,-0.978713870048523,0.1372103989124298
1772537563909407000,9.410406982421875,-0.965031087398529,-1.0731433629989624,0.13378478586673737
1772537563919475000,9.420474853515625,-0.9126502871513367,-1.2173434495925903,0.09190209954977036
1772537563929542000,9.4305419921875,-0.8569638729095459,-1.3278135061264038,0.023242872208356857
1772537563939610000,9.440610107421875,-0.801692008972168,-1.3708268404006958,-0.07686390727758408
1772537563949677800,9.450677734375,-0.750278890132904,-1.345556616783142,-0.19591893255710602
1772537563959745000,9.4607451171875,-0.7166777849197388,-1.2536907196044922,-0.30512410402297974
1772537563969813000,9.47081298828125,-0.7109304666519165,-1.1439069509506226,-0.38614118099212646
1772537563979880000,9.4808798828125,-0.7222170233726501,-1.016980528831482,-0.4064755141735077
1772537563989948200,9.4909482421875,-0.7207421660423279,-0.8825348615646362,-0.3587532639503479
1772537564000016000,9.501015869140625,-0.7068373560905457,-0.7634232640266418,-0.2662907540798187
1772537564010083000,9.5110830078125,-0.6704351305961609,-0.6839771866798401,-0.1592223346233368
1772537564020150800,9.52115087890625,-0.6343397498130798,-0.6742894053459167,-0.053440436720848083
1772537564030218800,9.53121875,-0.5965313911437988,-0.7314059734344482,0.031109869480133057
1772537564040286000,9.541285888671876,-0.5465403199195862,-0.8329441547393799,0.09529930353164673
1772537564050354000,9.55135400390625,-0.48846182227134705,-0.9539490938186646,0.11709088832139969
1772537564060422000,9.561421875,-0.44376134872436523,-1.0670591592788696,0.09457618743181229
1772537564070488800,9.57148876953125,-0.4107075333595276,-1.1172895431518555,0.04762226343154907
1772537564080556800,9.581556884765625,-0.4052215814590454,-1.1083019971847534,-0.014628845266997814
1772537564090625000,9.591625,-0.42573273181915283,-1.0614274740219116,-0.06966307014226913
1772537564100692000,9.60169189453125,-0.45056861639022827,-0.9652224779129028,-0.11825818568468094
1772537564110760000,9.611760009765625,-0.4677619934082031,-0.8378514647483826,-0.15734486281871796
1772537564120827000,9.621826904296874,-0.4704597294330597,-0.704776406288147,-0.18329620361328125
1772537564130894800,9.631894775390625,-0.4673539400100708,-0.6066104769706726,-0.18564511835575104
1772537564140962800,9.641962890625,-0.4743412733078003,-0.5748013854026794,-0.18338781595230103
1772537564151029800,9.65202978515625,-0.49732330441474915,-0.5995607972145081,-0.18779721856117249
1772537564161098000,9.662097900390625,-0.5086488723754883,-0.6337376236915588,-0.20037008821964264
1772537564171166000,9.672166015625,-0.5042306780815125,-0.6313990950584412,-0.21242301166057587
1772537564181233000,9.68223291015625,-0.4934607744216919,-0.6083429455757141,-0.2066882848739624
1772537564191300900,9.69230078125,-0.49194061756134033,-0.5673345327377319,-0.1838149130344391
1772537564201369000,9.702369140625,-0.5040522813796997,-0.5420527458190918,-0.13243861496448517
1772537564211436000,9.71243603515625,-0.5126476287841797,-0.5266671776771545,-0.08440584689378738
1772537564221504000,9.72250390625,-0.5211215019226074,-0.5129498839378357,-0.04090144485235214
1772537564231572000,9.732572021484375,-0.5295935273170471,-0.49869900941848755,-0.017400648444890976
1772537564241641000,9.742640869140626,-0.5343438982963562,-0.4793902337551117,-0.007712628226727247
1772537564251708000,9.7527080078125,-0.5296908617019653,-0.46314603090286255,-0.02267080545425415
1772537564261775600,9.762775634765624,-0.5236526727676392,-0.45373016595840454,-0.03139558807015419
1772537564271843300,9.77284326171875,-0.5163028836250305,-0.4567536413669586,-0.03061394765973091
1772537564281910500,9.78291064453125,-0.5170941948890686,-0.46674594283103943,-0.013142481446266174
1772537564291978200,9.792978271484374,-0.5186628103256226,-0.46165958046913147,0.006183013319969177
1772537564302045400,9.80304541015625,-0.5192785859107971,-0.4143780767917633,0.0066807568073272705
1772537564312113400,9.813113525390625,-0.5169358253479004,-0.3348720669746399,-0.0072134872898459435
1772537564322181400,9.823181396484374,-0.5143293142318726,-0.2503562271595001,-0.036601945757865906
1772537564332248600,9.83324853515625,-0.5017658472061157,-0.21729415655136108,-0.07671980559825897
1772537564342316300,9.84331640625,-0.4681697189807892,-0.23226402699947357,-0.1293664425611496
1772537564352384300,9.85338427734375,-0.4227284789085388,-0.2731877565383911,-0.16989709436893463
1772537564362451500,9.863451416015625,-0.38944700360298157,-0.3226185441017151,-0.1865300089120865
1772537564372519400,9.87351953125,-0.37524276971817017,-0.3681223690509796,-0.1616520881652832
1772537564382587400,9.88358740234375,-0.37566864490509033,-0.40681570768356323,-0.1059223935008049
1772537564392654300,9.893654296875,-0.37507182359695435,-0.4380953311920166,-0.03887198120355606
1772537564402722300,9.903722412109374,-0.3588489592075348,-0.47217825055122375,-0.005411723628640175
1772537564412790500,9.91379052734375,-0.3183627724647522,-0.50065678358078,-0.0023765189107507467
1772537564422857500,9.923857421875,-0.26806482672691345,-0.5295050740242004,-0.03387073054909706
1772537564432925400,9.933925537109374,-0.23038350045681,-0.5609737634658813,-0.09788858890533447
1772537564442992400,9.943992431640625,-0.20995214581489563,-0.5723695158958435,-0.1717125028371811
1772537564453060400,9.954060302734375,-0.21577781438827515,-0.5395993590354919,-0.2306080460548401
1772537564463128300,9.96412841796875,-0.2442174106836319,-0.4703957736492157,-0.2724429666996002
1772537564473195500,9.974195556640625,-0.2925521731376648,-0.39887523651123047,-0.3137081265449524
1772537564483263500,9.984263427734374,-0.3533436357975006,-0.3182700574398041,-0.3320782482624054
1772537564493331500,9.99433154296875,-0.4057264029979706,-0.21345098316669464,-0.32273268699645996
1772537564503398400,10.0043984375,-0.4542904198169708,-0.07497536391019821,-0.27732306718826294
1772537564513466400,10.01446630859375,-0.4807894229888916,0.05940854176878929,-0.193764790892601
1772537564523534600,10.02453466796875,-0.4886607229709625,0.14881719648838043,-0.0963953360915184
1772537564533601500,10.0346015625,-0.4762759804725647,0.19960367679595947,0.001261185621842742
1772537564543669500,10.04466943359375,-0.451984703540802,0.22753839194774628,0.06997985392808914
1772537564553737500,10.054737548828125,-0.4026714563369751,0.2308015674352646,0.12719519436359406
1772537564563804400,10.064804443359375,-0.35147151350975037,0.214174285531044,0.1692085564136505
1772537564573872400,10.074872314453126,-0.2949216961860657,0.18655410408973694,0.18505115807056427
1772537564583940600,10.084940673828125,-0.2221623808145523,0.13492031395435333,0.17094680666923523
1772537564594007600,10.095007568359375,-0.15265947580337524,0.05004109814763069,0.1400030106306076
1772537564604075500,10.105075439453126,-0.09717825055122375,-0.035581789910793304,0.10860534012317657
1772537564614142500,10.115142578125,-0.047379270195961,-0.11331254243850708,0.0822238028049469
1772537564624210400,10.12521044921875,0.002105370396748185,-0.18253858387470245,0.07870015501976013
1772537564634278700,10.135278564453126,0.042311377823352814,-0.2299199402332306,0.09126707911491394
1772537564644345600,10.145345703125,0.07766416668891907,-0.26252779364585876,0.12133628129959106
1772537564654413600,10.15541357421875,0.12523141503334045,-0.2907940447330475,0.16688911616802216
1772537564664481300,10.165481201171875,0.14330415427684784,-0.34544211626052856,0.20598085224628448
1772537564674548500,10.175548583984375,0.12294642627239227,-0.4309285283088684,0.20454275608062744
1772537564684616400,10.185616455078126,0.07173410058021545,-0.5250445604324341,0.18328863382339478
1772537564694684400,10.195684326171875,-0.00048017239896580577,-0.5645573735237122,0.1595476269721985
1772537564704751600,10.205751708984375,-0.08368170261383057,-0.5161080360412598,0.12233689427375793
1772537564714819300,10.2158193359375,-0.1681867390871048,-0.39948922395706177,0.07225082814693451
1772537564724887300,10.22588720703125,-0.2455853521823883,-0.27443167567253113,0.029957348480820656
1772537564734954200,10.235954345703124,-0.3128754496574402,-0.20186026394367218,-0.012536848895251751
1772537564745022500,10.2460224609375,-0.35167866945266724,-0.18053027987480164,-0.029046768322587013
1772537564755090400,10.25609033203125,-0.3715232014656067,-0.21686992049217224,-0.02512153424322605
1772537564765157400,10.266157470703124,-0.38645145297050476,-0.28721514344215393,0.009675456210970879
1772537564775225300,10.276225341796875,-0.3937101662158966,-0.3698287904262543,0.06022012233734131
1772537564785292300,10.286292236328125,-0.38221731781959534,-0.4451007843017578,0.08512386679649353
1772537564795360300,10.2963603515625,-0.3586193323135376,-0.5110992193222046,0.06296423822641373
1772537564805428500,10.306428466796875,-0.3255525231361389,-0.5394833087921143,0.009092600084841251
1772537564815495400,10.316495361328125,-0.29759305715560913,-0.535915195941925,-0.06200208514928818
1772537564825563400,10.3265634765625,-0.2730812132358551,-0.5292710065841675,-0.12352108955383301
1772537564835631400,10.33663134765625,-0.258884459733963,-0.5382831692695618,-0.17231445014476776
1772537564845698300,10.3466982421875,-0.2454400658607483,-0.5565457940101624,-0.18958324193954468
1772537564855766500,10.3567666015625,-0.24855037033557892,-0.576820433139801,-0.17640085518360138
1772537564865834500,10.36683447265625,-0.2609388828277588,-0.5935746431350708,-0.14173369109630585
1772537564875901400,10.3769013671875,-0.28493261337280273,-0.6021425724029541,-0.10598316043615341
1772537564885969400,10.386969482421875,-0.30362749099731445,-0.5974785685539246,-0.0952533707022667
1772537564896037400,10.397037353515625,-0.30691516399383545,-0.579806387424469,-0.09776286780834198
1772537564906104300,10.407104248046876,-0.31702426075935364,-0.5409281849861145,-0.11177398264408112
1772537564916172500,10.417172607421875,-0.3389953374862671,-0.5057553052902222,-0.13151706755161285
1772537564926239500,10.427239501953125,-0.35528451204299927,-0.4561648368835449,-0.14636418223381042
1772537564936307500,10.437307373046876,-0.3708330988883972,-0.38726088404655457,-0.1482909768819809
1772537564946375400,10.44737548828125,-0.39118310809135437,-0.32912105321884155,-0.13580957055091858
1772537564956442400,10.4574423828125,-0.40777432918548584,-0.3009607791900635,-0.10132881999015808
1772537564966510600,10.467510498046876,-0.41890180110931396,-0.31598296761512756,-0.048937615007162094
1772537564976578600,10.47757861328125,-0.4560033679008484,-0.3730108439922333,0.04115312919020653
1772537564986645500,10.4876455078125,-0.461370587348938,-0.5709367990493774,0.06938816606998444
1772537564996713500,10.49771337890625,-0.4335256516933441,-0.7001720070838928,0.08820579200983047
1772537565006781400,10.507781494140625,-0.40369105339050293,-0.761205792427063,0.0727030411362648
1772537565016848400,10.517848388671876,-0.38014551997184753,-0.7668842077255249,0.045722827315330505
1772537565026916600,10.52791650390625,-0.37370574474334717,-0.7760798931121826,0.016255786642432213
1772537565036984300,10.537984375,-0.38386890292167664,-0.8143050670623779,0.010225857608020306
1772537565047051500,10.548051513671876,-0.40798789262771606,-0.8570751547813416,0.039689548313617706
1772537565057119500,10.558119384765625,-0.43975383043289185,-0.8811929821968079,0.0621008463203907
1772537565067187500,10.5681875,-0.5019773244857788,-0.91816246509552,0.07393499463796616
1772537565077254700,10.578254638671876,-0.554709792137146,-0.9882823824882507,0.079784095287323
1772537565087322400,10.588322265625,-0.5798994898796082,-1.048434853553772,0.04431061074137688
