time,seconds_elapsed,z,y,x
1772698666718874600,0.07087451171875,0.0760258532818174,-0.31581893056333066,-0.00179188838545233
1772698666728831700,0.080831787109375,-0.05529810428533237,-0.3964923036903143,0.11249123767018318
1772698666738788600,0.09078857421875,-0.15026304218173026,-0.3807622351169586,0.22058033139128236
1772698666748745700,0.100745849609375,-0.12211597510576247,-0.2622153506696224,0.22214126056507227
1772698666758702800,0.110702880859375,-0.056232759353518486,-0.08023731979727744,0.22140118278749285
1772698666768659700,0.12065966796875,-0.07531915261745452,0.0389911171734333,0.30299181688986715
1772698666778616600,0.130616455078125,-0.0989835213214159,0.05750526350736618,0.26737255076970906
1772698666788573700,0.14057373046875,-0.15803718331456185,-0.014917583146691322,0.18302286375015972
1772698666798530600,0.150530517578125,-0.19540566772222517,-0.08259703466594219,0.15590678368974475
1772698666808487700,0.16048779296875,-0.2339694993942976,-0.16016016681790352,0.132999188169837
1772698666818444800,0.17044482421875,-0.2541442724168301,-0.20974457419812678,0.04888732849415391
1772698666828401700,0.180401611328125,-0.23992985083712262,-0.19396482126414774,-0.02310470726089552
1772698666838358500,0.190358642578125,-0.21815116801559925,-0.21206863323152064,-0.01747764289304614
1772698666848315600,0.200315673828125,-0.18564764102948828,-0.21398118885457515,0.041485454739816484
1772698666858272800,0.210272705078125,-0.13049274004055186,-0.24585633654296396,0.0013919840813614427
1772698666868229600,0.220229736328125,-0.0930552820499055,-0.2749678647369146,-0.03439631846277043
1772698666878186800,0.230186767578125,-0.04586507632983848,-0.09753507607877254,-0.0029732345239724964
1772698666888144000,0.240143798828125,0.03827449333667755,0.044324879416823386,-0.009174783444683999
1772698666898100700,0.250100830078125,0.04440265736076981,0.18595687137544153,-0.0018043505748035385
1772698666908056800,0.260056884765625,0.014454678342677652,0.24256138665080068,0.1311872159775812
1772698666918013700,0.270013671875,0.08711191827449948,0.08698328692615032,0.03733656403259374
1772698666927970600,0.279970458984375,0.04626259688059799,-0.017487725895643232,-0.038260976267978544
1772698666937927700,0.289927734375,0.0338619649908971,0.08219371456205844,0.06853990884006489
1772698666947884800,0.299884765625,0.08870762650072574,0.1073006832897663,-0.11631550866607576
1772698666957841700,0.309841552734375,0.18127952721416948,0.06332125630974769,-0.12768858760632573
1772698666967798800,0.319798828125,0.11489889246695674,0.08420563890635967,0.02785127616690006
1772698666977756000,0.329755859375,-0.02961830867230892,0.15157178669273852,0.26628084654286505
1772698666987712500,0.33971240234375,0.004264680840307847,0.15604104106128214,0.34212044283784926
1772698666997669600,0.349669677734375,-0.03197451640963554,0.11812310607731341,0.30640113214300946
1772698667007626800,0.359626708984375,-0.002826743291947059,0.09903437472581862,0.2514352326538414
1772698667017583600,0.36958349609375,-0.0015448959210189058,0.10792027649283409,0.13580681120278312
1772698667027540700,0.379540771484375,0.01421323883619625,0.161093648275733,0.12231324211037717
1772698667037497900,0.389497802734375,0.052747259891894646,0.1096668278992176,0.1177649220230989
1772698667047454700,0.399454833984375,-0.10275485655367374,0.01379179398715496,0.2148637438427657
1772698667057411600,0.40941162109375,-0.12300912455320358,-0.061726096072793,0.38647973598092794
1772698667067368700,0.41936865234375,-0.22863573715090751,-0.06733107647299766,0.5685255713924765
1772698667077325600,0.42932568359375,-0.21265490868687628,-0.06614274347126484,0.5808674222996458
1772698667087282700,0.43928271484375,-0.12788871328830717,-0.16993454185724258,0.3873237125243991
1772698667097239800,0.44923974609375,0.00021568857729434965,-0.21668284902870655,0.13230231934632175
1772698667107196700,0.45919677734375,0.1359492701470852,-0.13026011859476566,-0.05004426171062514
1772698667117153500,0.469153564453125,0.2186182010054588,-0.018724574214220045,-0.16269315589424221
1772698667127110700,0.479110595703125,0.19449147548675536,0.09262801481485367,-0.2013175951797515
1772698667137067800,0.48906787109375,0.08345219019055367,0.18643617932498455,-0.08804627651516347
1772698667147024600,0.499024658203125,-0.0328302564561367,0.2677782454937696,0.1156668811647687
1772698667156981800,0.508981689453125,-0.09117956957221031,0.23894611876308916,0.3173563692636788
1772698667166939000,0.51893896484375,-0.18751929838657377,-0.05117255335450172,0.42820583107620475
1772698667176895700,0.528895751953125,-0.1577121891438961,-0.27615795130431653,0.33289884284306315
1772698667186852600,0.5388525390625,-0.07035071198854129,-0.34003158079981805,0.12192170377583242
1772698667196808700,0.54880859375,-0.05627309593048412,-0.26179040325582026,0.03561911998968571
1772698667206765600,0.558765625,0.003324760508537292,-0.05509177262485027,0.007026327573368326
1772698667216722700,0.56872265625,0.13337971192002296,0.034756256082653994,-0.17393807841017841
1772698667226679600,0.578679443359375,0.22800211542248724,-0.32226211535334587,-0.4610940647972747
1772698667236636700,0.58863671875,0.30478607989549633,-0.6922551191747188,-0.3629558351935819
1772698667246593800,0.59859375,0.15105915186232885,-0.5670306566596031,0.03567045973456697
1772698667256551000,0.608551025390625,-0.048552735378080976,0.062165656533837314,0.4492714885238558
1772698667266507500,0.618507568359375,-0.18722820648550986,0.7859580697447061,0.6431910093415528
1772698667276464600,0.628464599609375,-0.32620880715250966,0.8474795831561088,0.5802972211962566
1772698667286421800,0.638421875,-0.3202829242348671,0.46460313236415385,0.4502846110891551
1772698667296378600,0.648378662109375,-0.3260334505856037,0.2519944009065628,0.4654012604719028
1772698667306335700,0.658335693359375,-0.37698973084092136,0.07852467066049576,0.4240142976704985
1772698667316292900,0.66829296875,-0.06440613350358326,0.2366267359048128,0.170517967768386
1772698667326249500,0.67824951171875,0.22517887469530104,0.7721662757575511,0.12324161813482641
1772698667336206600,0.68820654296875,0.24108605340123176,1.1789274600058792,0.430927876451239
1772698667346163700,0.698163818359375,0.3062567369699478,1.3739695551127196,0.7110421641658992
1772698667356120600,0.70812060546875,0.43146717095971104,1.343055945932865,0.7444589152731
1772698667366077700,0.71807763671875,0.4107598984956741,0.8561977271407842,0.6655958064384758
1772698667376034800,0.728034912109375,0.1735270133912563,0.4986421800881624,0.4455978049797937
1772698667385991700,0.73799169921875,-0.3814934720009565,1.6341344029933214,1.1668674582473932
1772698667395948500,0.747948486328125,-0.35646073755323887,2.7928905971080065,2.2294930362537504
1772698667405905700,0.75790576171875,3.925159181791544,1.0464812295436858,2.3132819110527634
1772698667415862800,0.76786279296875,-1.1201420935600996,1.3152929097384214,0.09186815462457015
1772698667425819600,0.777819580078125,-4.123865644624829,1.1120704307854175,0.3720825234465301
1772698667435776800,0.78777685546875,-1.528393224105239,0.22863456810712812,0.6524605766639113
1772698667445734000,0.79773388671875,-0.12440613186955451,0.13781857115030288,0.06976431323559955
1772698667455690500,0.8076904296875,0.6450047077000141,0.5434358460605144,-0.2880549993197433
1772698667465647600,0.817647705078125,0.9008569530785083,1.01458211645782,-0.7868068685937673
1772698667475604700,0.827604736328125,1.0107786325216293,1.3807114305883645,-1.3953466896623372
1772698667485561600,0.8375615234375,0.9697253221213817,1.644800758436322,-1.5424435228981077
1772698667495517700,0.847517578125,0.9775918177127838,1.8191916951805351,-1.3440196763984857
1772698667505474600,0.857474609375,0.9615431847095489,1.7639397635579108,-0.9535138997718692
1772698667515431700,0.867431640625,0.5095739084690809,1.5279928266108036,-0.433852604791522
1772698667525388800,0.877388916015625,-0.26422435240447517,1.2153531106054782,0.040434137322288004
1772698667535346000,0.887345947265625,-0.9357809669435023,1.1146668770194053,0.2895788478861563
1772698667545302500,0.897302490234375,-1.4812351670891046,1.089713637548685,0.30764081173948943
1772698667555259600,0.907259765625,-1.9373101250827311,1.134980766251683,0.03406915060132742
1772698667565216800,0.917216796875,-2.025549549549818,1.497064604383707,-0.21369564991146325
1772698667575173600,0.927173583984375,-1.5631763681948183,2.0343699848651884,-0.2872215441702865
1772698667585130800,0.937130859375,-0.6756172881066799,2.567313663005829,-0.30985742834303526
1772698667595088000,0.947087890625,0.06892682123184203,3.0894173827022313,-0.18806332386909053
1772698667605044500,0.95704443359375,0.4855658408939838,3.21541925933063,0.06966415906306356
1772698667615001600,0.967001708984375,0.5908031619131565,3.1292829446226356,0.2429098347622901
1772698667624958700,0.976958740234375,0.32250060028433797,2.909739445465803,0.31298016347344965
1772698667634915600,0.98691552734375,-0.3028185792148113,2.2446377061545846,0.21603066873028873
1772698667644872700,0.996872802734375,-0.8377648293495178,1.690635457894206,-0.12537574408669025
1772698667654829800,1.006829833984375,-0.9254501270651817,1.1048194367438555,-0.4755446880193427
1772698667664786700,1.01678662109375,-0.5940776535391807,0.3023170594334602,-0.5694771364962682
1772698667674743600,1.02674365234375,-0.5928910375704989,-0.7985024940192699,-0.2131539442501962
1772698667684700700,1.03670068359375,-1.1406102965712546,-2.226263260552287,0.0031950103487586603
1772698667694657500,1.046657470703125,-0.9388333402514457,-3.4766035133868454,-0.23046969284610822
1772698667704614700,1.05661474609375,0.49868711520843206,-4.720136424294114,-0.29639515857119114
1772698667714571800,1.06657177734375,2.594861010622978,-6.046020286151767,-0.16389884188957513
1772698667724529000,1.07652880859375,4.228762189382315,-7.521186946982145,0.25931886204313487
1772698667734485800,1.08648583984375,4.494858765399456,-9.32145065433085,0.8933626518003642
1772698667744443000,1.09644287109375,3.6479414923012254,-11.001922445607185,1.2444127624817192
1772698667754399700,1.106399658203125,2.134165407091379,-12.560112842082976,1.1247342436559498
1772698667764356900,1.11635693359375,0.5538554602008312,-13.89019006397724,0.6597640315450728
1772698667774314000,1.12631396484375,-0.07505955183319747,-14.53065303659439,-0.32489414435736835
1772698667784270800,1.136270751953125,0.1891490184802562,-14.255720827692747,-1.3091649283774196
1772698667794227700,1.146227783203125,1.479164206033945,-13.444459389865397,-1.633174618050456
1772698667804184000,1.15618408203125,3.383868531066179,-12.749559893661736,-1.3937369163781403
1772698667814140700,1.166140625,4.7668777172029015,-12.200716051077842,-0.5835215900702402
1772698667824097800,1.176097900390625,4.885235216557979,-11.206357807481288,0.15332604648154227
1772698667834055000,1.186054931640625,3.6779753960371013,-9.73941653868258,0.5203130734199658
1772698667844011800,1.19601171875,1.4732009137153625,-8.503278998723626,0.05115210422151722
1772698667853969000,1.205968994140625,-1.1009235983490944,-7.551896558022499,-1.1846798860527574
1772698667863926000,1.215926025390625,-3.619911329603195,-6.622782063230872,-2.413228139926493
1772698667873883000,1.2258828125,-5.510241092324256,-5.760616367596388,-3.164193222223222
1772698667883839700,1.23583984375,-6.173706754866242,-4.045952968382835,-3.254345202313363
1772698667893796900,1.245796875,-5.398378800207376,-1.7376584903538226,-2.6356211832955476
1772698667903753700,1.255753662109375,-3.7375095350235696,0.8249398345679044,-1.416391523517668
1772698667913710800,1.2657109375,-1.8835224207937715,3.414361284485459,0.014174728890135883
1772698667923668000,1.27566796875,-0.37797523474693295,5.861119645830988,1.3406228735670447
1772698667933624800,1.285624755859375,0.5930237605720758,8.038237474942207,2.4053566758990286
1772698667943581700,1.295581787109375,1.086041671037674,9.515046057760715,2.8910791686594486
1772698667953538800,1.305538818359375,0.9728536832749843,9.938917951285838,2.9396503073439
1772698667963495700,1.31549560546875,0.5077788417458534,9.85437504324913,2.4360718398973344
1772698667973452800,1.325452880859375,0.1375970556204207,9.851024563777447,1.4504605279885232
1772698667983410000,1.335409912109375,0.09603813378559425,9.837140999853611,0.4252296648096293
1772698667993367000,1.345366943359375,0.059592627708055075,9.868818579143285,-0.48522170363143086
1772698668003324000,1.355323974609375,-0.11119473158624023,9.971468806278706,-1.1095967341482638
1772698668013280800,1.36528076171875,-0.12836391131831332,10.102724365651607,-1.4888001955159007
1772698668023238000,1.37523779296875,0.20706105246888473,10.457090761274099,-1.7762386886388062
1772698668033194800,1.38519482421875,0.8110615313410758,10.80755956493616,-2.0720696009233595
1772698668043152000,1.39515185546875,1.6621598895162344,11.008296072292326,-2.348148641772568
1772698668053109000,1.40510888671875,2.2023890484899282,10.922506963586807,-2.575410460221767
1772698668063065900,1.41506591796875,2.255723163792491,10.721817217981815,-2.584866270831227
1772698668073022700,1.425022705078125,2.112041253566742,10.413528682923316,-2.3259743654958904
1772698668082979000,1.43497900390625,2.034579828223586,9.637370707181095,-2.048082868397236
1772698668092935700,1.444935791015625,2.066654297876358,8.878182570940256,-1.6921864867284893
1772698668102892800,1.454892822265625,1.5938468162685633,8.218308795410394,-1.1130820920459925
1772698668112850000,1.464849853515625,0.988650971865654,7.621995345643162,-0.5474015348210931
1772698668122806800,1.474806884765625,0.570626635324955,7.1788009120106695,-0.3890935717411339
1772698668132764000,1.484763916015625,0.3781231187850237,6.926463981276751,-0.5686361921600998
1772698668142721000,1.494720947265625,0.3129109341621399,6.759237529334426,-1.0353187611468135
1772698668152678000,1.504677978515625,0.5158529522059485,6.847714854210615,-1.4526860950835048
1772698668162634800,1.514634765625,0.6785036571979522,6.984281963995099,-1.6358735017456114
1772698668172591900,1.524591796875,0.6224281342327594,6.927999520280957,-1.7050044672474265
1772698668182548700,1.534548828125,0.5617705441743135,6.775599466070532,-1.6591007942065596
1772698668192505900,1.544505859375,0.6615110213428735,6.561515401363373,-1.5613018064945936
1772698668202463000,1.554462890625,0.6534446192651987,6.254713305470347,-1.543684024478495
1772698668212419800,1.564419921875,0.48669692728314545,5.411129560708999,-1.65365421923846
1772698668222376700,1.574376708984375,0.10899404320418835,4.1990994570463895,-1.40405562742725
1772698668232333800,1.584333740234375,-0.4364788616418838,3.0130712251245972,-1.0509077407490461
1772698668242290700,1.594290771484375,-0.7284107206612825,1.8232552913576363,-0.5391574380889534
1772698668252247800,1.604247802734375,-0.8071434811145066,0.25278876615464685,0.10693265369497239
1772698668262205000,1.614204833984375,-0.5162532401025295,-1.225674598133564,0.6868295139294117
1772698668272162000,1.624162109375,0.1379249358679168,-2.5254741706639527,0.8849694289211183
1772698668282119000,1.634118896484375,1.2074550508320332,-3.5894647534132003,0.7536440922476351
1772698668292075800,1.64407568359375,2.5339900700747964,-4.587573289453983,0.7275884444929659
1772698668302033000,1.654032958984375,3.2761493301033973,-5.804889224565029,0.9359180373266339
1772698668311989800,1.66398974609375,2.787766093701124,-7.6636027827948325,1.3596841323897242
1772698668321947000,1.67394677734375,1.5564520283758638,-9.927821387732028,1.5910641998127102
1772698668331904000,1.683904052734375,0.6911351752340793,-11.87626665481329,1.4623058640830218
1772698668341859800,1.69385986328125,0.6607341917514801,-13.38591133930683,1.455381763908267
1772698668351817000,1.70381689453125,0.8736872066020965,-14.910077885627746,1.6473197555199264
1772698668361773800,1.71377392578125,-0.1374724976589903,-16.420978123140333,2.028644885216653
1772698668371730700,1.723730712890625,-2.2723171557188033,-16.919141579800844,2.4982260982543227
1772698668381687800,1.733687744140625,-4.10724710277915,-16.108542989796398,2.672132174091041
1772698668391645000,1.74364501953125,-4.152131369644403,-13.959446555554866,2.421053718985617
1772698668401601800,1.753601806640625,-2.39949859752059,-11.090814196503162,1.9650135400444269
1772698668411559000,1.763558837890625,-0.02483165891766548,-8.278114737075567,1.556467664336413
1772698668421516000,1.77351611328125,1.8000737377345561,-5.84699935054183,1.4808411993354558
1772698668431473000,1.783472900390625,2.3412065675497056,-4.429404004192352,1.5797979787804186
1772698668441429800,1.7934296875,1.8371511302411556,-3.852098621755838,1.4245347902238368
1772698668451387000,1.803386962890625,0.6738765819191932,-3.6165778012663123,0.8870327181264758
1772698668461343700,1.81334375,-0.25621817434774713,-3.176131789559126,0.1370667664023116
1772698668471300900,1.82330078125,-0.7338555420637131,-2.2686183012008665,-0.6233382348150015
1772698668481258000,1.833258056640625,-0.6895978826642036,-1.157103750732541,-1.1802411729529498
1772698668491214800,1.84321484375,-0.4482745133757591,-0.015537760871648787,-1.5615557812556624
1772698668501171700,1.853171630859375,-0.27784605052173134,1.1149392642199993,-1.8241013867929576
1772698668511128800,1.86312890625,-0.1643167019754648,2.1959113769084215,-2.018297678725421
1772698668521085700,1.873085693359375,-0.1896598358129151,3.0297242537617683,-2.19484564737305
1772698668531042800,1.883042724609375,-0.48478375060558315,3.4600942771345373,-2.1757455178447067
1772698668541000000,1.893,-0.8565098618298769,3.697593119698763,-1.9870678432032465
1772698668550957000,1.90295703125,-1.0588145683508365,3.8642145914852617,-1.5762866096585988
1772698668560914000,1.912913818359375,-0.9589479075193404,4.065883411255479,-1.150803773805499
1772698668570870800,1.922870849609375,-0.7402782685875893,4.234998453423381,-0.7254648764677345
1772698668580828000,1.932827880859375,-0.6741466310322284,4.199067308342457,-0.28132326164562255
1772698668590784800,1.94278466796875,-0.6404618035733699,4.399890909460186,-0.007900872785039245
1772698668600742000,1.952741943359375,-0.37805531424582,4.93752829837501,0.23465773738678544
1772698668610699000,1.962698974609375,-0.041658838545344766,5.550898681405187,0.48802744523454455
1772698668620655900,1.97265576171875,0.21707973939180372,6.158489896512031,0.4510861001977697
1772698668630612000,1.982612060546875,0.31898937729299065,6.654287793084979,0.25904541539661585
1772698668640568800,1.99256884765625,0.449641710075736,7.07749333165586,0.04769187163189053
1772698668650525700,2.002525634765625,0.5445417614758015,7.455766672566533,-0.21114454065654426
1772698668660482800,2.01248291015625,0.4619996718674898,7.512902518239617,-0.38886491408441215
1772698668670440000,2.02243994140625,0.3009633067369461,7.291161801299452,-0.5243283369433135
1772698668680396800,2.032396728515625,0.025551187097560612,6.8219222413063045,-0.6836724381379783
1772698668690354000,2.04235400390625,-0.3088666272073984,6.234218214452266,-0.6408386740617453
1772698668700311000,2.05231103515625,-0.8346750466406345,5.657065392228961,-0.58925103710033
1772698668710268000,2.062267822265625,-1.2411211735904215,5.1123821764558555,-0.6443776618428528
1772698668720224800,2.072224853515625,-1.2435773345708847,4.62935432960689,-0.5480570030551404
1772698668730182000,2.082181884765625,-1.1198048244297503,4.043894282287359,-0.18156926740836352
1772698668740138800,2.092138671875,-1.0818237610816954,3.145416917821765,0.1294359518634621
1772698668750096000,2.102095947265625,-0.8043699247479438,2.185613270255923,0.36156719384677705
1772698668760053000,2.112052978515625,-0.3392132501542568,1.1580506761938332,0.5452963427027687
1772698668770009900,2.122009765625,0.08257537082340567,-0.13466566007733344,0.44741073615327476
1772698668779966700,2.131966796875,0.24700609109997748,-2.2643033606112004,0.381531429391168
1772698668789923800,2.141923828125,-0.06632807344291358,-5.403450112122297,0.2610579425291158
1772698668799880700,2.151880615234375,-0.5603098605046049,-8.737149129396677,-0.08836559899686836
1772698668809837800,2.161837890625,-0.42127778537869454,-11.263960101622342,-0.8184946039512753
1772698668819795000,2.171794921875,0.58978960095644,-13.311059804201125,-1.2731665632791815
1772698668829751800,2.181751708984375,1.7342343611240385,-14.993382776302099,-1.168757144451514
1772698668839709000,2.191708984375,2.5115339081168173,-16.334929486715794,-0.31788963589016345
1772698668849665800,2.201665771484375,2.9235633881568908,-17.551967189407346,0.7954120537232607
1772698668859622700,2.21162255859375,2.7610242172479627,-18.400047661066054,1.6349489342465995
1772698668869579800,2.221579833984375,2.014005242228508,-18.794568372422457,1.8895763140052555
1772698668879537000,2.231536865234375,1.3314438340723513,-18.399861783105134,1.2006056233286857
1772698668889493800,2.24149365234375,1.4673486805558205,-17.163283513641357,-0.05164053619243204
1772698668899449900,2.251449951171875,2.34352945753932,-15.764381177324056,-1.2053877430386841
1772698668909407000,2.261406982421875,3.3049300189077853,-14.106068026363848,-1.6562588487789034
1772698668919363800,2.27136376953125,3.375907342928648,-12.253290287923813,-1.2536442628160118
1772698668929320700,2.28132080078125,2.3994857380390164,-9.897185426449775,-0.14107994756642728
1772698668939277800,2.29127783203125,1.3252981709241867,-6.997079486247896,1.4380888299323618
1772698668949234700,2.301234619140625,0.3747732238352299,-4.301761959141492,2.8103035042017694
1772698668959191800,2.31119189453125,-0.7246504913449286,-1.9093010051727293,3.867654795067012
1772698668969149000,2.32114892578125,-1.8201707693457603,0.3205424519538879,4.420387169522047
1772698668979105800,2.331105712890625,-2.7628467565000054,2.137064051142335,4.422453746663034
1772698668989063000,2.34106298828125,-3.2714708168983457,3.7310219265699383,3.8190667052477596
1772698668999019800,2.351019775390625,-3.1441245399236677,5.640172709617018,2.4306878087714314
1772698669008976600,2.3609765625,-2.705237448096275,7.610288541236519,0.7236853726398199
1772698669018933800,2.370933837890625,-1.8825719882011414,9.459659686103462,-0.8123953372281044
1772698669028891000,2.380890869140625,-0.9678841512341052,11.107711555290221,-1.975939277075976
1772698669038848000,2.390847900390625,-0.3450538294086233,12.091178987038134,-2.6328467501461503
1772698669048804900,2.400804931640625,-0.2721136808821931,12.389003411227463,-2.887696832744777
1772698669058761700,2.41076171875,-0.4254080170512199,12.289167072468995,-2.772627561280131
1772698669068718800,2.42071875,-0.3234732812413946,12.083217798900604,-2.557885617186129
1772698669078675700,2.43067578125,0.14742807448413223,11.918845567345619,-2.1325912896424533
1772698669088632800,2.4406328125,0.7297311556100845,11.675426102560758,-1.6051698820546267
1772698669098590000,2.45058984375,1.0352467188239096,11.418244654405116,-1.1165728567712008
1772698669108546800,2.460546875,0.9574901099264621,10.872398240071535,-0.7612664768848568
1772698669118504000,2.47050390625,0.8768459628939628,10.071798481512069,-0.5661009745940566
1772698669128460800,2.480460693359375,0.8549649704754352,9.260635243362188,-0.5457197922792285
1772698669138417700,2.490417724609375,0.923552769011259,8.545948512148856,-0.5402220351131632
1772698669148374800,2.500374755859375,0.8969827419936657,7.755950811624526,-0.5224579034289345
1772698669158331000,2.510330810546875,0.7938590521275997,7.280422380620241,-0.41506903039906173
1772698669168287700,2.520287841796875,0.6582131488412618,7.008691598108411,-0.1738642825216055
1772698669178244900,2.530244873046875,0.44182489884495735,6.781378633993864,0.22981267197579144
1772698669188202000,2.540201904296875,0.30542671588659287,6.854540316316485,0.4499501184377819
1772698669198158800,2.550158935546875,0.33615736971497534,7.142896654936671,0.47970436498206104
1772698669208115700,2.56011572265625,0.5532347710192204,7.4651178537577385,0.4632129566473886
1772698669218072800,2.57007275390625,0.7181026771366595,7.8020216579258435,0.4188020794475451
1772698669228029700,2.58002978515625,0.7566378672361374,8.137000046989321,0.22308358291648328
1772698669237986800,2.58998681640625,0.578511835616827,8.348611584103107,0.029353227995336056
1772698669247944000,2.59994384765625,0.33057986184358595,8.432463587266206,-0.18040036975946278
1772698669257900800,2.60990087890625,0.21549217793941497,8.485189215281606,-0.43617721181418745
1772698669267857700,2.619857666015625,0.2259481055021286,8.381129705870151,-0.7246895081810653
1772698669277814800,2.629814697265625,0.07164834601706825,8.008706844553352,-0.95335827081874
1772698669287771600,2.639771728515625,-0.39188802476525303,7.41798668474853,-1.0159032089937479
1772698669297728800,2.649728759765625,-0.8651064252614974,6.681342388749123,-0.8523556647598743
1772698669307686000,2.659685791015625,-1.068633440119028,5.9354644004583355,-0.664744669501856
1772698669317642800,2.669642822265625,-0.9876303966462612,5.014225169086456,-0.4074700631700456
1772698669327599900,2.679599853515625,-0.7199415830016136,3.7276147484749553,-0.1910737394651398
1772698669337556700,2.689556640625,-0.5709481223642826,2.1360627651453017,0.15795754220709204
1772698669347513900,2.699513916015625,-0.6086498207816854,0.2571604053676128,0.6571743073128163
1772698669357470700,2.709470703125,-0.7466974879801273,-1.4650398190915583,1.1888972114868461
1772698669367427800,2.719427734375,-1.0926631350040434,-3.20117095374763,1.4223270510464905
1772698669377385000,2.729385009765625,-1.081819084906578,-4.782828150528669,1.2040809712890534
1772698669387341800,2.739341796875,-0.48675600052662193,-5.904489416480064,0.6686598701842129
1772698669397298700,2.749298583984375,0.5466530545413494,-6.4882999430269,0.0034945778172230345
1772698669407255800,2.759255859375,1.5280888343311845,-6.9646069571882485,-0.6667508947577327
1772698669417212700,2.769212646484375,2.1392425642251967,-7.646876688921451,-1.3017046754993498
1772698669427168800,2.779168701171875,2.350657117462158,-8.465365155392885,-1.8901941536426543
1772698669437126000,2.7891259765625,2.198370460498333,-9.77777812578082,-2.6878543516188858
1772698669447082800,2.799082763671875,1.5875263810753821,-11.495228525364398,-3.344515302582085
1772698669457040000,2.809039794921875,0.6773884624976665,-13.598197999203204,-3.632290918704867
1772698669466997000,2.8189970703125,0.027798765094950793,-15.92274920002818,-3.122986182565987
1772698669476953900,2.828953857421875,-0.47284664457440373,-17.840363275516033,-1.759401097214967
1772698669486910700,2.83891064453125,-1.051167926055193,-18.491565084290503,0.1222117727635894
1772698669496867800,2.848867919921875,-1.5694401047646998,-17.389568303751943,2.3643184169374405
1772698669506824700,2.85882470703125,-1.355959851169586,-14.85745922511816,4.587445571421086
1772698669516781800,2.86878173828125,-0.3810287040334195,-11.80028348532915,5.685297799500822
1772698669526739000,2.878739013671875,0.8433587038338184,-8.803714482194184,5.428375294542312
1772698669536695800,2.88869580078125,1.4309808976233005,-6.313562384802102,4.367008338294923
1772698669546652700,2.898652587890625,1.2753344088375567,-4.61342844620049,2.843203318762779
1772698669556609800,2.90860986328125,0.9039303691744803,-3.079879739028215,1.0812782560281455
1772698669566566700,2.918566650390625,0.5992401508688926,-1.554868558576703,-0.5979570522557943
1772698669576523800,2.928523681640625,0.6184650758206844,-0.11789631158411502,-1.9544985757708548
1772698669586481000,2.93848095703125,0.797146403235197,1.242058746701479,-2.816158952231705
1772698669596437800,2.948437744140625,0.7791103958070278,2.2937387139320373,-3.1983149797946213
1772698669606395000,2.958394775390625,0.5825789023926481,3.035925446489453,-3.032314854776859
1772698669616351700,2.968351806640625,0.5883493390202522,3.316920316430926,-2.4924936920821663
1772698669626308900,2.978308837890625,-0.004616544751590118,2.958205077949166,-1.7276327709019184
1772698669636265700,2.988265625,-1.282668989509344,2.3629899448126555,-0.8506148124419152
1772698669646222800,2.998222900390625,-2.012232971858978,1.945818425709009,-0.41309520957544443
1772698669656180000,3.008179931640625,-1.9656839866518974,1.880487583142519,-0.22402501021875068
1772698669666136800,3.01813671875,-1.405474115923047,2.4428601848632097,-0.06984642029479146
1772698669676093700,3.02809375,-0.721615653693676,3.3180081116676328,0.165474311045371
1772698669686050800,3.03805078125,-0.31087972059547897,4.067043102684617,0.5773650036692619
1772698669696006700,3.048006591796875,-0.15705986271500585,4.843284080535173,0.9564965688444673
1772698669705963800,3.0579638671875,-0.08701894276142119,5.545431063649058,1.0804315760709344
1772698669715920600,3.067920654296875,0.018874216384557076,6.1924313290804625,0.9543018352791667
1772698669725877800,3.077877685546875,0.07735328879356383,6.797295749571919,0.5629047723686322
1772698669735834400,3.08783447265625,0.17041501885056495,7.2427370853483675,0.08398041531573981
1772698669745791500,3.09779150390625,0.28747137247920035,7.584144630676508,-0.28846093150582164
1772698669755748600,3.10774853515625,0.3194903125524521,7.756338349637389,-0.5246987411582842
1772698669765705500,3.11770556640625,0.2924772362087853,7.92534174812436,-0.6490172312770038
1772698669775662300,3.127662353515625,0.04844985039234161,7.923117057812213,-0.769898623086512
1772698669785619500,3.137619384765625,-0.2178372980271466,7.706675031802058,-0.9012538434416055
1772698669795576300,3.147576416015625,-0.07387657086001709,7.414431038093566,-0.8795188353650272
1772698669805533400,3.157533447265625,0.24012045977208762,7.228972763890027,-0.7887994306504726
1772698669815490600,3.167490478515625,0.20378654257655143,7.088668805664778,-0.5835420848689973
1772698669825447400,3.177447509765625,0.2316541716566309,6.881098068374395,-0.381828074250184
1772698669835404300,3.187404296875,0.23388474372029303,6.210747322493791,-0.06830974877942353
1772698669845361400,3.197361328125,0.07801146044135093,5.249505166557431,0.26968948594257236
1772698669855318500,3.207318603515625,-0.23995204440262166,4.098810113823413,0.5426691725369542
1772698669865275400,3.217275390625,-0.3734416829705238,2.299301024234295,0.6252898072741926
1772698669875232500,3.227232421875,0.07826280485391617,0.17914309970736503,0.5834317198297009
1772698669885189600,3.237189697265625,0.6036170507788657,-2.131882849112153,0.42168830240834504
1772698669895146500,3.247146484375,0.9793032247405499,-4.545342751967906,0.16614654775112866
1772698669905103400,3.257103271484375,1.2875275354564188,-7.172722468879819,0.0410488168882206
1772698669915060500,3.267060546875,1.2956465445041656,-10.015074139249323,0.17743797628991304
1772698669925017300,3.277017333984375,0.9048246876657009,-12.673261082357168,0.6487669828429817
1772698669934974500,3.286974365234375,0.828314279437065,-14.860038135695456,1.1249942828316242
1772698669944931600,3.296931640625,1.4415654200017451,-16.297303812676667,1.6199148851133882
1772698669954888400,3.306888427734375,2.3922329904317854,-17.102395037436484,2.119440862298757
1772698669964844500,3.316844482421875,2.9541841518700123,-17.607285172003508,2.533428344538808
1772698669974801700,3.3268017578125,3.1196202132642266,-17.829692243897913,2.5582944902479645
1772698669984758300,3.33675830078125,3.357971873265505,-18.015443948090077,2.042644768996537
1772698669994715400,3.34671533203125,3.444699724125862,-18.44559594479799,1.220820874492079
1772698670004672500,3.356672607421875,3.1794951285123823,-19.202555299073456,0.30472612986918535
1772698670014629400,3.36662939453125,2.5338170515954492,-19.385834475672244,-0.31953838947787877
1772698670024586500,3.37658642578125,1.165686285638809,-18.572721272498367,-0.5119511589944362
1772698670034543600,3.386543701171875,-0.7002899570703506,-16.629668804371356,-0.337923721800372
1772698670044500200,3.396500244140625,-1.9697417376101016,-13.699837003469467,0.06112345400452614
1772698670054457300,3.406457275390625,-2.2488228828847405,-10.178970569986104,0.469685659792833
1772698670064414500,3.41641455078125,-2.152187385994196,-6.540121315678954,0.782980661369115
1772698670074371300,3.426371337890625,-2.081356192445755,-3.0245611719101664,0.8673244666371493
1772698670084328400,3.436328369140625,-2.1555296821594236,0.2459761635303497,0.7354790516123175
1772698670094285600,3.44628564453125,-2.399409750193357,3.0302813031226394,0.5909168148880825
1772698670104242400,3.456242431640625,-2.5586943032205105,5.5895741567581885,0.37379232303909954
1772698670114199300,3.46619921875,-2.4886755950987336,7.934546798843145,0.12579455402065068
1772698670124156400,3.476156494140625,-2.2491443699240685,9.85431892914772,-0.04528720337664708
1772698670134113300,3.48611328125,-1.699067186152935,11.359652180182934,-0.23803452034350484
1772698670144070400,3.4960703125,-1.12595983992815,12.428594247859715,-0.45289917750172315
1772698670154027500,3.506027587890625,-0.7247861734885722,13.210218087792395,-0.6094456473344937
1772698670163984600,3.515984619140625,-0.36461306434869767,13.834386928212641,-0.6765425131928176
1772698670173941200,3.525941162109375,0.02560907303094864,14.275764083290099,-0.9059222736440599
1772698670183898400,3.5358984375,0.4582313323099166,14.688008667385578,-1.0277869043372572
1772698670193855500,3.54585546875,0.8955974251151084,14.751473716080188,-0.9499928860388696
1772698670203812400,3.555812255859375,1.1784253557026385,14.432468556696175,-0.8658565860416739
1772698670213769500,3.56576953125,1.1936520778637378,13.958181650185583,-0.900276011385396
1772698670223726600,3.5757265625,0.8027262491941451,13.199706046128272,-1.3147246083311737
1772698670233683500,3.585683349609375,0.35496143890619275,12.215594471257925,-1.8996686689525841
1772698670243640300,3.595640380859375,-0.2338414891004562,11.58769287405014,-1.801198650111258
1772698670253596700,3.6055966796875,-0.782362675601244,10.77056166740656,-1.5090945032648742
1772698670263553300,3.61555322265625,-1.0048585948228836,9.958274978184699,-1.2593923049487172
1772698670273510400,3.625510498046875,-1.0968962425291537,9.471379349991679,-1.0972452020972967
1772698670283467500,3.635467529296875,-0.9850900645136833,9.148122962903976,-0.9533457035981118
1772698670293424400,3.64542431640625,-0.7813222266376018,9.074013770598173,-0.7764061052843928
1772698670303381500,3.655381591796875,-0.4729565346896648,9.117355484196542,-0.565193796621263
1772698670313338600,3.665338623046875,-0.2242179572412744,9.111514941474795,-0.2986908682929352
1772698670323295200,3.675295166015625,-0.17447978407144546,8.899392532229424,-0.001975903182849288
1772698670333252400,3.68525244140625,-0.28166239393949505,8.79967368237078,0.21197218711972235
1772698670343209500,3.69520947265625,-0.48890229184031486,8.645673207226395,0.2379944805940613
1772698670353166300,3.705166259765625,-0.499998855394125,8.52982856747508,0.1775632831700146
1772698670363123500,3.71512353515625,-0.4455237168302759,8.413035833218693,0.03603113485667854
1772698670373080600,3.72508056640625,-0.41694063295722006,8.200289154595136,-0.17668290187260136
1772698670383037400,3.735037353515625,-0.5090729732096195,8.010849701800941,-0.31374292800687253
1772698670392994300,3.744994384765625,-0.7615057655334472,7.727127452722192,-0.40026027792170643
1772698670402951400,3.754951416015625,-1.0988450385093689,7.210736849975586,-0.5576388146644458
1772698670412908300,3.764908203125,-1.5154595082521438,6.431297368344664,-0.9037515054762363
1772698670422865400,3.774865478515625,-1.838058308213949,5.57578820798993,-1.4122287047497928
1772698670432822500,3.784822509765625,-1.9161843349456786,4.506497765266895,-1.6088042930342257
1772698670442779600,3.794779541015625,-1.5795172621428966,2.799174207422137,-1.4352046527981757
1772698670452736300,3.804736328125,-0.9798819744765758,0.8344371462315321,-0.8375714256692677
1772698670462693400,3.814693359375,-0.21760464004874228,-1.119682659354806,-0.06764969570180401
1772698670472650500,3.824650390625,0.7944985190749168,-3.252991741877794,0.7887405400700866
1772698670482607400,3.834607421875,2.260001279503107,-5.389287731257081,1.6508410615138709
1772698670492564500,3.844564453125,3.6285318584322925,-7.330208448052406,2.516611649772525
1772698670502521600,3.854521484375,4.408347187638283,-9.150048378008604,3.0718282422587273
1772698670512478500,3.864478515625,4.582088136041164,-11.078103183490038,3.1772385817572473
1772698670522435300,3.874435302734375,4.481847308135032,-13.407559692013264,2.8279931824102995
1772698670532391400,3.884391357421875,4.33309934669137,-15.995961735755204,2.088392082431912
1772698670542348300,3.894348388671875,3.7521114763498304,-18.813933582627772,1.1494633920472115
1772698670552305400,3.904305419921875,1.8912357716500758,-21.825743409514427,0.23361442061262203
1772698670562262500,3.914262451171875,-1.7134095997601746,-24.65159344241619,-0.3604724208800122
1772698670572219400,3.924219482421875,-5.692756883335113,-26.271528055143357,-1.009412750995904
1772698670582176500,3.934176513671875,-7.8095386094272135,-25.26133862068653,-1.9380616741023957
1772698670592133600,3.944133544921875,-6.861326030933856,-21.61025123157501,-2.7753698457255958
1772698670602090200,3.95409033203125,-3.916946649241447,-16.6614784856081,-2.740404623067379
1772698670612047400,3.96404736328125,-0.6662836425721645,-11.540503252851963,-1.4842637211300431
1772698670622004500,3.97400439453125,2.0296119766831398,-6.8932888569056985,0.7301689625054597
1772698670631961300,3.98396142578125,3.7135365387618537,-3.500886890771985,3.002559475721419
1772698670641918500,3.99391845703125,4.244372430968284,-1.6621166348963974,4.4515360487625
1772698670651875600,4.00387548828125,3.8743572153151034,-0.8399240532100201,4.739810846579075
1772698670661832400,4.01383251953125,3.263374019682407,-0.45698272048830985,3.9491085049167274
1772698670671789300,4.023789306640625,2.62904268168807,-0.1107563767015934,2.5536335126996037
1772698670681746400,4.033746337890625,1.9373522106587886,0.31711656915843484,0.9591763825129717
1772698670691703300,4.043703369140625,0.9431213928341865,0.7473533215403556,-0.31987229760736224
1772698670701660400,4.053660400390625,-0.5994096987495199,0.7854723320543766,-1.2551098053239285
1772698670711617500,4.063617431640625,-2.1038509328484536,0.7932704385846853,-1.9750141250550746
1772698670721574700,4.07357470703125,-2.533136668115854,1.4060042772769927,-2.411617051468044
1772698670731531300,4.08353125,-2.0745231315553188,2.490329207524657,-2.495982410980761
1772698670741489200,4.0934892578125,-1.4677823957979679,3.7580069641292093,-2.364674829159677
1772698670751446300,4.1034462890625,-1.134455281072855,4.9389212140381336,-2.083867883005738
1772698670761403100,4.113403076171875,-1.2215046189725398,5.910978778499365,-1.705289567799121
1772698670771360300,4.1233603515625,-1.3129822947084904,6.787953920730948,-1.3218491995140909
1772698670781317000,4.133317138671875,-1.2735972097814083,7.565766677942872,-1.0089039977561682
1772698670791274000,4.14327392578125,-1.100464237209037,8.317595099070667,-0.8604474935397505
1772698670801231000,4.153231201171875,-0.763024353402853,9.05404358023703,-0.8067829772390425
1772698670811187200,4.163187255859375,-0.45767596344947814,9.604823943841456,-0.8117350466884672
1772698670821144000,4.17314404296875,-0.34965047301650043,9.962911405813694,-0.8420113808780908
1772698670831101200,4.18310107421875,-0.5950549741387366,10.117351441419125,-0.9525173630151897
1772698670841058300,4.193058349609375,-0.9106300860088318,10.213900429069994,-1.127838201020658
1772698670851015200,4.20301513671875,-1.2706874598145483,10.205941579020022,-1.3920306969821452
1772698670860972300,4.21297216796875,-1.5589537820637225,10.228675973397493,-1.6732443242408335
1772698670870929200,4.22292919921875,-1.5724620829343794,10.322029964399338,-2.022214267647266
1772698670880886000,4.232885986328125,-1.4465829559028147,10.410376940894126,-2.347009116348624
1772698670890843100,4.242843017578125,-1.2779670954287052,10.353381380474566,-2.6981168024361133
1772698670900800300,4.25280029296875,-0.8787550113856792,9.998790528446435,-2.86416427372694
1772698670910757000,4.262757080078125,-0.5409516280293465,9.41242447219789,-2.9349036973387
1772698670920714200,4.27271435546875,-0.5725251989552751,8.662699160829186,-2.9902830547332764
1772698670930671000,4.282671142578125,-0.8033142782151699,7.97670602465868,-2.8269258454397317
1772698670940628200,4.292628173828125,-0.7418822697181254,7.241887190520763,-2.2780577451974153
1772698670950585000,4.302585205078125,-0.19242701723761854,6.253209915170073,-1.6340619222790003
1772698670960542200,4.312542236328125,0.4871043025076389,4.6483536291092635,-1.0124792989596725
1772698670970499300,4.322499267578125,1.1103542745172976,2.040620277431607,-0.5583383777685463
1772698670980456200,4.332456298828125,1.1230535970926283,-1.123960775065422,-0.2309108424760401
1772698670990413300,4.342413330078125,0.5927250698864459,-4.659577618435025,-0.0056560530003160235
1772698671000370200,4.3523701171875,-0.13453348506502807,-8.07848122252524,0.3146273096259683
1772698671010327000,4.3623271484375,-0.9513537260632962,-11.0479593896389,0.6621686084687709
1772698671020284200,4.3722841796875,-0.41384149789810176,-12.98702308039069,1.1412918490946293
1772698671030241300,4.3822412109375,2.0663655440628528,-13.67726627522111,2.0702029302686453
1772698671040198100,4.3921982421875,5.081977101320028,-14.090582872462273,3.107806733612716
1772698671050155300,4.4021552734375,7.041532960480451,-15.071490098333358,3.8926501201137897
1772698671060112100,4.412112060546875,6.876977189052105,-17.49252482035756,3.7653888910740614
1772698671070069000,4.422069091796875,4.7791292960107326,-21.25672070225477,2.861410883365571
1772698671080026000,4.432026123046875,0.7954898681998253,-25.25988900640011,2.264129026957601
1772698671089983200,4.441983154296875,-3.3974954898804426,-28.622498476338386,1.9913098646871745
1772698671099939000,4.45193896484375,-5.732607247686386,-29.62324671323299,1.8028253745302556
1772698671109896200,4.461896240234375,-5.689542012941837,-27.693071262335774,2.1711267720028755
1772698671119853300,4.471853271484375,-4.013486869063973,-23.565682704281805,3.829778945659101
1772698671129810200,4.48181005859375,-1.9239853640854359,-18.55125412157774,5.965114857834577
1772698671139767300,4.491767333984375,-0.23933657938539982,-13.66101890477538,7.68363785508573
1772698671149724200,4.50172412109375,0.5155079746931791,-9.399135951557755,8.267096499454974
1772698671159681000,4.511680908203125,0.4994482357740402,-5.565445093151927,7.587043274727463
1772698671169638100,4.52163818359375,0.04516483737230301,-1.811539719122648,5.913395191991329
1772698671179595300,4.53159521484375,-0.9069815734386444,1.6433651726752518,3.743262983983755
1772698671189552000,4.54155224609375,-2.33634860612452,4.219255525368451,1.3945315738871693
1772698671199509200,4.55150927734375,-3.0379747802346944,6.447613712373376,-1.188705488307029
1772698671209466000,4.561466064453125,-2.873390951755643,8.79898453106284,-3.954833020043373
1772698671219423200,4.57142333984375,-2.0412240885436534,10.987895089298487,-6.448782171630859
1772698671229380000,4.581380126953125,-0.7927963913321494,12.461994997680186,-8.00352271991372
1772698671239337200,4.591337158203125,0.4072890075147152,13.01647596936822,-8.48913298447132
1772698671249294300,4.60129443359375,1.1455670421957969,13.153601297557353,-7.696182279360294
1772698671259251200,4.611251220703125,1.4257891741991042,13.482466172176599,-6.039111237415671
1772698671269208300,4.621208251953125,1.481611014664173,13.952785344099997,-4.033048770885169
1772698671279165200,4.631165283203125,1.4088637583613395,14.118219067406654,-1.8505539249107241
1772698671289122000,4.6411220703125,1.537128903746605,13.824005819451807,0.23963738896287975
1772698671299079200,4.6510791015625,1.5890309404194354,13.099191661977768,1.8431578233100472
1772698671309036300,4.661036376953125,1.5170038150846956,12.272422858417034,2.8928447170272467
1772698671318993200,4.6709931640625,1.226834289562702,11.531117000347376,3.421601757133007
1772698671328950300,4.6809501953125,0.7840577160160989,10.63823760201931,3.280294174823165
1772698671338907100,4.6909072265625,0.4748959783196449,9.820435364246368,2.5994758109420535
1772698671348864000,4.700864013671875,0.19995790593279525,9.155455205488204,1.5679549807734787
1772698671358821000,4.710821044921875,0.05947159514427185,8.480494335463643,0.5418814562253653
1772698671368777200,4.720777099609375,-0.07978608716474846,7.9823805631637565,-0.3209422649264335
1772698671378734000,4.730734130859375,-0.2599204994644038,7.728444380539655,-0.8930147151455282
1772698671388691200,4.740691162109375,-0.4030103072822094,7.570885920652747,-1.216497093008831
1772698671398648300,4.7506484375,-0.5469067370414734,7.509367329850792,-1.351734050168097
1772698671408605200,4.760605224609375,-0.5877215625107288,7.687690345346927,-1.4795999671027062
1772698671418562000,4.77056201171875,-0.5897603748619556,7.947998401090502,-1.6662021506443618
1772698671428519200,4.780519287109375,-0.5780559450754895,8.186267643505335,-1.7484166157335042
1772698671438476000,4.79047607421875,-0.49430093601346015,8.510959616354107,-1.7150649657517671
1772698671448433200,4.80043310546875,-0.30632450497653335,8.829949578168987,-1.5948782051429151
1772698671458390300,4.810390380859375,-0.059759179913997644,9.049898735517264,-1.6157317542098462
1772698671468347100,4.82034716796875,0.12441544768717139,9.20449600751102,-1.6339645993843674
1772698671478304300,4.83030419921875,0.2906581492891535,9.244408331182598,-1.685254933899641
1772698671488261000,4.84026123046875,0.2916133311221376,9.110402596318721,-1.8004924015380441
1772698671498218200,4.85021826171875,0.20758472928311675,8.585403155180812,-2.0614691503234206
1772698671508175000,4.860175048828125,0.18521164249870925,7.9862951062589875,-2.28349920559898
1772698671518132200,4.87013232421875,-0.1650538206109777,7.291274029502272,-2.3527193106889723
1772698671528089300,4.88008935546875,-0.6439701039552688,6.3060144536405796,-2.292043162060529
1772698671538046200,4.890046142578125,-0.9341700246155261,5.291901123738288,-1.9869126526415346
1772698671548003000,4.900003173828125,-0.6967875749725848,4.025241019743681,-1.5454460657149551
1772698671557960200,4.909960205078125,0.11940145545005798,2.65119898391664,-1.2937860113292932
1772698671567917000,4.9199169921875,1.344790806901455,0.9565233107209206,-1.2513581977054475
1772698671577874200,4.929874267578125,2.654582781136036,-1.1680167744129895,-1.2988970707327128
1772698671587831300,4.939831298828125,3.7787142365932462,-3.612841537347436,-1.2608192690119147
1772698671597788200,4.9497880859375,4.301793523323536,-6.107415542834997,-0.815205207017064
1772698671607745300,4.959745361328125,3.8598306773126123,-8.491496206471323,-0.013645334721170365
1772698671617702100,4.9697021484375,2.9264076716721057,-10.724470947360992,0.7884749479364603
1772698671627659000,4.979658935546875,1.976861214226484,-13.204327276188135,2.0196618066854772
1772698671637616000,4.9896162109375,1.6108815376996992,-16.14056192986965,3.9781308935225006
1772698671647573200,4.9995732421875,1.2591080811798572,-19.097263032996654,5.445975248640775
1772698671657529000,5.009529052734375,-0.38180034599304197,-21.38546515558958,5.702669790062308
1772698671667486200,5.019486328125,-3.2557512697190045,-22.567679382181165,4.850537412664294
1772698671677443300,5.029443359375,-6.020470249831676,-22.26211004295349,3.698172380891442
1772698671687400200,5.039400146484375,-7.6449752392143004,-20.236217963576316,2.560297062242031
1772698671697357000,5.049357177734375,-7.466933963268995,-16.764475918745994,1.8706375125184653
1772698671707314200,5.059314208984375,-5.724314051115512,-12.838054169672727,1.6874596043370662
1772698671717271000,5.06927099609375,-2.975149198487401,-9.01939136905074,1.7396172232061624
1772698671727228200,5.079228271484375,-0.05640811592042446,-5.531054163250327,1.8357187593504785
1772698671737185300,5.089185302734375,2.158089888036251,-2.77511061026752,1.8321859090492127
1772698671747141600,5.0991416015625,2.789722488465905,-1.1636918969511985,1.8233035144135354
1772698671757098800,5.1090986328125,2.0840572680979967,-0.7346598441839217,1.8319477163791655
1772698671767056000,5.119055908203125,0.9915671515733003,-0.5606260503143072,1.5972893579378724
1772698671777012500,5.129012451171875,0.06588206497477367,-0.16491583691239356,1.067255429764092
1772698671786969600,5.138969482421875,-0.49390404565036294,0.39921208404302594,0.3274348783487454
1772698671796926700,5.1489267578125,-0.48516423782315105,1.1101304026335477,-0.24639000502824782
1772698671806883600,5.158883544921875,-0.008139430781267583,1.9013152671158313,-0.6922359760828316
1772698671816840700,5.1688408203125,0.5416828649133444,2.709156082844734,-0.9848138048555701
1772698671826797800,5.1787978515625,0.7356886027097702,3.4601363627105948,-1.033977283409983
1772698671836754700,5.188754638671875,0.16713753154985606,3.6191134572237726,-0.7893966658912599
1772698671846711600,5.198711669921875,-0.2763018167544156,3.552884789034724,-0.5193644309256226
1772698671856668700,5.208668701171875,-0.3795476716954261,3.760679398208856,-0.61570832445845
1772698671866625800,5.218625732421875,-0.2503139004737139,4.037202675694227,-0.864202096832916
1772698671876582700,5.228582763671875,-0.001443184545636177,4.366522308343649,-1.2551985065206885
1772698671886539800,5.238539794921875,0.1835410424053669,4.570711586502195,-1.3876983668662606
1772698671896497000,5.248496826171875,0.4487947378575802,4.501662600195408,-1.3509731487981975
1772698671906453500,5.25845361328125,0.49335342603027815,4.173839928105473,-1.161099030913785
1772698671916410600,5.26841064453125,0.035152634989097716,3.4719957273304463,-0.6002149141851812
1772698671926367700,5.27836767578125,-0.41426637224666774,2.4346903224110603,0.0894426901764702
1772698671936323600,5.288323486328125,-0.7576952673345804,1.8374165031790732,0.4205122078336775
1772698671946280700,5.29828076171875,-0.7456688025195151,1.848871963173151,0.24710531369075178
1772698671956237800,5.30823779296875,-0.05998308833036571,2.1292314578205347,-0.28256208272557704
1772698671966194700,5.318194580078125,0.9004793519377708,2.2926655317425726,-0.4696425878360867
1772698671976151800,5.32815185546875,2.074649388283491,2.5854846949905155,-0.30594717783043157
1772698671986108700,5.338108642578125,3.320255598333478,2.9764082586377856,-0.14294101046426222
1772698671996065500,5.3480654296875,4.108673920711874,3.065749506866932,0.26376718322150405
1772698672006022700,5.358022705078125,4.148419071123004,2.488436525645852,0.8913289540156721
1772698672015979800,5.367979736328125,3.333971988996863,1.0259756171315908,1.3182748481586575
1772698672025936600,5.3779365234375,2.3099860843777655,-0.8840355821371078,1.2190692085191608
1772698672035893800,5.387893798828125,0.39697340173814444,-2.4688696553885934,1.0822625178251415
1772698672045851000,5.397850830078125,-1.9565999319642782,-3.3284792367994784,0.8643480811748653
1772698672055807500,5.407807373046875,-3.7498306719362735,-3.43291634735167,0.557947697950527
1772698672065764600,5.4177646484375,-4.6107788084745405,-2.9003052621662615,0.05781078579258173
1772698672075721700,5.4277216796875,-4.530317032271624,-2.2112024695426222,-0.32715712085328996
1772698672085678600,5.4376787109375,-3.471020160296559,-1.2901152138620615,-0.6293177476160228
1772698672095635700,5.4476357421875,-1.9570242948561907,-0.10246844082772731,-0.7967741358567029
1772698672105592800,5.4575927734375,-0.5147632938057184,0.8487620241820811,-0.7526030587621033
1772698672115549400,5.467549560546875,0.8636129718333482,1.5756126559197903,-0.5775054350532591
1772698672125506600,5.477506591796875,1.5979957526415585,2.015998461872339,-0.2777730218181386
1772698672135463700,5.487463623046875,0.4277180475592613,1.948117934823036,-1.4248663602657616
1772698672145420800,5.4974208984375,-4.487848009854555,0.7452016964644194,-4.894236269137263
1772698672155377700,5.507377685546875,-0.6813268979251385,-0.1899538320571184,-3.436264488735795
1772698672165334800,5.517334716796875,2.59062439596653,0.8109095556497573,-1.8967409449376165
1772698672175292000,5.5272919921875,1.7129004811942576,1.2080839963853358,-1.35764064386338
1772698672185248500,5.53724853515625,0.056040451651811596,0.6651631141096354,-0.4602649570293724
1772698672195205600,5.54720556640625,-1.8910931483089923,1.123130753982067,3.7078380348592996
1772698672205162800,5.557162841796875,1.664422573751211,0.641354953020811,1.5047382077515123
1772698672215118600,5.56711865234375,0.946274303907156,0.16589724916517734,0.9115504887893795
1772698672225075700,5.57707568359375,0.1537304260313511,-0.3519271857768297,0.38867885346040126
1772698672235032800,5.58703271484375,0.5289444159040227,-0.7407365337491035,0.6254434634659439
1772698672244989700,5.59698974609375,0.020199907463788986,-0.4816577275395393,0.565161246058531
1772698672254946800,5.60694677734375,0.17104748980151488,-0.5712737010568381,0.23277042580284177
1772698672264903700,5.616903564453125,0.030190555602312086,-0.6151636961877346,-0.21505132057042792
1772698672274860500,5.626860595703125,-0.008767837478453293,-0.2830249144643545,-0.21445129058435558
1772698672284817700,5.636817626953125,0.02848842329296749,-0.09586685060560703,0.043738352799718265
1772698672294774800,5.64677490234375,-0.11236614998579024,0.0737649089127779,-0.06717499542871955
1772698672304731600,5.656731689453125,-0.6095756669223308,0.31933073807656764,0.7426807266194373
1772698672314688800,5.666688720703125,-0.43592765749990936,0.6496177544534206,0.5492869467088952
1772698672324645600,5.676645751953125,-0.30046763217449185,0.7728904983788728,-0.017741664124093948
1772698672334602500,5.6866025390625,0.021211148599255828,0.9977221670717,-0.12644858834943734
1772698672344559600,5.6965595703125,0.05229658894836902,0.49869595610201356,-0.12895422362796963
1772698672354516700,5.706516845703125,-0.49700493427515025,-0.2069248406022787,0.4391076027102768
1772698672364473600,5.7164736328125,-0.17993980304300783,0.07006020917594433,0.29309661021614447
1772698672374430700,5.7264306640625,-0.039811201384663576,-0.5106541049212217,0.2604813482175581
1772698672384387800,5.736387939453125,-0.2121405294239521,-2.4224516030848027,0.40882944188974796
1772698672394344400,5.746344482421875,0.2951847233355045,-1.908193920713663,-0.45758934461195017
1772698672404301600,5.756301513671875,0.4063338987469673,-1.410492820867896,-0.8940426699537783
1772698672414258700,5.7662587890625,0.5671288563370704,-1.096422195276618,-1.3718145690359174
1772698672424215800,5.7762158203125,0.5008277074337005,-0.6821095727354287,-1.3318312259547411
1772698672434172700,5.786172607421875,0.39184360110163685,-0.23988252283036707,-0.9891891703955829
1772698672444129800,5.7961298828125,0.3316606428176164,0.017758944052457808,-0.7916586925391107
1772698672454086700,5.806086669921875,0.2702671397000551,0.27395196569263935,-0.6438950659576803
1772698672464043500,5.81604345703125,0.23147066831588745,0.5114262583374977,-0.5578069012403488
1772698672474000600,5.826000732421875,0.2479196988135576,0.6966033775120973,-0.3400760409960523
1772698672483957800,5.835957763671875,0.14174126101937143,0.7379945415645838,-0.031053958365460856
1772698672493913600,5.84591357421875,0.1484831730276346,0.6370721611350775,-0.009109307859884574
1772698672503870700,5.85587060546875,0.18789225988481192,0.5484919604063033,-0.13900859378562308
1772698672513827600,5.86582763671875,0.1287076284557581,0.6254752468436956,-0.19885043788123874
1772698672523784700,5.87578466796875,0.07411277250237762,0.8148083166539668,-0.10008013005224056
1772698672533741800,5.885741943359375,0.007590016737580299,0.9205465729326009,0.07137818730617873
1772698672543698700,5.89569873046875,-0.06255492984605952,0.9097036918789148,-0.04562562328446656
1772698672553655600,5.905655517578125,-0.8812661174237728,0.743967770755291,0.13606010097726248
1772698672563612700,5.91561279296875,-0.8918442100614309,0.7724030071228742,0.387708693253994
1772698672573569800,5.92556982421875,-0.29046591465268284,0.6303788009762764,-0.02519857426760718
1772698672583526700,5.935526611328125,-0.40552667401731013,0.41109892119169233,0.08434413406159728
1772698672593483800,5.94548388671875,-0.3858651112139225,0.19212942253053186,0.32676439520865674
1772698672603440600,5.955440673828125,-0.42541210870444773,-0.008685995280742645,0.46990956820920105
1772698672613397500,5.9653974609375,-0.4196107289493084,-0.16157997048795222,0.52040188421458
1772698672623354600,5.975354736328125,-0.3944914852619171,-0.5278653519630432,0.34233770231772215
1772698672633311700,5.985311767578125,-0.306119922315143,-0.7496674437016249,0.23720859091337768
1772698672643268600,5.9952685546875,-0.18310027636792509,-0.05881050088703632,0.00022823753161355852
1772698672653225700,6.005225830078125,-0.2698181903561577,0.13985738350152968,-0.23019809109680353
1772698672663182800,6.015182861328125,-0.3606113544266671,0.1839595600783825,-0.20160839481987058
1772698672673139500,6.025139404296875,-0.3055634940087795,0.304874342700839,-0.11373950243191792
1772698672683096600,6.0350966796875,-0.2204213779699057,0.09047580521702765,0.09403714182726107
1772698672693053700,6.0450537109375,-0.15933540643155575,-0.12761515704393386,0.23093685370013117
1772698672703010800,6.0550107421875,-0.03242050661146641,-0.13613690167367457,0.17747301107067615
1772698672712967700,6.0649677734375,0.002090250277519226,-0.1967950762540102,0.16537662282455712
1772698672722924800,6.0749248046875,0.05815762646887451,-0.4433674521118402,0.10272095428407192
1772698672732881700,6.084881591796875,0.1324889005601406,-0.3858195185065269,0.08545052440091967
1772698672742838800,6.0948388671875,0.14424882339350878,-0.16723872690200806,-0.03475867636860348
1772698672752796000,6.1047958984375,0.1974438955515623,0.08499182084798812,-0.21205325299929825
1772698672762753000,6.1147529296875,0.2578425424128771,0.39431028347611424,-0.29205375009970735
1772698672772708900,6.124708984375,0.2694780351489782,0.4485147518724203,-0.2528021553591825
1772698672782666000,6.134666015625,0.2366658988714218,0.4044605060905218,-0.12600792277669534
1772698672792623000,6.144623046875,0.18626140727996826,0.3992565077066421,-0.06856576936710626
1772698672802580000,6.154580078125,0.1152005331614986,0.3568506136536598,0.004750171935465186
1772698672812536800,6.164536865234375,0.08946049069464206,0.32702947588562964,0.045935401619691396
1772698672822494000,6.174493896484375,0.21603698887322098,0.36677871794998645,0.09664139690836891
1772698672832450800,6.184450927734375,0.315967399123311,0.2980985649555921,0.013120634993631392
1772698672842408000,6.194407958984375,0.4523790260851383,0.2571183197915554,-0.06893893179474399
1772698672852365000,6.204364990234375,0.45364393145442006,0.13722586595416067,0.04140444365916773
1772698672862322000,6.214322021484375,0.45163021701183165,-0.1447059925764799,0.054098505537491286
1772698672872279000,6.224279052734375,0.4518956264823675,-0.2752045961022377,0.07682793147889896
1772698672882236000,6.23423583984375,0.42032742585130034,-0.21962767030894756,0.06915634653824382
1772698672892193000,6.244193115234375,0.39249479501936585,-0.1101765309870243,0.06236497849822044
1772698672902150000,6.25414990234375,0.36138891467042267,0.011151508611440658,0.05804666777453385
1772698672912107000,6.26410693359375,0.36645496588833626,0.16675415825545786,0.009843074627686292
1772698672922064100,6.274064208984375,0.35484278096258637,0.12049977208077907,0.04955907200956717
1772698672932021000,6.28402099609375,0.3522662084728479,-0.16627485030591488,0.11721963616525753
1772698672941977900,6.293977783203125,0.39959019664041695,-0.2428963176935911,-0.0016286423814482985
1772698672951935000,6.30393505859375,0.5124292248349637,-0.16279752958416938,-0.1346651577538345
1772698672961891800,6.313891845703125,0.5704453604739159,-0.24590017568469047,-0.1468323736133054
