time,seconds_elapsed,z,y,x
1772699412691787300,0.087787353515625,-0.3120880004066974,-0.07367080088853836,0.05268010837323963
1772699412701745200,0.0977451171875,-0.29829445285387335,0.07899228817224502,-0.12193206990621984
1772699412711702300,0.107702392578125,-0.20796704313158987,0.24183131881058215,-0.17096191214360296
1772699412721660400,0.117660400390625,-0.05109941505305469,0.37291736683547494,-0.1312811322055757
1772699412731617300,0.1276171875,-0.044959012601897115,0.398020243909955,-0.15994031352214513
1772699412741574400,0.137574462890625,-0.09896014044582843,0.48944122102260584,-0.13630166378133
1772699412751532300,0.1475322265625,-0.17529869923889635,0.5587514886140823,-0.046223260384052986
1772699412761489400,0.157489501953125,-0.23889460777156055,0.6036491994827985,0.04945237849839031
1772699412771447300,0.167447265625,-0.3044335401307791,0.5507388625502586,0.21757957867272196
1772699412781404200,0.177404052734375,-0.380067165524885,0.40049335602521896,0.32026524244770405
1772699412791361300,0.187361328125,-0.4373614896953106,0.1787082154214382,0.42217473421841856
1772699412801319400,0.1973193359375,-0.5532002842277288,-0.03269347833395004,0.4579544881299138
1772699412811276500,0.207276611328125,-0.6355320190209895,-0.14465572369396687,0.5258774660814554
1772699412821234200,0.217234130859375,-0.6856693110436201,-0.2392325344890356,0.4413508515924215
1772699412831191300,0.22719140625,-0.67050681322515,-0.26707038948535916,0.3328613238442689
1772699412841148400,0.2371484375,-0.6278051510959863,-0.2393576221734285,0.3609922435030341
1772699412851106300,0.247106201171875,-0.6334171457588672,-0.3550549624085426,0.35079007150568065
1772699412861063200,0.257063232421875,-0.6159205059044063,-0.4627092814415693,0.22323015178032218
1772699412871021300,0.267021240234375,-0.5252250665873289,-0.4985743755489587,0.12397431632354855
1772699412880978400,0.276978515625,-0.4682026181608438,-0.5302484477072954,-0.0057109249927103515
1772699412890935300,0.286935302734375,-0.390796649331972,-0.5257248328030109,-0.1303954354122281
1772699412900893200,0.29689306640625,-0.30108189161531623,-0.4412199186891317,-0.06709602560810744
1772699412910850300,0.306850341796875,-0.22747487667798993,-0.4244470630645752,0.12960143549032507
1772699412920808200,0.31680810546875,-0.2526964116960764,-0.47237376636564726,0.19683124354593454
1772699412930765300,0.326765380859375,-0.18454992718696595,-0.38096097255945205,0.16642843343243002
1772699412940722200,0.33672216796875,-0.1046211618822068,-0.17969488837122916,0.08036876415722072
1772699412950680300,0.346680419921875,0.000789104551076889,0.0039461072772741315,0.005949702184647321
1772699412960637400,0.356637451171875,0.14682831849269568,0.08305296173989772,0.032043270796909926
1772699412970595300,0.36659521484375,0.3261860107988119,-0.027757190975546835,-0.02712744170464575
1772699412980552400,0.376552490234375,0.6096417178958654,-0.053859015959501266,-0.22448680077791214
1772699412990510300,0.38651025390625,0.9612678018342703,0.06407879667878151,-0.34737339492999014
1772699413000467200,0.39646728515625,0.7550391998678445,0.11796586968898773,0.07729008736424148
1772699413010424300,0.40642431640625,0.9820587339937686,0.010227964025735855,0.1016501832474023
1772699413020382500,0.416382568359375,1.0940934600681065,-0.02533493226468563,0.11607895996384322
1772699413030339300,0.42633935546875,0.5079606280535459,-0.104660397914052,0.4269640143215656
1772699413040297200,0.436297119140625,0.6995464452266693,-0.22952187233567237,0.16279636054039
1772699413050254300,0.44625439453125,0.8066454684644937,-0.7449193723917007,0.21233985138833522
1772699413060211500,0.45621142578125,0.46704588587377216,-0.7884083855062722,0.26512641581073404
1772699413070169000,0.466169189453125,0.6496679502706975,-0.31066403201818465,0.5498355570349842
1772699413080126200,0.476126220703125,0.19978432119786738,0.32594401873648166,0.6131604666065424
1772699413090084400,0.48608447265625,-0.0827011160949245,0.6700637456327676,0.4023413585120812
1772699413100041500,0.49604150390625,0.09981357893738894,1.1649269917041063,0.232686985303089
1772699413109998300,0.505998291015625,0.23462880355324595,1.4987047728061675,0.485697248721309
1772699413119956200,0.515956298828125,0.446527413980104,1.3724591505497694,0.47916233052723106
1772699413129913300,0.525913330078125,0.7109130578935146,1.2428425905555487,0.1979617088805884
1772699413139871200,0.535871337890625,1.1800777990847826,1.2235609669804572,0.13753646627329288
1772699413149828400,0.545828369140625,0.9026882601588964,1.1012836638331414,0.30846619318034496
1772699413159785200,0.55578515625,0.16219134385194628,1.0131202272117137,0.04923194068074226
1772699413169743400,0.565743408203125,-2.624723064923286,0.4497977774202823,0.3198104478849098
1772699413179700500,0.575700439453125,-1.5524971532702445,-0.3865793969631195,-0.03075611706320196
1772699413189658400,0.585658447265625,-0.3808148055544123,-0.733120798048377,-0.36971831506583835
1772699413199615200,0.595615234375,0.25089142636703327,-0.5728063174515963,-0.4542815717708319
1772699413209572400,0.605572265625,0.6005810440838336,-0.36120413268804547,-0.49537240116987374
1772699413219530200,0.6155302734375,0.4944330379605293,-0.16676292608380316,-0.4446095611274242
1772699413229487400,0.6254873046875,0.23165188836799933,-0.02454407414793968,-0.3071837521543726
1772699413239445200,0.6354453125,0.0636936150197871,0.10141162525117396,-0.04451372565296478
1772699413249402400,0.64540234375,0.07504970629261806,0.2648375158667564,0.08384154570116661
1772699413259359200,0.655359130859375,0.33603871177136896,0.26984219228625295,0.07051714089689776
1772699413269317400,0.6653173828125,0.614980156314373,0.17313889085650444,0.14035479336334392
1772699413279274200,0.675274169921875,0.8304793485164642,0.10330839878320694,0.1872187262711115
1772699413289232100,0.685232177734375,0.803992908129096,-0.06214578278958797,0.18112576142456382
1772699413299189200,0.695189208984375,0.5688777458310127,-0.48043256965875625,0.12356131507586687
1772699413309146400,0.705146484375,0.21523438551975413,-0.8378267886698245,0.22625249527618288
1772699413319104500,0.7151044921875,-0.2373316693037748,-0.9084124830245971,0.3459086926722899
1772699413329061400,0.725061279296875,-0.539943327769637,-0.797586548218131,0.22511899773422628
1772699413339019300,0.735019287109375,-0.6376385628461837,-0.6125263334214687,0.04598308581947349
1772699413348976400,0.744976318359375,-0.45754736863374706,-0.46768706985414027,-0.1463524446092546
1772699413358934500,0.7549345703125,-0.04845392377926037,-0.3240022370189428,-0.248092077972088
1772699413368891100,0.76489111328125,0.30639526865780353,-0.2816220619291067,-0.22330274209249765
1772699413378848300,0.77484814453125,0.4256207830190658,-0.22066870379447937,-0.11433208889705128
1772699413388806400,0.784806396484375,0.40926995219886303,0.09889642755985259,-0.06753319318266585
1772699413398763500,0.794763427734375,0.40885260356962677,0.5386749152690172,-0.09663125910684466
1772699413408721200,0.80472119140625,0.42622576317489147,0.9342197089761495,-0.0351208150787279
1772699413418678300,0.81467822265625,0.5737047275960445,1.0993676010787485,0.06956491820598021
1772699413428635400,0.824635498046875,0.8309025423645973,1.2406126395463943,0.12335269556017592
1772699413438593300,0.83459326171875,1.181768820911646,1.533974823629856,0.1659377821049653
1772699413448550100,0.844550048828125,1.3420388778448105,1.7081453956216572,0.31935031955987214
1772699413458508300,0.85450830078125,1.1743968308389185,1.7972031507343054,0.6027827919118106
1772699413468465400,0.86446533203125,0.851330413365364,2.025622030264139,0.7826810939006507
1772699413478422300,0.87442236328125,0.4365022425174713,2.352438155660033,0.7130766656681895
1772699413488380200,0.884380126953125,0.14291032306505366,2.7590029405534264,0.42833406056575474
1772699413498337300,0.894337158203125,0.011432060852181165,3.0428759962797165,-0.09063806484034284
1772699413508295400,0.90429541015625,-0.1632768375337124,3.0843010626018046,-0.6354606342852115
1772699413518252000,0.914251953125,-0.3437959017693996,3.019067835190892,-1.0155902705870568
1772699413528209200,0.924209228515625,-0.677998630285263,2.8796108491837975,-1.153047168818116
1772699413538167300,0.934167236328125,-1.0510235491484403,2.8474112918466328,-1.04307931214571
1772699413548124400,0.94412451171875,-1.2397042925298214,2.9306992313861846,-0.7267556469306349
1772699413558082000,0.95408203125,-1.3793892420738936,3.058364072790742,-0.24447291936054824
1772699413568039200,0.9640390625,-1.2981155649662017,3.2119980527102947,0.22824312110412864
1772699413577996300,0.973996337890625,-0.9892647198498249,3.2246184648305176,0.6395346787910908
1772699413587954200,0.9839541015625,-0.724981915256381,2.971872368773818,0.6937712228260934
1772699413597911000,0.9939111328125,-0.7127619006305933,2.703262933152914,0.45270431251674886
1772699413607869200,1.003869140625,-1.040996076130867,2.6108564521342514,0.29843210775889456
1772699413617826300,1.013826416015625,-1.5834633694201707,2.3714906466543675,0.19042313006930053
1772699413627783400,1.023783447265625,-1.9152783260166644,2.1851544205725193,-0.04916508598960936
1772699413637741000,1.033740966796875,-1.9354472538203,1.8751503137677907,-0.3125754185974598
1772699413647698200,1.0436982421875,-1.758373946124315,1.368716456890106,-0.6364311598177999
1772699413657656300,1.05365625,-1.6725772386342286,0.43838148039281366,-0.8258165443371981
1772699413667613200,1.06361328125,-1.6560434524625538,-0.8822779248148203,-0.9100894763261079
1772699413677570000,1.073570068359375,-1.3279986620545388,-2.2900994806468487,-0.8559189832646399
1772699413687528200,1.083528076171875,-0.3576303293218836,-3.604890870603919,-0.45832850907407696
1772699413697485300,1.0934853515625,1.370285313642025,-5.520724492415786,0.4938319302622229
1772699413707443200,1.103443115234375,3.422582584863901,-8.43152367606759,1.454529969384521
1772699413717400300,1.113400390625,4.768758708643913,-12.295352483105658,1.9611703086197374
1772699413727357200,1.123357177734375,4.069678711885214,-16.331904001414774,1.8886776115998625
1772699413737315000,1.133315185546875,1.4402993455886839,-19.083534951895473,1.0800958413105457
1772699413747272200,1.143272216796875,-1.4814239676594734,-20.573190156805513,-0.3356331266451627
1772699413757230300,1.153230224609375,-2.750132236355543,-20.969521716976164,-1.670808183135092
1772699413767187200,1.163187255859375,-1.8086533500313757,-20.359142916977405,-2.2117161181531846
1772699413777144300,1.173144287109375,0.352650239354372,-18.77779493227601,-1.684963841998577
1772699413787102200,1.183102294921875,2.9449276632249353,-16.577828727018833,-0.45583391577936705
1772699413797059300,1.193059326171875,5.208552978444099,-14.606816238820551,1.0179464783243835
1772699413807017000,1.203016845703125,6.488662931120396,-13.378249426376819,2.4861504605352875
1772699413816974000,1.21297412109375,6.445366225707531,-12.650066084730625,3.5590050254806873
1772699413826932200,1.22293212890625,4.914184247666597,-11.776014136469364,4.284260789242387
1772699413836889300,1.232889404296875,1.8199276082396507,-10.146329698622226,4.850790510642528
1772699413846846200,1.24284619140625,-1.7175316481262444,-7.65724902985394,5.353495117864012
1772699413856804000,1.25280419921875,-4.467244782286882,-4.7256940584212535,5.2883466461271045
1772699413866761200,1.26276123046875,-5.964059795823693,-2.1539567337542773,4.392313459943234
1772699413876719400,1.27271923828125,-6.0483279785722495,0.4901408937245607,2.8949153858214616
1772699413886676200,1.28267626953125,-5.374416909861564,3.326221228739619,1.0578805023711173
1772699413896633000,1.292633056640625,-4.423151373538374,6.110104928049445,-0.8511373019460589
1772699413906591200,1.30259130859375,-3.532126078644395,8.664905730962753,-2.4543580226942896
1772699413916548400,1.31254833984375,-2.671794028177857,10.920532448643446,-3.4167490564048286
1772699413926506200,1.32250634765625,-1.7884861757934092,12.684061877834797,-3.5600787921920416
1772699413936463000,1.332463134765625,-1.0103121840536593,13.887742086303234,-3.146707542154193
1772699413946420200,1.342420166015625,-0.2668810043931007,14.68490836328268,-2.3816715566679836
1772699413956378000,1.352378173828125,0.5517828186452388,15.293056627750396,-1.5880398835554719
1772699413966335200,1.362335205078125,1.4256512270331383,15.495715043079851,-0.787407391770184
1772699413976293000,1.372293212890625,2.152867769473791,15.097960756629705,-0.015905936596915124
1772699413986250200,1.382250244140625,2.3546236830055713,14.372610008060931,0.3565964927621186
1772699413996207400,1.392207275390625,1.9829495942294597,13.569341322553157,0.40685280805453655
1772699414006165200,1.402165283203125,1.621107748159766,12.634125003755091,0.16081906911805272
1772699414016122000,1.4121220703125,1.5214841753691435,11.569691937935351,-0.3540693854372948
1772699414026079200,1.422079345703125,1.3219699032843113,10.42877885902524,-0.9273458776839076
1772699414036037000,1.432037109375,1.0900123282343148,9.467406354707478,-1.5506319439202547
1772699414045994200,1.441994140625,0.8721972603052854,8.510858494067191,-1.9048411031544208
1772699414055952400,1.451952392578125,0.6918424467206001,7.676651649460196,-2.0032634834617373
1772699414065909200,1.4619091796875,0.6028957507669925,7.125891744121908,-1.9729076542951165
1772699414075867100,1.4718671875,0.522242835906148,6.786078774508834,-1.7520877054616808
1772699414085824300,1.48182421875,0.5375099631428718,6.554056317529082,-1.4887135401457547
1772699414095781000,1.491781005859375,0.655872138673067,6.594422230187058,-1.22912298502177
1772699414105739000,1.501739013671875,0.7840893532633781,6.7411261185824864,-0.9263678994972259
1772699414115696000,1.511696044921875,0.9444628705710172,6.872350698295235,-0.7200843524731695
1772699414125654300,1.521654296875,1.072964162799716,7.134926114448905,-0.7665957090836018
1772699414135611400,1.531611328125,1.1363023702442645,7.255294953626394,-0.8451510671433061
1772699414145568300,1.541568359375,1.103427105602622,7.3467071629106995,-0.9883191826280205
1772699414155526100,1.551526123046875,0.8111299204021691,7.505104996231198,-1.100096938266605
1772699414165483300,1.561483154296875,0.43091245968639846,7.634138787901401,-1.2383537547037005
1772699414175440400,1.5714404296875,0.2363742224484682,7.561752181604504,-1.3760636047825217
1772699414185398000,1.58139794921875,0.17913666996657848,7.267381697261333,-1.4446861823707817
1772699414195355100,1.591355224609375,-0.091454294860363,6.900413009697198,-1.452218331441283
1772699414205313300,1.601313232421875,-0.6802361800789832,6.3840843662708995,-1.1903875231098382
1772699414215270400,1.6112705078125,-1.6162977175295352,5.409613895449042,-0.7677989473935216
1772699414225227000,1.62122705078125,-2.454696168607473,4.181732727181911,-0.40087614479772743
1772699414235185200,1.63118505859375,-2.9471453392744063,2.7206606426775455,-0.1433005096927285
1772699414245142300,1.641142333984375,-3.0688977417647836,0.7171317862778902,-0.16374029032699763
1772699414255100200,1.65110009765625,-3.0822119813680646,-1.2404606638550757,0.08372961889244615
1772699414265057000,1.66105712890625,-2.5348037245452404,-2.599271228280663,0.3911256620906293
1772699414275015200,1.67101513671875,-0.9185902512330562,-3.3221652313470837,0.7461846430871635
1772699414284972300,1.68097216796875,1.7147686131536959,-4.059125753688812,1.1248815431721508
1772699414294929200,1.69092919921875,4.464093040257692,-5.370291938886046,1.4318391218878328
1772699414304887300,1.70088720703125,6.734263831597566,-7.281049572607874,0.678432199396938
1772699414314844200,1.71084423828125,8.742814315551518,-10.878831487989425,-0.9610300475556403
1772699414324802000,1.720802001953125,7.748236291724443,-18.426157084834575,-0.8258912900738418
1772699414334759200,1.73075927734375,1.6444991451412438,-26.131974623024462,1.3820837418548761
1772699414344716300,1.74071630859375,-6.979077381089329,-29.37919947193861,3.7822494249820706
1772699414354674200,1.750674072265625,-12.250348973774909,-28.13995461361408,5.027881353995204
1772699414364631300,1.76063134765625,-11.489935095131397,-23.218378502130506,5.073243175244331
1772699414374589200,1.770589111328125,-7.453367210209369,-15.60280997466445,3.868980490712821
1772699414384546300,1.78054638671875,-0.9855179345369338,-8.210006831011176,2.3613126592501996
1772699414394503200,1.790503173828125,5.685101984667778,-3.0926112103074788,0.8425074938319623
1772699414404461000,1.8004609375,8.475620007425546,-0.1402571964740753,-0.07563274861127138
1772699414414418200,1.810418212890625,6.933424467939138,0.9379232396692037,-0.3880133022237569
1772699414424376300,1.820376220703125,2.7700457280933857,0.7299906833291053,-0.4388327312916517
1772699414434333200,1.830333251953125,-0.8199252212762832,0.1413292096197605,-0.6630871846184134
1772699414444290000,1.8402900390625,-1.9340870713829994,0.22455869697034359,-1.4928350039899347
1772699414454248200,1.850248291015625,-1.1993068156898021,0.950619639635086,-2.536779408532381
1772699414464205300,1.860205322265625,0.07101181537893135,1.9193629649817943,-3.1075837385118006
1772699414474161700,1.87016162109375,0.8912374763399362,2.7275591700196267,-3.1278692784324287
1772699414484119300,1.880119384765625,1.0054390250593424,3.207573806527257,-2.6518144854664802
1772699414494076400,1.890076416015625,0.7217997780889273,3.5565257758855817,-1.984470812447369
1772699414504034600,1.90003466796875,0.2138917570054531,3.8175750053852795,-1.1648310570489615
1772699414513991700,1.90999169921875,-0.2077829187363386,3.819131002655625,-0.4316174661505967
1772699414523948500,1.919948486328125,-0.2746376098692417,3.9810271994858977,0.001660407492890954
1772699414533906400,1.929906494140625,-0.2065063229292631,4.261343439513444,0.15008929305002092
1772699414543863600,1.939863525390625,-0.02966096050394699,4.621032491463422,0.3016715280715376
1772699414553821400,1.949821533203125,0.24008476740419862,5.120177944898605,0.43829241386987267
1772699414563778600,1.959778564453125,0.513628152295947,5.582137869277596,0.5066613820232451
1772699414573735400,1.9697353515625,0.5475485420763492,6.04545446896255,0.3673149437185377
1772699414583693600,1.979693603515625,0.40319735428690906,6.379542631188035,0.020672493411600587
1772699414593650700,1.989650634765625,0.07140987935238517,6.433529657441377,-0.40043110444396735
1772699414603608600,1.999608642578125,-0.2468313190549612,6.405454486557841,-0.8923994327913969
1772699414613565400,2.0095654296875,-0.46589901739358897,6.33684213810265,-1.3359630650624632
1772699414623522600,2.0195224609375,-0.5881354040086268,6.2380339733481405,-1.8227362359195947
1772699414633480400,2.02948046875,-0.6608744770050048,6.178626675611734,-2.2045883120998737
1772699414643437600,2.0394375,-0.7824585371911525,6.006335926017165,-2.1903778543092307
1772699414653395500,2.0493955078125,-0.9402379463523626,5.721999344432354,-1.763888910153508
1772699414663352600,2.0593525390625,-1.1075181743085383,5.219495812740922,-1.1171304906539619
1772699414673309400,2.069309326171875,-1.3035025187015532,4.559291197821498,-0.6316841844864189
1772699414683267600,2.079267578125,-1.3147019581079482,3.783418468761444,-0.144607939029485
1772699414693224400,2.089224365234375,-1.05550040230155,2.865934206008911,0.35246078119687735
1772699414703182300,2.099182373046875,-0.6123556164970622,1.7885773612082003,0.6484041408799588
1772699414713139500,2.109139404296875,0.01927756845448166,0.3912105638951063,0.5883532845430076
1772699414723096600,2.1190966796875,0.5938894740233197,-1.5869751769334077,0.5410457725862041
1772699414733054700,2.1290546875,0.43977205796837804,-3.8260932428836822,0.7897925333410502
1772699414743011600,2.139011474609375,0.12304072526786476,-6.227293968147039,1.2691735481202602
1772699414752969500,2.148969482421875,0.378357512062788,-8.886409132015704,1.7338135053634642
1772699414762926600,2.158926513671875,1.13006318359375,-11.95298982900977,1.8913819021224973
1772699414772883500,2.168883544921875,1.66752053976655,-15.339818378925322,1.977355719745159
1772699414782841300,2.17884130859375,1.6830125618003309,-18.52159664993882,2.2161489860340953
1772699414792798500,2.188798583984375,1.1730898398935794,-20.75434284276962,2.374757247234881
1772699414802756600,2.198756591796875,0.478717655499652,-21.694487850141524,2.616546188208461
1772699414812713700,2.208713623046875,-0.01542436362504959,-21.01803703382015,2.8571134784325958
1772699414822670300,2.21867041015625,0.16510061889477073,-18.686295044708253,2.676370834574103
1772699414832628500,2.22862841796875,1.3437187937557697,-15.302501332443951,2.347157438778132
1772699414842585600,2.238585693359375,3.094027506846189,-11.671368351602554,2.1056975836284457
1772699414852543500,2.24854345703125,4.227318420314789,-8.57641613112688,2.0802463315077127
1772699414862500400,2.258500244140625,4.369249687480926,-5.98851619168818,1.6614806750804185
1772699414872457500,2.26845751953125,3.8131086736261843,-4.63347520892918,1.2136746559992433
1772699414882415600,2.27841552734375,2.3096669354259967,-4.780191956806182,1.712605736031383
1772699414892372700,2.288372802734375,-0.8369172726094722,-4.548209247314929,3.15418153129667
1772699414902330600,2.29833056640625,-3.7457121307015417,-2.570888598883152,4.096340216578543
1772699414912287500,2.30828759765625,-4.522175811392069,0.031159692895412445,3.667871935173869
1772699414922244600,2.31824462890625,-2.933919362476468,2.019779149454832,1.6013428711123763
1772699414932202500,2.328202392578125,-1.4114911842554807,3.098787853115797,-0.7699823558472096
1772699414942159400,2.338159423828125,-1.3467372647941112,3.750636727622151,-2.4964921140685674
1772699414952117500,2.348117431640625,-2.273887766036391,4.483984904685617,-3.2395144206672906
1772699414962074600,2.35807470703125,-2.9603286459743976,5.721915757802129,-3.285834857815504
1772699414972031500,2.368031494140625,-2.4751859989285467,7.216785482490062,-2.9631267522603273
1772699414981989600,2.37798974609375,-1.1263858833204954,8.295560377395153,-2.3175777085505422
1772699414991946500,2.387946533203125,-0.004490881678462028,8.91886938611567,-1.429338391113281
1772699415001904400,2.397904296875,0.2582091107029468,9.206311532500386,-0.41446174868829544
1772699415011861500,2.407861572265625,0.1012491281658411,9.362568262138963,0.24999117132537066
1772699415021818600,2.417818603515625,0.3314437851965427,9.390331298333406,0.2633392401330173
1772699415031776500,2.427776611328125,1.1268979244958608,9.24841347517073,-0.18172054897993803
1772699415041733400,2.4377333984375,1.8195143512636422,8.992306962770224,-0.7798066344428807
1772699415051691500,2.44769140625,1.9762936434715985,8.73676919016838,-1.241070758577436
1772699415061648600,2.457648681640625,1.8704232852458953,8.464132983249426,-1.4636867970474063
1772699415071605500,2.46760546875,1.644079458424449,8.262228601157664,-1.5479970653720199
1772699415081563400,2.4775634765625,1.6133979044348001,8.005178670427203,-1.5735018012456594
1772699415091520500,2.4875205078125,1.6596674881786107,7.757782118704915,-1.5871202844925223
1772699415101477600,2.4974775390625,1.594904800888896,7.662453028237819,-1.6966607095330952
1772699415111435500,2.507435546875,1.5943278777837753,7.651122655928135,-1.754064558492601
1772699415121392400,2.517392333984375,1.6261007341414688,7.59068601514399,-1.6004865465439855
1772699415131350500,2.5273505859375,1.6411317145347595,7.507512641894817,-1.400721952959895
1772699415141307600,2.5373076171875,1.6184961043566464,7.559984587410092,-1.2800306038297713
1772699415151264500,2.547264404296875,1.641940108308196,7.722017562362551,-1.1256607839163393
1772699415161222400,2.557222412109375,1.692015514075756,7.873374829521775,-1.0691688621699809
1772699415171179500,2.567179443359375,1.6424714387059212,7.9538915507823225,-0.9850786663368344
1772699415181137700,2.5771376953125,1.4810861140072344,7.951440650498866,-0.8721273368742316
1772699415191094500,2.587094482421875,1.2788058843404053,7.974775933378934,-0.7823168636981397
1772699415201051400,2.597051513671875,1.1850029805272817,8.082922419843078,-0.7464261967580765
1772699415211009500,2.607009521484375,1.1847364385455845,8.0544018432796,-0.790289157751575
1772699415220966700,2.616966552734375,1.180503915542364,7.887965664932131,-0.7858957450982182
1772699415230924500,2.626924560546875,1.045720182043314,7.5034402778893705,-0.7262903675064444
1772699415240881400,2.63688134765625,0.6834604028224944,6.995909857946634,-0.665993062127754
1772699415250838500,2.646838623046875,0.2088192760467529,6.377492712920904,-0.6024186347745358
1772699415260796700,2.656796630859375,-0.35749475677609444,5.559169081622362,-0.37828590813130136
1772699415270753500,2.66675341796875,-0.9352209949731827,4.369837716501951,-0.03954480553343892
1772699415280710400,2.67671044921875,-1.4834849918425081,2.832554498976469,0.11772972284555434
1772699415290668500,2.68666845703125,-2.2202584671795367,0.9337082523226737,0.40537689028307794
1772699415300625700,2.696625732421875,-2.8337597831130026,-0.8739607628464698,0.8855551198545842
1772699415310583600,2.70658349609375,-2.571571320450306,-2.106572466766834,1.362586575832963
1772699415320540400,2.71654052734375,-0.10692293601855635,-2.731098450061679,1.4615776959389448
1772699415330498600,2.72649853515625,3.952335942530632,-3.5428555624514817,1.2175658182188869
1772699415340455400,2.736455322265625,7.2131719681680195,-4.8576703332841396,0.587408697169274
1772699415350412500,2.74641259765625,8.56871330166459,-7.730762594354152,-0.6711037562049925
1772699415360370700,2.75637060546875,7.953645467066765,-14.071034122383594,-1.4029706086695193
1772699415370327600,2.76632763671875,3.0133249076247215,-23.418916272044182,-0.2093863353449851
1772699415380284700,2.77628466796875,-5.534310534697771,-30.735996358454226,2.7140710351541637
1772699415390242600,2.78624267578125,-13.241597560918331,-32.315245909571644,5.062004572871327
1772699415400199400,2.796199462890625,-16.178131489807367,-27.529833003246782,5.7376224454998965
1772699415410157600,2.806157470703125,-12.61667351821661,-19.19164344443679,4.50399016636014
1772699415420114400,2.816114501953125,-4.153272356373072,-11.13149224385023,3.0111013863563536
1772699415430071600,2.826071533203125,3.894898483562469,-4.749244445356727,1.826420769651234
1772699415440029700,2.83602978515625,7.6827768543422215,-0.7206810031920671,1.093783444270864
1772699415449986600,2.845986572265625,6.840911019414663,0.8313491170883178,0.5452616001829504
1772699415459944400,2.8559443359375,3.0266449924468994,0.5489017102509737,0.20642456292994318
1772699415469901600,2.865901611328125,-0.9020376872956752,-0.4039969802320003,-0.19244097269773483
1772699415479859000,2.87585888671875,-2.845053915065527,-0.6821160024762153,-1.0553762644652276
1772699415489816800,2.88581689453125,-2.809610845762491,0.1204372282385826,-2.030289729814231
1772699415499773700,2.895773681640625,-1.606911465024948,1.4323790739834308,-2.899365058706701
1772699415509731800,2.90573193359375,-0.3587841024668887,2.6583167069673537,-3.3757492297574876
1772699415519689000,2.91568896484375,0.17641922770142554,3.6055718386054036,-3.3299151148214934
1772699415529645800,2.925645751953125,0.11517770027518272,4.091657903981209,-2.787299645233154
1772699415539603700,2.935603759765625,-0.017166238856315612,4.166919188931584,-1.924771838288009
1772699415549560800,2.945560791015625,-0.11909516597986221,4.254322162574529,-1.0355554194469003
1772699415559518700,2.955518798828125,-0.3121125137934461,4.193337824779749,-0.28182357585057616
1772699415569475800,2.965475830078125,-0.45049449098017064,4.172147152712941,0.1708946190610528
1772699415579432700,2.9754326171875,-0.4581073771366849,4.345583565211296,0.2797833021946251
1772699415589390800,2.985390869140625,-0.32215810698959974,4.677872569060326,0.20528620654977855
1772699415599347700,2.99534765625,-0.10795421529505402,5.1979322157084935,0.1772446456748992
1772699415609305900,3.005305908203125,0.0562146391749382,5.750423474884033,-0.13045374147072433
1772699415619263000,3.015262939453125,0.171658881431818,6.3603820036441086,-0.5359134146664292
1772699415629219800,3.0252197265625,0.23152334835119545,6.960452760118246,-0.8146263111505657
1772699415639177700,3.035177734375,0.25687749677300453,7.5026190246343605,-0.9119311586700379
1772699415649134800,3.045134765625,0.30510405980348587,7.917843501323461,-0.9199631470214575
1772699415659091700,3.055091796875,0.25519988241698593,8.198581181633472,-0.8699987273477018
1772699415669049900,3.0650498046875,0.004881999887898564,8.186003439611197,-0.8828180230408906
1772699415679006700,3.0750068359375,-0.24249946386311202,8.102921251776815,-1.0589667632378637
1772699415688964900,3.08496484375,-0.371402870619297,7.997694452151656,-1.3846218820303677
1772699415698922000,3.094921875,-0.3878700212955475,7.825665568363666,-1.5664453068628905
1772699415708878800,3.10487890625,-0.41032267612218853,7.459940743380785,-1.471165023973584
1772699415718836700,3.114836669921875,-0.4811703093487769,6.94914343059659,-1.2516982433147728
1772699415728793900,3.1247939453125,-0.5938379995644092,6.223481716382503,-0.9159063459113239
1772699415738752000,3.134751953125,-0.7039596585590392,5.287115643027424,-0.5754152943735942
1772699415748708600,3.14470849609375,-0.9330488385658711,4.014149716886878,-0.11140161580257117
1772699415758665700,3.154665771484375,-1.0747183129906654,2.37808756070137,0.38297764614410695
1772699415768623900,3.164623779296875,-0.8781295729637145,0.14077625191211698,0.8562165779717266
1772699415778581000,3.1745810546875,-0.6477589017789811,-2.6882471503287553,1.324570441171527
1772699415788539000,3.184538818359375,-0.6470153899352997,-5.821285648092627,1.711184032665193
1772699415798495700,3.194495849609375,-0.6105623398721218,-9.253118291860819,2.052002672189474
1772699415808452900,3.204452880859375,0.10574468601942062,-13.246762396335601,2.37968242867738
1772699415818410800,3.21441064453125,0.8512497493445873,-18.06073504219055,2.815901178078353
1772699415828367600,3.22436767578125,1.25960609382987,-23.032481836509703,2.6910028787776827
1772699415838325800,3.23432568359375,1.180989068710804,-26.899987286233902,1.7728240578897296
1772699415848283000,3.244282958984375,0.6097988812189549,-29.567177035486697,0.9996518930252641
1772699415858240000,3.254239990234375,-0.39222938554883,-30.503782178294657,0.6747553375151008
1772699415868198000,3.264197998046875,-1.0754150630831718,-28.612318443107604,1.2001114100709558
1772699415878154800,3.27415478515625,0.4721827738381922,-24.508970101332665,2.5222233521744606
1772699415888111900,3.28411181640625,4.193678016519546,-19.445123699986933,4.036263933539391
1772699415898069800,3.29406982421875,7.794484832680225,-14.333982463502883,5.40088932172358
1772699415908027000,3.30402685546875,9.274643894970417,-10.022722023653984,6.103806120166182
1772699415917984800,3.31398486328125,8.03539669855833,-6.877449482738971,5.71260607766509
1772699415927942000,3.32394189453125,4.843600891399383,-4.3885202051401135,4.44833783724308
1772699415937898800,3.333898681640625,0.9583153817694634,-2.413071195799112,2.5303087512135503
1772699415947857000,3.34385693359375,-2.7397359300255775,-0.517901007309556,0.26226713565578685
1772699415957813800,3.353813720703125,-5.214197121810913,1.7291823384314775,-1.7410194912195205
1772699415967771600,3.363771728515625,-6.216564484339952,4.092407845565677,-3.0987466443225737
1772699415977728800,3.373728759765625,-5.574503428876399,6.545901652646064,-3.8543586756423114
1772699415987686000,3.383685791015625,-3.9868975528240203,9.008545565387607,-4.0682761516109105
1772699415997643800,3.393643798828125,-2.2637340362906455,11.339212618744373,-3.6903015013858673
1772699416007601000,3.403600830078125,-0.9539479803401977,13.13684071689248,-2.9711592520684
1772699416017558800,3.413558837890625,-0.4776422082878649,14.166113622003794,-2.0965788960188627
1772699416027516000,3.423515869140625,-0.7086090187348425,14.54551392111778,-1.2150491592228412
1772699416037472800,3.43347265625,-0.9795066383581608,14.80490369297266,-0.5487858653189615
1772699416047430700,3.4434306640625,-0.8331037787359208,14.921887565886973,-0.34584976555928587
1772699416057387800,3.4533876953125,-0.15309212812781334,14.567185654699802,-0.5810502315206453
1772699416067346000,3.463345947265625,0.44416419198010115,13.62660810112953,-0.9805867617450654
1772699416077303000,3.473302978515625,0.44241764057371763,12.26918460714817,-1.4377207272723316
1772699416087259600,3.483259765625,0.0024853688086383043,10.761938800489903,-1.935887691064179
1772699416097217800,3.4932177734375,-0.26963525327099486,9.24627061792314,-2.209914475558698
1772699416107175000,3.5031748046875,-0.11653028392791748,7.943792181572317,-2.3092628846697507
1772699416117131800,3.5131318359375,0.11669979527592658,6.88448303463757,-2.0578956757508218
1772699416127089700,3.523089599609375,0.23131401644945143,6.2049108714252705,-1.426657627596706
1772699416137046800,3.533046875,0.2452232993364334,5.996709435015917,-0.8472799689307808
1772699416147005000,3.5430048828125,0.4100549650967121,6.048947571775317,-0.3883804915683344
1772699416156961800,3.5529619140625,0.7237772156417369,6.202947462397813,0.002046484201028943
1772699416166918700,3.562918701171875,0.8778875809013843,6.436800057414174,0.41260154430698603
1772699416176876800,3.572876708984375,0.7293126379370689,6.714950059318542,0.7651565431259572
1772699416186834000,3.582833984375,0.6463666437029838,7.082860411646962,0.6894916458107531
1772699416196791800,3.592791748046875,0.6614741964638233,7.377491592752933,0.2861134550642222
1772699416206748700,3.602748779296875,0.5345522823810577,7.575115521046519,-0.2856374167839996
1772699416216705800,3.612705810546875,0.3183738757431507,7.7986214940935366,-0.7897428489804268
1772699416226664000,3.622663818359375,0.039243630629777905,8.013338011485338,-1.1460480306457728
1772699416236620800,3.632620849609375,-0.17593290548920631,8.099376711037754,-1.3338333595573901
1772699416246579000,3.642578857421875,-0.38128129055500026,8.08588477678001,-1.3810381783246992
1772699416256535800,3.652535888671875,-0.579645808082819,8.01659496745467,-1.1957744037799536
1772699416266493000,3.662492919921875,-0.6801590231895447,7.976588535758853,-0.9909330183882266
1772699416276450800,3.672450927734375,-0.6511994706869125,8.005418324401974,-0.978935195145756
1772699416286407700,3.68240771484375,-0.5086345817923545,7.992108176451921,-0.8448567603718489
1772699416296364800,3.69236474609375,-0.3164285868942737,7.808828999853134,-0.46520544563885774
1772699416306322700,3.70232275390625,-0.1601601302852854,7.207516134363413,-0.08398119163387455
1772699416316279800,3.71227978515625,-0.039471667231991886,6.236492589125037,0.2026272530062124
1772699416326238000,3.722238037109375,0.005224383584782481,4.6633775952398775,0.33373934878781436
1772699416336194800,3.73219482421875,-0.2886415853023529,2.4262246918827293,0.5471652418471873
1772699416346152000,3.74215185546875,-0.6645441054284572,-0.07694236990511417,0.7147326892469078
1772699416356109800,3.75210986328125,0.07654540647678076,-2.0856874996483326,0.3315348975460976
1772699416366067000,3.76206689453125,2.856978161615133,-3.859894974720478,-0.5610324026254937
1772699416376024800,3.77202490234375,6.064286010682583,-6.268011178460717,-1.3080623739629984
1772699416385981700,3.781981689453125,7.929101392918825,-9.443765951400994,-1.5330683763094246
1772699416395938800,3.791938720703125,8.368126431912183,-14.324040915203094,-0.8141735258817673
1772699416405897000,3.80189697265625,6.234865864706039,-21.129255182814596,0.9710038176245986
1772699416415853800,3.811853759765625,0.65236033115983,-27.03477335782051,4.0041400717869395
1772699416425811700,3.821811767578125,-6.549924332290887,-29.580296044778823,6.100625736564398
1772699416435768800,3.831768798828125,-11.678918036329746,-28.089512712621687,6.995706444329023
1772699416445726000,3.841725830078125,-12.283159356486797,-22.734674947977066,5.807009869980812
1772699416455683600,3.85168359375,-8.17088887258768,-16.078340743756293,3.5936604515373705
1772699416465640700,3.861640625,-1.7647919964730738,-9.877715002304315,2.096597016197443
1772699416475597300,3.871597412109375,4.1552644069731235,-4.593125662884116,1.1755750077728182
1772699416485555200,3.88155517578125,7.339365567976236,-0.6214788706839084,0.8192579164739697
1772699416495512300,3.89151220703125,7.1805989013433456,1.298600133612752,0.5553484021723271
1772699416505470200,3.90147021484375,4.709688095515967,1.204586801919341,-0.009623203065618872
1772699416515427300,3.91142724609375,1.766581802499294,0.19333704475462435,-1.1135573083423078
1772699416525384200,3.92138427734375,-0.7708551931589841,-1.020040966385603,-2.3254389434449374
1772699416535342300,3.93134228515625,-2.8341104962468147,-2.0740537604779004,-3.3625355279192326
1772699416545299200,3.94129931640625,-4.15715475076437,-2.4272908598095175,-3.9858100498482583
1772699416555257300,3.95125732421875,-4.197141893237829,-1.8195394857048988,-4.285491792342066
1772699416565214500,3.96121435546875,-3.1999796981364486,-0.8114858942329883,-3.9956531062096357
1772699416575171300,3.97117138671875,-2.0258564235419034,-0.01587327643632889,-3.276928790043294
1772699416585129200,3.981129150390625,-1.1189560986459255,0.8733651350408792,-2.4196733705431224
1772699416595086300,3.99108642578125,-0.43466450569629667,1.880398151293397,-1.3183490824386477
1772699416605044500,4.00104443359375,0.10292089730296283,2.6206734972715378,-0.16712386835068463
1772699416615001000,4.0110009765625,0.3632102118134498,3.135866999188065,0.7887620212495327
1772699416624958200,4.020958251953125,0.3779115218609571,3.7143338266193866,1.3532729501731693
1772699416634916400,4.030916259765625,0.17040738353338092,4.220012481215596,1.6695932543873786
1772699416644873500,4.04087353515625,0.0001572181220166385,4.513152546980977,1.7053034501940012
1772699416654830300,4.050830322265625,0.06260112534165382,4.723030976691842,1.426140910246223
1772699416664788200,4.060788330078125,0.2879915969610214,4.721720478615165,0.9991860290791839
1772699416674745300,4.070745361328125,0.615002368146181,4.790909165653586,0.680430168281123
1772699416684703200,4.080703125,0.8840040179550647,4.804260230135918,0.492124432224594
1772699416694660000,4.09066015625,0.8220400214731692,4.485779971408844,0.5524590739389881
1772699416704617200,4.1006171875,0.651088411527872,4.16515451734662,0.6696371907837688
1772699416714575400,4.110575439453125,0.641314036488533,3.9153947436243293,0.6515840860903263
1772699416724532500,4.120532470703125,0.6614449703693389,3.352387935653329,0.4746250158911571
1772699416734490400,4.130490478515625,0.7308078449308871,2.667476749500632,0.14200847885450346
1772699416744447200,4.140447265625,0.9302186566412448,1.9446575652360916,-0.21157441997379065
1772699416754404400,4.150404296875,1.3698960220634937,1.2909265302449464,-0.4498448679650202
1772699416764362200,4.1603623046875,1.948114427691698,0.761019443321228,-0.5953004733324051
1772699416774319000,4.170319091796875,2.4853005657076834,0.1696498796969652,-0.6632394525706767
1772699416784276200,4.180276123046875,2.9075790525615215,-0.47382279613018036,-0.6505450253661722
1772699416794234400,4.190234375,2.782995226037502,-1.6173650545001028,-0.5530229548994452
1772699416804191200,4.200191162109375,1.8434218810737133,-3.285923705142736,-0.462456877583079
1772699416814149400,4.2101494140625,-0.036939436207478867,-5.082057765340805,-0.09846402749195694
1772699416824106200,4.220106201171875,-2.5393366917997597,-6.108682786291837,0.4057352022014558
1772699416834063400,4.2300634765625,-4.784921907937527,-5.613772193947434,0.63561260997653
1772699416844021200,4.240021240234375,-5.693121624994277,-4.027388553166389,0.4711222319345921
1772699416853978400,4.249978271484375,-4.950032975161076,-1.9584061046034096,0.2908220346139744
1772699416863936300,4.259936279296875,-2.8221874187409877,0.06705576666295528,0.25490159359015524
1772699416873893400,4.269893310546875,-0.34726792526151984,1.986647279703617,0.5584383310116827
1772699416883850200,4.279850341796875,1.6766227146327495,3.5878731003075837,0.9784112443368881
1772699416893808400,4.289808349609375,2.9348937604665752,4.438058435291052,1.4132710534095763
1772699416903765200,4.29976513671875,3.3864825129568574,4.400196029886603,1.722000902494788
1772699416913723100,4.30972314453125,2.974481089967489,3.7076527414202687,1.6580191364496946
1772699416923680300,4.31968017578125,1.9124352115452288,2.8312024998456238,1.236710225280374
1772699416933637400,4.329637451171875,0.48997083438728,1.828218466722965,0.7744523408681154
1772699416943595300,4.33959521484375,-0.6989642614245414,0.9871446589559316,0.1301854459233582
1772699416953552100,4.34955224609375,-1.2276397607266902,0.4409633135795593,-0.6835038766380399
1772699416963509200,4.35950927734375,-1.2958756770849227,0.07245441083610057,-1.4378256489515304
1772699416973467400,4.36946728515625,-1.094691425961256,-0.37282267428934573,-1.8155070153184234
1772699416983424300,4.37942431640625,-1.0274854371726512,-0.9218751911878585,-1.8763015296295285
1772699416993382100,4.389382080078125,-1.1580945153355597,-1.2383838575810193,-1.8049303839854896
1772699417003339300,4.39933935546875,-1.387152277290821,-1.3520961614787579,-1.5117840346097946
1772699417013296400,4.40929638671875,-1.426997965466976,-1.2555647094845772,-1.2468953730776906
1772699417023254300,4.419254150390625,-1.2019243047118187,-0.9967068525493145,-0.9716144238036125
1772699417033211100,4.429211181640625,-0.8861492132902145,-0.6902391031771898,-0.4977003691934049
1772699417043169300,4.439169189453125,-0.7150222467780113,-0.4344534932941198,0.15356544472798705
1772699417053126400,4.44912646484375,-0.7691045500993728,-0.1886819124251604,0.9192303757674991
1772699417063083300,4.459083251953125,-0.8727801016945391,0.00940378816127777,1.5457698908418416
1772699417073041200,4.469041259765625,-0.5899357314288616,0.2995633768111467,1.7658298150882124
1772699417082998300,4.478998291015625,-0.025181239540316164,0.6475058768659829,1.5494729831434786
1772699417092955400,4.488955322265625,0.630787966299057,0.9445283370226621,1.1628878870919346
1772699417102913300,4.498913330078125,1.0409189192414283,1.1428671355873345,0.8594075560327619
1772699417112870100,4.5088701171875,1.0346668731093407,1.1171259606093167,0.6485070167325436
1772699417122828300,4.518828369140625,0.7707669303536414,0.9451531909227371,0.618680179876089
1772699417132785400,4.528785400390625,0.3433563047757372,0.6265893455654382,0.643637803260982
1772699417142742300,4.5387421875,-0.01824530279729515,0.3467506599217653,0.48760070772245523
1772699417152700200,4.5487001953125,-1.005821886897087,0.2748088747829199,0.43278249134197827
1772699417162657300,4.5586572265625,-3.517245904898643,0.3147130151480436,-0.1856885758280754
1772699417172615200,4.568615234375,-0.07759528085589408,-1.256284840452671,-4.002287429657578
1772699417182572300,4.578572265625,0.212832603341341,-1.0327753602743148,-2.941135285204649
1772699417192529200,4.588529052734375,0.46260932819843287,0.4318044400900602,-0.8714752296410501
1772699417202487300,4.5984873046875,1.4924118101418018,0.9810124398112297,0.7467644888017326
1772699417212444400,4.6084443359375,0.7357049693226814,1.0726759935081005,0.6113744599726051
1772699417222401300,4.6184013671875,0.007030629289150238,0.9371621921688318,0.3562667493510991
1772699417232359200,4.628359130859375,0.27268410118129105,0.8423281917423009,0.5229148168835789
1772699417242316300,4.63831640625,0.3220563636481762,0.8754068700015545,0.5121110257312655
1772699417252274200,4.648274169921875,0.6340495984435081,0.9180033181905746,0.1109569407749921
1772699417262231300,4.658231201171875,0.8265326567173004,0.9880535904943942,-0.3435683035586029
1772699417272188200,4.668188232421875,0.7894213619410991,1.0006541288703679,-0.6856392812315374
1772699417282146300,4.678146240234375,0.4982721411993727,0.9064572573035955,-0.6755981450147927
1772699417292103200,4.688103271484375,0.23147538102362303,0.32753859445154665,-0.04951010003499686
1772699417302061300,4.698061279296875,0.5638952447107062,0.9289584274470806,-0.7390376208767294
1772699417312018400,4.708018310546875,-0.36689156720731403,0.28054829521775243,0.009120075849071145
1772699417321975300,4.717975341796875,0.023895218317769466,0.2422778935343027,-0.08838540880903602
1772699417331933200,4.72793310546875,0.15778229523804038,-0.43296588508486744,0.19731825987789778
1772699417341890300,4.737890380859375,-0.9041747723896056,-2.026444452562928,1.4928069469392298
1772699417351847200,4.74784716796875,-0.10533325567431748,-1.6352666218936442,0.9895407603122294
1772699417361805300,4.757805419921875,-0.3828537275034934,-2.1183120043992996,0.01904708416685462
1772699417371762200,4.76776220703125,0.12920271849632262,-1.6351006176769733,-0.9122922470673919
1772699417381720300,4.77772021484375,-0.09252521202750504,-1.31287065102756,-0.6400525651853531
1772699417391677400,4.787677490234375,-0.12800802881903944,-0.9593594109296798,-0.292243555317074
1772699417401634300,4.79763427734375,-0.27129772485680875,-0.6986410208195447,0.20609701147601006
1772699417411592200,4.80759228515625,-0.3654711424827575,-0.48057168586850163,0.38758777028806507
1772699417421549300,4.81754931640625,-0.27850831382274627,-0.30199381882846354,0.3595164718620479
1772699417431507500,4.827507568359375,-0.22840313397143036,-0.20081775589883327,0.3074245386403054
1772699417441464000,4.837464111328125,-0.25878070004582404,-0.1353951433956623,0.1751666703570634
1772699417451421200,4.847421142578125,-0.21308738182000814,0.010580430725216866,0.12155812202729284
1772699417461379300,4.85737939453125,-0.17982699031829832,0.08130524128973483,0.11828063472658396
1772699417471336400,4.86733642578125,-0.14351645399834959,0.07116320198178291,-0.11026048294343054
1772699417481294000,4.877294189453125,-0.061160899938084184,0.057124155235290526,-0.2610265792764723
1772699417491252200,4.887252197265625,-0.01988426564335823,0.06247077696025371,-0.3175293146777898
1772699417501209300,4.897209228515625,-0.0024350816598162055,0.07281155371069908,-0.3742090140812099
1772699417511167000,4.9071669921875,0.028708208090066908,0.06679623894393444,-0.38733956768065686
1772699417521124000,4.9171240234375,0.04636193820238113,0.10469196209609508,-0.3338313379202038
1772699417531081200,4.927081298828125,0.034106833996903146,0.12736731976270674,-0.24032588268369434
1772699417541039000,4.9370390625,-0.008590133690834044,0.15449790327250956,-0.10560264720022677
1772699417550996000,4.946995849609375,0.0007727288050111382,0.1777326483875513,-0.10797602526806294
1772699417560954000,4.9569541015625,0.014544073659181594,0.26340017654001713,-0.16325820589847861
1772699417570911200,4.9669111328125,0.008920973080396652,0.31976094618737694,-0.07975070532411337
1772699417580868400,4.976868408203125,-0.030403321570158005,-0.01783084024488926,0.19736001666039227
1772699417590826200,4.986826171875,-0.061779296697909006,0.0822217716127634,0.570622470606491
1772699417600783000,4.996783203125,-0.2528267600774765,0.4252957888484001,0.35495384012162684
1772699417610740200,5.006740234375,-0.14846036754078232,0.2201823815822601,0.23658121626265347
1772699417620698000,5.016697998046875,-0.027390704883867873,0.17941548690795897,0.12700257810354232
1772699417630655000,5.026655029296875,-0.05850012433019001,-0.06350187357366084,0.0005984408171847462
1772699417640613000,5.036613037109375,-0.022855979497102087,-0.35618250513374805,0.07926836516726761
1772699417650570200,5.0465703125,0.10312368986606597,0.014215572357177733,-0.059359951463341706
1772699417660527000,5.056527099609375,0.22907179048061369,0.10808394262194633,-0.11043368408586829
1772699417670485200,5.0664853515625,0.30306524745225905,0.4539291781365871,0.19057455777134746
1772699417680442000,5.076442138671875,0.1632195543885231,0.7075082178860902,0.2791465751936659
1772699417690400000,5.08639990234375,0.04070961152911186,0.7119798103421926,0.3440401953866705
1772699417700357000,5.096357177734375,0.04496259279847145,0.6690835024237632,0.36064627960957585
1772699417710314200,5.106314208984375,0.06330021352171898,0.4266314213663339,0.23370394379328935
1772699417720272100,5.116272216796875,0.08892857577502727,0.182272629904747,0.14069876622911542
1772699417730229200,5.126229248046875,0.13594108684062958,0.06617196956574917,0.15264551687147468
1772699417740186000,5.13618603515625,0.14841069231331347,0.02254851641654968,0.2083228708319366
1772699417750144300,5.146144287109375,0.15975217053890228,-0.009253566035628318,0.17730616660378873
1772699417760101000,5.15610107421875,0.15998773286044596,-0.050206338670849796,0.1367662856183946
1772699417770059000,5.16605908203125,0.1439911223053932,-0.08192717258036136,0.14283420735523103
1772699417780016000,5.17601611328125,0.1350327398240566,-0.08650339445471764,0.18388905212543905
1772699417789973200,5.18597314453125,0.12860300817065873,-0.0484112719476223,0.2715051570624113
1772699417799931100,5.19593115234375,0.09561084828423336,-0.06226560977697372,0.3144224347036332
1772699417809888000,5.205887939453125,0.04019523226618767,-0.14440671736896038,0.35031668184027076
1772699417819845000,5.21584521484375,0.017766533703869207,-0.24179683201909064,0.35394393242672084
1772699417829803300,5.22580322265625,-0.0006160769385751336,-0.23997312372326848,0.23331227759458123
1772699417839760100,5.235760009765625,0.06975918040275574,-0.12319266442656517,0.09215681710653006
1772699417849718000,5.245718017578125,0.12613984206067397,-0.0404769718170166,-0.005585691177845001
1772699417859675100,5.255675048828125,0.11346505113840102,0.03272621155977249,-0.07199241934753954
1772699417869632300,5.26563232421875,0.11188801108002662,0.06929799263179302,-0.036557241090014576
1772699417879590400,5.27559033203125,0.03641922085881233,0.015384031614661215,-0.021025690763443707
1772699417889547000,5.285547119140625,0.0366191456113942,-0.036925416815280915,-0.08877141245193779
1772699417899505200,5.295505126953125,0.05730888241874054,-0.029145430463552474,-0.14571232007481158
1772699417909462300,5.305462158203125,0.06706687257885932,0.031740707653760906,-0.14934271246641873
1772699417919419100,5.315419189453125,0.04817919849110767,0.038139468780159946,-0.14232486959360538
1772699417929377000,5.325376953125,0.03545242165327072,0.07210311318039894,-0.16301424107477067
1772699417939334100,5.335334228515625,0.00500058476626873,0.04117372190952301,-0.06693528208844363
1772699417949291300,5.345291259765625,-0.03683540044426918,-0.027694062611460683,-0.023154884811863303
1772699417959249200,5.355249267578125,-0.03867489083111286,-0.05986790098547935,-0.011954020633362233
1772699417969206000,5.3652060546875,-0.03446397687150165,-0.019995909324288366,-0.04768010812886059
1772699417979164200,5.3751640625,0.07282793858991936,0.12599895401895045,-0.12285035379491746
1772699417989121300,5.385121337890625,0.29037120384024456,0.3412175757139921,-0.20609175077900288
1772699417999078400,5.395078369140625,0.2149228353525512,0.533904632127285,-0.12600622400995343
1772699418009036000,5.4050361328125,0.06715160998655482,0.49632045914232725,0.051688795780949294
1772699418018993200,5.4149931640625,-0.013514146089553833,0.30132103413343425,0.18120748489126562
1772699418028951300,5.424951416015625,-0.02939676574296318,-0.015731237617135047,0.19455000074096024
1772699418038908200,5.434908203125,-0.032568372383248057,-0.29386311934292314,0.1475926904613152
1772699418048865000,5.444864990234375,0.041843583995103836,-0.32958792819678784,-0.04958893742486834
1772699418058823200,5.4548232421875,0.10911036306023597,-0.16262918727993964,-0.17343418400865046
1772699418068780300,5.4647802734375,0.0894371098190546,-0.07103752977550029,-0.15545100274626164
1772699418078737200,5.474737060546875,0.09854922155737876,-0.011063245806097983,-0.0723283002384007
1772699418088695000,5.484695068359375,0.11959321516249329,0.04467676159441471,-0.039700178758241236
1772699418098652200,5.494652099609375,0.16635960597991942,0.09609539866447449,-0.03921685222070664
