time,seconds_elapsed,z,y,x
1772699412691787300,0.087787353515625,0.2586318850517273,0.035961855202913284,0.6642574667930603
1772699412701745200,0.0977451171875,0.16080676019191742,0.08973778784275055,0.4439848065376282
1772699412711702300,0.107702392578125,0.0786069706082344,0.14800935983657837,0.19985337555408478
1772699412721660400,0.117660400390625,0.00638340599834919,0.19921067357063293,-0.02438211441040039
1772699412731617300,0.1276171875,-0.03506923094391823,0.23537054657936096,-0.20751598477363586
1772699412741574400,0.137574462890625,-0.06012878566980362,0.2726888954639435,-0.3182031512260437
1772699412751532300,0.1475322265625,-0.06169978156685829,0.2781502306461334,-0.35060155391693115
1772699412761489400,0.157489501953125,-0.04347047582268715,0.2647082805633545,-0.3098788857460022
1772699412771447300,0.167447265625,-0.02271246537566185,0.2127779722213745,-0.21754203736782074
1772699412781404200,0.177404052734375,-0.0020534885115921497,0.13084307312965393,-0.07942512631416321
1772699412791361300,0.187361328125,0.008387967012822628,0.042351555079221725,0.08013896644115448
1772699412801319400,0.1973193359375,0.018739107996225357,-0.028687922284007072,0.2257121354341507
1772699412811276500,0.207276611328125,0.005907198414206505,-0.07392038404941559,0.338273823261261
1772699412821234200,0.217234130859375,-0.01034045685082674,-0.1156630888581276,0.41158366203308105
1772699412831191300,0.22719140625,-0.01539034303277731,-0.14635442197322845,0.4340575337409973
1772699412841148400,0.2371484375,-0.025567904114723206,-0.16340897977352142,0.413357675075531
1772699412851106300,0.247106201171875,-0.043438781052827835,-0.16532139480113983,0.3479357659816742
1772699412861063200,0.257063232421875,-0.06729001551866531,-0.14040547609329224,0.26381614804267883
1772699412871021300,0.267021240234375,-0.0917426273226738,-0.1081029400229454,0.1755739152431488
1772699412880978400,0.276978515625,-0.1049828827381134,-0.08933597803115845,0.0918404683470726
1772699412890935300,0.286935302734375,-0.08900205790996552,-0.09186677634716034,0.030792828649282455
1772699412900893200,0.29689306640625,-0.05079306289553642,-0.11020897328853607,-0.0038328669033944607
1772699412910850300,0.306850341796875,-0.02026364766061306,-0.1322420984506607,-0.018816078081727028
1772699412920808200,0.31680810546875,-0.009298144839704037,-0.12912365794181824,-0.020036328583955765
1772699412930765300,0.326765380859375,-0.019187526777386665,-0.09987975656986237,-0.012757908552885056
1772699412940722200,0.33672216796875,-0.03630552813410759,-0.050583843141794205,0.00043698912486433983
1772699412950680300,0.346680419921875,-0.06628020107746124,0.02045544423162937,0.05701211839914322
1772699412960637400,0.356637451171875,-0.12465930730104446,0.05034159868955612,0.1553795337677002
1772699412970595300,0.36659521484375,-0.13808350265026093,-0.038508109748363495,0.2633345127105713
1772699412980552400,0.376552490234375,0.029970472678542137,-0.09760976582765579,0.47579267621040344
1772699412990510300,0.38651025390625,0.2552608549594879,0.0012414413504302502,0.7284142971038818
1772699413000467200,0.39646728515625,0.34594523906707764,-0.10046020150184631,0.9030342102050781
1772699413010424300,0.40642431640625,0.274263858795166,-0.09283077716827393,0.9235906004905701
1772699413020382500,0.416382568359375,0.0973350927233696,-0.06883901357650757,0.6155214905738831
1772699413030339300,0.42633935546875,-0.2873702645301819,0.0001270035281777382,0.22991040349006653
1772699413040297200,0.436297119140625,-0.4165082275867462,0.05270683392882347,-0.1189202070236206
1772699413050254300,0.44625439453125,-0.31145399808883667,0.09946927428245544,-0.225436270236969
1772699413060211500,0.45621142578125,-0.26431816816329956,0.0366402268409729,-0.32983288168907166
1772699413070169000,0.466169189453125,-0.2142414152622223,0.006241840310394764,-0.3110046088695526
1772699413080126200,0.476126220703125,-0.16007855534553528,-0.03146486356854439,-0.25731369853019714
1772699413090084400,0.48608447265625,-0.1391431838274002,-0.10897696018218994,-0.2508384883403778
1772699413100041500,0.49604150390625,-0.09063928574323654,-0.01835412159562111,-0.22734007239341736
1772699413109998300,0.505998291015625,-0.0896320790052414,0.06956934928894043,-0.17383185029029846
1772699413119956200,0.515956298828125,-0.14583708345890045,0.10238465666770935,-0.16256920993328094
1772699413129913300,0.525913330078125,-0.19481714069843292,0.08547890931367874,-0.199777290225029
1772699413139871200,0.535871337890625,-0.2397502213716507,0.18295347690582275,-0.20233559608459473
1772699413149828400,0.545828369140625,-0.30168551206588745,0.5322547554969788,-0.06719215214252472
1772699413159785200,0.55578515625,-0.3626798987388611,0.47445809841156006,0.26895368099212646
1772699413169743400,0.565743408203125,-0.40735840797424316,0.30779772996902466,0.48562633991241455
1772699413179700500,0.575700439453125,-0.4238710403442383,0.31254926323890686,0.48027369379997253
1772699413189658400,0.585658447265625,-0.43518733978271484,0.3031727969646454,0.3912855088710785
1772699413199615200,0.595615234375,-0.44464507699012756,0.2536635994911194,0.3096320927143097
1772699413209572400,0.605572265625,-0.4456392228603363,0.2197815328836441,0.24203838407993317
1772699413219530200,0.6155302734375,-0.43286219239234924,0.1798565536737442,0.2076842188835144
1772699413229487400,0.6254873046875,-0.3924329876899719,0.13324403762817383,0.2197379469871521
1772699413239445200,0.6354453125,-0.34183982014656067,0.07572897523641586,0.22696827352046967
1772699413249402400,0.64540234375,-0.2972675561904907,0.0036886041052639484,0.202362522482872
1772699413259359200,0.655359130859375,-0.24040007591247559,-0.045756347477436066,0.13310107588768005
1772699413269317400,0.6653173828125,-0.18107549846172333,-0.027105964720249176,0.031120123341679573
1772699413279274200,0.675274169921875,-0.15423692762851715,0.03053463064134121,-0.07309739291667938
1772699413289232100,0.685232177734375,-0.14690950512886047,0.045972976833581924,-0.13557648658752441
1772699413299189200,0.695189208984375,-0.12250403314828873,0.04185306653380394,-0.1449097990989685
1772699413309146400,0.705146484375,-0.07680977880954742,0.04059738665819168,-0.10461856424808502
1772699413319104500,0.7151044921875,-0.06629829108715057,0.02027164027094841,-0.010079925879836082
1772699413329061400,0.725061279296875,-0.10139502584934235,-0.019658466801047325,0.11573632061481476
1772699413339019300,0.735019287109375,-0.16400650143623352,-0.034808602184057236,0.20749586820602417
1772699413348976400,0.744976318359375,-0.22915513813495636,-0.029151514172554016,0.24527573585510254
1772699413358934500,0.7549345703125,-0.2717641294002533,-0.013144593685865402,0.24369704723358154
1772699413368891100,0.76489111328125,-0.27001523971557617,-0.01011817716062069,0.22653163969516754
1772699413378848300,0.77484814453125,-0.26363879442214966,-0.043019965291023254,0.21040844917297363
1772699413388806400,0.784806396484375,-0.25882086157798767,-0.07333765923976898,0.20478197932243347
1772699413398763500,0.794763427734375,-0.25023671984672546,-0.07905328273773193,0.20617836713790894
1772699413408721200,0.80472119140625,-0.24717383086681366,-0.051868803799152374,0.18957142531871796
1772699413418678300,0.81467822265625,-0.25557848811149597,0.01055349875241518,0.13809676468372345
1772699413428635400,0.824635498046875,-0.2725934088230133,0.07820258289575577,0.024504950270056725
1772699413438593300,0.83459326171875,-0.2516111433506012,0.14233149588108063,-0.11518128216266632
1772699413448550100,0.844550048828125,-0.17302580177783966,0.19422824680805206,-0.24156877398490906
1772699413458508300,0.85450830078125,-0.06153258681297302,0.21888279914855957,-0.3408154547214508
1772699413468465400,0.86446533203125,0.046585358679294586,0.22936072945594788,-0.3859429955482483
1772699413478422300,0.87442236328125,0.09825149178504944,0.24317212402820587,-0.40804043412208557
1772699413488380200,0.884380126953125,0.0568862110376358,0.2856822907924652,-0.41195714473724365
1772699413498337300,0.894337158203125,-0.07829562574625015,0.3562958538532257,-0.41557225584983826
1772699413508295400,0.90429541015625,-0.2523374557495117,0.40146225690841675,-0.4161224663257599
1772699413518252000,0.914251953125,-0.41102322936058044,0.43395382165908813,-0.3849583864212036
1772699413528209200,0.924209228515625,-0.5095372796058655,0.4091464579105377,-0.31339311599731445
1772699413538167300,0.934167236328125,-0.535886287689209,0.35301148891448975,-0.2272939532995224
1772699413548124400,0.94412451171875,-0.5019011497497559,0.31891050934791565,-0.15420402586460114
1772699413558082000,0.95408203125,-0.4225967228412628,0.3017919361591339,-0.10525518655776978
1772699413568039200,0.9640390625,-0.3237558901309967,0.33558955788612366,-0.09834800660610199
1772699413577996300,0.973996337890625,-0.2429463118314743,0.41303229331970215,-0.11589435487985611
1772699413587954200,0.9839541015625,-0.19481953978538513,0.46983352303504944,-0.12782877683639526
1772699413597911000,0.9939111328125,-0.1413368582725525,0.4774325489997864,-0.08600246906280518
1772699413607869200,1.003869140625,-0.08489063382148743,0.4458823502063751,0.03558334708213806
1772699413617826300,1.013826416015625,-0.04474108666181564,0.37628304958343506,0.21389152109622955
1772699413627783400,1.023783447265625,-0.04022463411092758,0.27403897047042847,0.42076346278190613
1772699413637741000,1.033740966796875,-0.085126593708992,0.1574772149324417,0.6322940587997437
1772699413647698200,1.0436982421875,-0.17628233134746552,0.07738584280014038,0.8544331192970276
1772699413657656300,1.05365625,-0.3015172481536865,0.03336381912231445,1.0908929109573364
1772699413667613200,1.06361328125,-0.41931018233299255,0.020608607679605484,1.2585763931274414
1772699413677570000,1.073570068359375,-0.47815245389938354,0.01112399436533451,1.2543925046920776
1772699413687528200,1.083528076171875,-0.3900340497493744,0.02471756748855114,1.0183026790618896
1772699413697485300,1.0934853515625,-0.17000339925289154,0.06934574246406555,0.5152705311775208
1772699413707443200,1.103443115234375,0.1361836940050125,0.0977768525481224,-0.1391056925058365
1772699413717400300,1.113400390625,0.4803895652294159,0.045276813209056854,-0.6194480061531067
1772699413727357200,1.123357177734375,0.6901662349700928,-0.16099247336387634,-0.6455832123756409
1772699413737315000,1.133315185546875,0.6614562273025513,-0.4609311521053314,-0.2357454150915146
1772699413747272200,1.143272216796875,0.38674694299697876,-0.6942089200019836,0.3361351191997528
1772699413757230300,1.153230224609375,-0.02047036774456501,-0.8434295058250427,0.7710520029067993
1772699413767187200,1.163187255859375,-0.3976067304611206,-0.8597499132156372,0.9366641044616699
1772699413777144300,1.173144287109375,-0.5920904874801636,-0.8091181516647339,0.8231469392776489
1772699413787102200,1.183102294921875,-0.5814825892448425,-0.7277865409851074,0.44993388652801514
1772699413797059300,1.193059326171875,-0.4414210617542267,-0.577484667301178,-0.10423216223716736
1772699413807017000,1.203016845703125,-0.30441901087760925,-0.3449225425720215,-0.7420272827148438
1772699413816974000,1.21297412109375,-0.18794909119606018,-0.10459094494581223,-1.2901500463485718
1772699413826932200,1.22293212890625,-0.03589058294892311,0.08911674469709396,-1.5679153203964233
1772699413836889300,1.232889404296875,0.21496078372001648,0.2052745670080185,-1.5184296369552612
1772699413846846200,1.24284619140625,0.5092139840126038,0.2411782443523407,-1.2101106643676758
1772699413856804000,1.25280419921875,0.7318878769874573,0.2275015413761139,-0.8039025068283081
1772699413866761200,1.26276123046875,0.8291637897491455,0.19688929617404938,-0.43536680936813354
1772699413876719400,1.27271923828125,0.77474445104599,0.1127936840057373,-0.12885916233062744
1772699413886676200,1.28267626953125,0.5657848715782166,-0.015492912381887436,0.14393296837806702
1772699413896633000,1.292633056640625,0.24010637402534485,-0.16026882827281952,0.3816440999507904
1772699413906591200,1.30259130859375,-0.15838775038719177,-0.2762702703475952,0.5655791163444519
1772699413916548400,1.31254833984375,-0.5441378951072693,-0.2962680757045746,0.6759512424468994
1772699413926506200,1.32250634765625,-0.8633483648300171,-0.24335002899169922,0.7195850014686584
1772699413936463000,1.332463134765625,-1.0387859344482422,-0.16389599442481995,0.6921818256378174
1772699413946420200,1.342420166015625,-1.0691001415252686,-0.11350686103105545,0.5749614238739014
1772699413956378000,1.352378173828125,-0.9523360133171082,-0.06963984668254852,0.3524390161037445
1772699413966335200,1.362335205078125,-0.7077808380126953,-0.016690075397491455,0.0789337232708931
1772699413976293000,1.372293212890625,-0.4263174831867218,0.04910413175821304,-0.18241937458515167
1772699413986250200,1.382250244140625,-0.15457570552825928,0.0976405143737793,-0.3488834798336029
1772699413996207400,1.392207275390625,0.054173242300748825,0.1339646875858307,-0.4585002064704895
1772699414006165200,1.402165283203125,0.1830284297466278,0.1449398398399353,-0.5284630060195923
1772699414016122000,1.4121220703125,0.2253471165895462,0.1461009979248047,-0.5395274758338928
1772699414026079200,1.422079345703125,0.1803588718175888,0.11217924952507019,-0.5100436210632324
1772699414036037000,1.432037109375,0.09322261810302734,0.0716550201177597,-0.43354174494743347
1772699414045994200,1.441994140625,-0.002633335068821907,0.03384719043970108,-0.32684993743896484
1772699414055952400,1.451952392578125,-0.08515346795320511,0.0047344909980893135,-0.2028062343597412
1772699414065909200,1.4619091796875,-0.15390831232070923,0.008053322322666645,-0.07322774082422256
1772699414075867100,1.4718671875,-0.2020777314901352,0.04106220230460167,0.04906412214040756
1772699414085824300,1.48182421875,-0.21154233813285828,0.08206050097942352,0.13689996302127838
1772699414095781000,1.491781005859375,-0.15120045840740204,0.12742461264133453,0.18522696197032928
1772699414105739000,1.501739013671875,-0.04575846344232559,0.1498177945613861,0.2134239822626114
1772699414115696000,1.511696044921875,0.05497831478714943,0.14826053380966187,0.21323956549167633
1772699414125654300,1.521654296875,0.14948990941047668,0.1464352160692215,0.19269275665283203
1772699414135611400,1.531611328125,0.22610370814800262,0.14259175956249237,0.16037224233150482
1772699414145568300,1.541568359375,0.2902451455593109,0.13814455270767212,0.17250773310661316
1772699414155526100,1.551526123046875,0.3146950602531433,0.11299030482769012,0.20019012689590454
1772699414165483300,1.561483154296875,0.30758681893348694,0.08006270229816437,0.228704035282135
1772699414175440400,1.5714404296875,0.27538472414016724,0.04004373773932457,0.23272636532783508
1772699414185398000,1.58139794921875,0.2296808958053589,0.004711047280579805,0.25179219245910645
1772699414195355100,1.591355224609375,0.19841404259204865,-0.02912037819623947,0.3078632950782776
1772699414205313300,1.601313232421875,0.1584935188293457,-0.04776783287525177,0.43310537934303284
1772699414215270400,1.6112705078125,0.10658314824104309,-0.06250540167093277,0.5948500037193298
1772699414225227000,1.62122705078125,0.01848498173058033,-0.07762151211500168,0.7775726318359375
1772699414235185200,1.63118505859375,-0.10552804172039032,-0.055131904780864716,0.955208420753479
1772699414245142300,1.641142333984375,-0.22607897222042084,0.001952155027538538,1.1282209157943726
1772699414255100200,1.65110009765625,-0.28528663516044617,0.057512879371643066,1.279448390007019
1772699414265057000,1.66105712890625,-0.22784356772899628,0.1515328586101532,1.2727701663970947
1772699414275015200,1.67101513671875,-0.047902267426252365,0.14960625767707825,0.9013049602508545
1772699414284972300,1.68097216796875,0.2761450409889221,0.005652280058711767,0.14751160144805908
1772699414294929200,1.69092919921875,0.5693321824073792,-0.4022427201271057,-0.7462707757949829
1772699414304887300,1.70088720703125,0.5636851787567139,-0.8356770277023315,-1.715653657913208
1772699414314844200,1.71084423828125,0.2743018567562103,-0.9488038420677185,-2.524228572845459
1772699414324802000,1.720802001953125,-0.13903406262397766,-0.7213560342788696,-2.5925252437591553
1772699414334759200,1.73075927734375,-0.5718318223953247,-0.34352758526802063,-1.7040592432022095
1772699414344716300,1.74071630859375,-0.9047008752822876,-0.028325950726866722,-0.43119561672210693
1772699414354674200,1.750674072265625,-1.0100903511047363,0.3537444770336151,0.883815348148346
1772699414364631300,1.76063134765625,-0.9272722005844116,0.5625278353691101,1.6979080438613892
1772699414374589200,1.770589111328125,-0.688068687915802,0.5720148682594299,1.658828616142273
1772699414384546300,1.78054638671875,-0.34477099776268005,0.4012761116027832,0.8800766468048096
1772699414394503200,1.790503173828125,0.022898133844137192,0.19162879884243011,-0.1094813123345375
1772699414404461000,1.8004609375,0.32788360118865967,0.05990166589617729,-0.7810359597206116
1772699414414418200,1.810418212890625,0.5112238526344299,0.03036538138985634,-0.9226904511451721
1772699414424376300,1.820376220703125,0.578451931476593,0.055971141904592514,-0.6984584331512451
1772699414434333200,1.830333251953125,0.5168846845626831,0.05442894995212555,-0.40949389338493347
1772699414444290000,1.8402900390625,0.35928836464881897,0.002036319114267826,-0.24615636467933655
1772699414454248200,1.850248291015625,0.1642528623342514,-0.0877535492181778,-0.23016944527626038
1772699414464205300,1.860205322265625,-0.02893790602684021,-0.14736229181289673,-0.27213260531425476
1772699414474161700,1.87016162109375,-0.18637946248054504,-0.16142430901527405,-0.31083765625953674
1772699414484119300,1.880119384765625,-0.28961315751075745,-0.14909468591213226,-0.29449597001075745
1772699414494076400,1.890076416015625,-0.3020693063735962,-0.14302903413772583,-0.21862685680389404
1772699414504034600,1.90003466796875,-0.22452978789806366,-0.13665156066417694,-0.10602840781211853
1772699414513991700,1.90999169921875,-0.1212950199842453,-0.12734165787696838,-0.00427097175270319
1772699414523948500,1.919948486328125,-0.024326397106051445,-0.0932404175400734,0.07418148964643478
1772699414533906400,1.929906494140625,0.08992696553468704,-0.042863305658102036,0.1255982518196106
1772699414543863600,1.939863525390625,0.21945779025554657,0.01902322843670845,0.12634579837322235
1772699414553821400,1.949821533203125,0.36893540620803833,0.07657500356435776,0.08787191659212112
1772699414563778600,1.959778564453125,0.5126137137413025,0.1232365220785141,0.04162212833762169
1772699414573735400,1.9697353515625,0.6244298219680786,0.1500626504421234,0.002352804411202669
1772699414583693600,1.979693603515625,0.6893110871315002,0.16106444597244263,0.0010443935170769691
1772699414593650700,1.989650634765625,0.6931496858596802,0.15150251984596252,0.020405199378728867
1772699414603608600,1.999608642578125,0.6351444125175476,0.12712422013282776,0.06023916229605675
1772699414613565400,2.0095654296875,0.5132102966308594,0.09981583058834076,0.11441398411989212
1772699414623522600,2.0195224609375,0.3440910577774048,0.048577141016721725,0.16441962122917175
1772699414633480400,2.02948046875,0.1840270608663559,-0.02473083883523941,0.22652114927768707
1772699414643437600,2.0394375,0.0797608494758606,-0.09877817332744598,0.29496490955352783
1772699414653395500,2.0493955078125,0.03371959924697876,-0.16545549035072327,0.3750305771827698
1772699414663352600,2.0593525390625,0.02956053987145424,-0.21670296788215637,0.48358768224716187
1772699414673309400,2.069309326171875,0.07397998124361038,-0.24901200830936432,0.5876292586326599
1772699414683267600,2.079267578125,0.15066570043563843,-0.25521209836006165,0.6517059803009033
1772699414693224400,2.089224365234375,0.19524671137332916,-0.23626895248889923,0.673073947429657
1772699414703182300,2.099182373046875,0.1738295704126358,-0.19500993192195892,0.6323891282081604
1772699414713139500,2.109139404296875,0.07570572197437286,-0.15148867666721344,0.5177509188652039
1772699414723096600,2.1190966796875,-0.00885656476020813,-0.1347070336341858,0.4452192187309265
1772699414733054700,2.1290546875,-0.03592711314558983,-0.1779143214225769,0.4325472116470337
1772699414743011600,2.139011474609375,0.0075268871150910854,-0.25010594725608826,0.39718496799468994
1772699414752969500,2.148969482421875,0.06701547652482986,-0.3473149836063385,0.2970857322216034
1772699414762926600,2.158926513671875,0.09035541862249374,-0.3943477272987366,0.16536925733089447
1772699414772883500,2.168883544921875,0.06733988225460052,-0.3862627148628235,0.0730111226439476
1772699414782841300,2.17884130859375,0.004650936461985111,-0.31525540351867676,0.0926591232419014
1772699414792798500,2.188798583984375,-0.04448169469833374,-0.2428739368915558,0.20344287157058716
1772699414802756600,2.198756591796875,-0.03056907467544079,-0.18079137802124023,0.35819220542907715
1772699414812713700,2.208713623046875,0.02552107721567154,-0.17538221180438995,0.4701588749885559
1772699414822670300,2.21867041015625,0.12082549184560776,-0.23134587705135345,0.4392283856868744
1772699414832628500,2.22862841796875,0.21786069869995117,-0.2513997256755829,0.18779395520687103
1772699414842585600,2.238585693359375,0.25923049449920654,-0.2016763836145401,-0.19602347910404205
1772699414852543500,2.24854345703125,0.14558333158493042,-0.056808747351169586,-0.5976417064666748
1772699414862500400,2.258500244140625,-0.11250706762075424,0.15479883551597595,-1.0038484334945679
1772699414872457500,2.26845751953125,-0.35737892985343933,0.39314231276512146,-1.3517274856567383
1772699414882415600,2.27841552734375,-0.3707887530326843,0.6444504261016846,-1.418777346611023
1772699414892372700,2.288372802734375,-0.1059025228023529,0.7232771515846252,-1.1967679262161255
1772699414902330600,2.29833056640625,0.2885153591632843,0.6260563135147095,-0.9455307126045227
1772699414912287500,2.30828759765625,0.5396693348884583,0.42290544509887695,-0.911648690700531
1772699414922244600,2.31824462890625,0.5347260236740112,0.24150851368904114,-1.0055320262908936
1772699414932202500,2.328202392578125,0.2938513159751892,0.14887240529060364,-1.0342867374420166
1772699414942159400,2.338159423828125,-0.05853072553873062,0.12687788903713226,-0.8796125054359436
1772699414952117500,2.348117431640625,-0.3936605155467987,0.11129091680049896,-0.6096071004867554
1772699414962074600,2.35807470703125,-0.6453244686126709,0.06505177915096283,-0.3844967186450958
1772699414972031500,2.368031494140625,-0.7731508016586304,0.014731851406395435,-0.2868642807006836
1772699414981989600,2.37798974609375,-0.7687610983848572,-0.03370625525712967,-0.29675421118736267
1772699414991946500,2.387946533203125,-0.6198808550834656,-0.07897572964429855,-0.2827577292919159
1772699415001904400,2.397904296875,-0.3966435194015503,-0.12060067057609558,-0.19102329015731812
1772699415011861500,2.407861572265625,-0.18849481642246246,-0.15106509625911713,-0.11318254470825195
1772699415021818600,2.417818603515625,-0.062365658581256866,-0.1560737043619156,-0.1139545887708664
1772699415031776500,2.427776611328125,-0.03146236762404442,-0.13866108655929565,-0.15977267920970917
1772699415041733400,2.4377333984375,-0.06271323561668396,-0.1103985533118248,-0.19969293475151062
1772699415051691500,2.44769140625,-0.10180678218603134,-0.08729629218578339,-0.19873878359794617
1772699415061648600,2.457648681640625,-0.1202787384390831,-0.10084405541419983,-0.1569812148809433
1772699415071605500,2.46760546875,-0.11562222987413406,-0.14535152912139893,-0.10113555192947388
1772699415081563400,2.4775634765625,-0.11359263211488724,-0.1842067837715149,-0.04617936164140701
1772699415091520500,2.4875205078125,-0.12551961839199066,-0.22360236942768097,0.03485654667019844
1772699415101477600,2.4974775390625,-0.1465519368648529,-0.26037877798080444,0.11212896555662155
1772699415111435500,2.507435546875,-0.14694982767105103,-0.2774339020252228,0.18048979341983795
1772699415121392400,2.517392333984375,-0.1331932693719864,-0.2772682309150696,0.23783990740776062
1772699415131350500,2.5273505859375,-0.11132708191871643,-0.27271905541419983,0.301144003868103
1772699415141307600,2.5373076171875,-0.07224759459495544,-0.2587374746799469,0.34928596019744873
1772699415151264500,2.547264404296875,-0.036288000643253326,-0.24821823835372925,0.38899606466293335
1772699415161222400,2.557222412109375,-0.0018421406857669353,-0.2287401556968689,0.42328745126724243
1772699415171179500,2.567179443359375,0.03973379731178284,-0.19167640805244446,0.476044625043869
1772699415181137700,2.5771376953125,0.09797739237546921,-0.1567533016204834,0.5526126027107239
1772699415191094500,2.587094482421875,0.14745788276195526,-0.13073451817035675,0.6209132671356201
1772699415201051400,2.597051513671875,0.18528489768505096,-0.1043282225728035,0.6782580614089966
1772699415211009500,2.607009521484375,0.21751177310943604,-0.07881639897823334,0.7138544321060181
1772699415220966700,2.616966552734375,0.2307135909795761,-0.04038486257195473,0.7472528219223022
1772699415230924500,2.626924560546875,0.22091293334960938,0.012222887016832829,0.8009914755821228
1772699415240881400,2.63688134765625,0.20680083334445953,0.05959785729646683,0.8799930810928345
1772699415250838500,2.646838623046875,0.2076072096824646,0.07978600263595581,0.9887843132019043
1772699415260796700,2.656796630859375,0.22000183165073395,0.06942631304264069,1.103399634361267
1772699415270753500,2.66675341796875,0.19033291935920715,0.030294299125671387,1.2398185729980469
1772699415280710400,2.67671044921875,0.11649064719676971,-0.00922062061727047,1.4069913625717163
1772699415290668500,2.68666845703125,0.03975377231836319,-0.047262512147426605,1.5954668521881104
1772699415300625700,2.696625732421875,0.037686895579099655,0.00015640119090676308,1.7518913745880127
1772699415310583600,2.70658349609375,0.10422569513320923,0.12092065811157227,1.5944575071334839
1772699415320540400,2.71654052734375,0.2673525810241699,0.20200087130069733,0.8613054752349854
1772699415330498600,2.72649853515625,0.43474289774894714,0.04319867864251137,-0.3205409049987793
1772699415340455400,2.736455322265625,0.43330293893814087,-0.2883848249912262,-1.5488200187683105
1772699415350412500,2.74641259765625,0.1417216956615448,-0.528553307056427,-2.4672603607177734
1772699415360370700,2.75637060546875,-0.337980717420578,-0.45440050959587097,-2.7466814517974854
1772699415370327600,2.76632763671875,-0.7791293263435364,-0.1462937593460083,-2.078313112258911
1772699415380284700,2.77628466796875,-1.0592920780181885,0.1336129903793335,-0.6501211524009705
1772699415390242600,2.78624267578125,-1.1190592050552368,0.18174350261688232,1.0567294359207153
1772699415400199400,2.796199462890625,-1.037378191947937,0.1495480239391327,2.204977512359619
1772699415410157600,2.806157470703125,-0.7884416580200195,0.10499819368124008,2.300652503967285
1772699415420114400,2.816114501953125,-0.4471277594566345,0.03513122349977493,1.4536492824554443
1772699415430071600,2.826071533203125,-0.10017453879117966,-0.037585705518722534,0.271840900182724
1772699415440029700,2.83602978515625,0.15579065680503845,-0.030305158346891403,-0.6344367861747742
1772699415449986600,2.845986572265625,0.30667442083358765,0.029127568006515503,-0.9801940321922302
1772699415459944400,2.8559443359375,0.3520485758781433,0.05437060445547104,-0.8649609088897705
1772699415469901600,2.865901611328125,0.3187406659126282,-0.013475787825882435,-0.5604144930839539
1772699415479859000,2.87585888671875,0.236655130982399,-0.17918086051940918,-0.2751758098602295
1772699415489816800,2.88581689453125,0.09278688579797745,-0.35834765434265137,-0.1444818079471588
1772699415499773700,2.895773681640625,-0.1014811247587204,-0.48494473099708557,-0.1397685408592224
1772699415509731800,2.90573193359375,-0.3067115247249603,-0.5400598645210266,-0.1592414826154709
1772699415519689000,2.91568896484375,-0.45544666051864624,-0.5565901398658752,-0.15064240992069244
1772699415529645800,2.925645751953125,-0.49483609199523926,-0.5481807589530945,-0.11790420860052109
1772699415539603700,2.935603759765625,-0.4266067147254944,-0.5415905117988586,-0.07645237445831299
1772699415549560800,2.945560791015625,-0.26905307173728943,-0.5251670479774475,-0.006076120771467686
1772699415559518700,2.955518798828125,-0.08936053514480591,-0.48560765385627747,0.0779532715678215
1772699415569475800,2.965475830078125,0.06952846050262451,-0.41859373450279236,0.1470242440700531
1772699415579432700,2.9754326171875,0.21299053728580475,-0.3327922821044922,0.19287322461605072
1772699415589390800,2.985390869140625,0.3382149934768677,-0.23440812528133392,0.21944202482700348
1772699415599347700,2.99534765625,0.42127928137779236,-0.13896256685256958,0.23535919189453125
1772699415609305900,3.005305908203125,0.455197811126709,-0.053253479301929474,0.2336224466562271
1772699415619263000,3.015262939453125,0.46312153339385986,0.020189043134450912,0.21927092969417572
1772699415629219800,3.0252197265625,0.48669636249542236,0.07878652215003967,0.19784411787986755
1772699415639177700,3.035177734375,0.5144947171211243,0.109018474817276,0.16336177289485931
1772699415649134800,3.045134765625,0.5610222816467285,0.1257399171590805,0.1325969249010086
1772699415659091700,3.055091796875,0.6030005812644958,0.13585354387760162,0.13069863617420197
1772699415669049900,3.0650498046875,0.6111477017402649,0.1282130479812622,0.14495624601840973
1772699415679006700,3.0750068359375,0.5632315278053284,0.11527220904827118,0.16025078296661377
1772699415688964900,3.08496484375,0.4927276372909546,0.1024758517742157,0.17559854686260223
1772699415698922000,3.094921875,0.4211360216140747,0.09803316742181778,0.17734690010547638
1772699415708878800,3.10487890625,0.3572896420955658,0.09913627803325653,0.18026484549045563
1772699415718836700,3.114836669921875,0.3101692497730255,0.10849116742610931,0.18684712052345276
1772699415728793900,3.1247939453125,0.26682281494140625,0.12248749285936356,0.18968570232391357
1772699415738752000,3.134751953125,0.2539413869380951,0.12770357728004456,0.2020116150379181
1772699415748708600,3.14470849609375,0.2791956067085266,0.10847285389900208,0.2221510410308838
1772699415758665700,3.154665771484375,0.33225056529045105,0.06967832148075104,0.1976797878742218
1772699415768623900,3.164623779296875,0.3924582898616791,0.027305707335472107,0.14505940675735474
1772699415778581000,3.1745810546875,0.43670591711997986,-0.02473565563559532,0.11235205084085464
1772699415788539000,3.184538818359375,0.4677636921405792,-0.10900411009788513,0.10548955947160721
1772699415798495700,3.194495849609375,0.48470166325569153,-0.19182656705379486,0.02125457301735878
1772699415808452900,3.204452880859375,0.5079033970832825,-0.24076612293720245,-0.13306128978729248
1772699415818410800,3.21441064453125,0.4649338126182556,-0.24170728027820587,-0.2512670159339905
1772699415828367600,3.22436767578125,0.3185521066188812,-0.3013317883014679,-0.18968433141708374
1772699415838325800,3.23432568359375,0.014503812417387962,-0.36021509766578674,0.04005805402994156
1772699415848283000,3.244282958984375,-0.43240606784820557,-0.3853936493396759,0.46765583753585815
1772699415858240000,3.254239990234375,-0.8804528117179871,-0.3111646771430969,0.9948456287384033
1772699415868198000,3.264197998046875,-1.1508342027664185,-0.05865839868783951,1.3060539960861206
1772699415878154800,3.27415478515625,-1.1474127769470215,0.32902780175209045,1.1243535280227661
1772699415888111900,3.28411181640625,-0.8398678302764893,0.7330367565155029,0.48779094219207764
1772699415898069800,3.29406982421875,-0.33777597546577454,1.0720158815383911,-0.36241042613983154
1772699415908027000,3.30402685546875,0.17876112461090088,1.322147250175476,-1.1221339702606201
1772699415917984800,3.31398486328125,0.6080959439277649,1.3743973970413208,-1.577864170074463
1772699415927942000,3.32394189453125,0.8515853881835938,1.248480200767517,-1.62441885471344
1772699415937898800,3.333898681640625,0.857541024684906,1.0208805799484253,-1.307762861251831
1772699415947857000,3.34385693359375,0.6332823634147644,0.7442271709442139,-0.7695627808570862
1772699415957813800,3.353813720703125,0.2731334865093231,0.5288403034210205,-0.2082614153623581
1772699415967771600,3.363771728515625,-0.11989954859018326,0.38561463356018066,0.19674211740493774
1772699415977728800,3.373728759765625,-0.43777763843536377,0.22160306572914124,0.38055962324142456
1772699415987686000,3.383685791015625,-0.6040025949478149,0.09612352401018143,0.3529188632965088
1772699415997643800,3.393643798828125,-0.6393744349479675,-0.006191393360495567,0.19487887620925903
1772699416007601000,3.403600830078125,-0.5987734794616699,-0.04382431134581566,0.003555736504495144
1772699416017558800,3.413558837890625,-0.4867081940174103,-0.015653125941753387,-0.1477147489786148
1772699416027516000,3.423515869140625,-0.3203980624675751,0.02302374318242073,-0.24647745490074158
1772699416037472800,3.43347265625,-0.12511271238327026,0.029168985784053802,-0.3370124101638794
1772699416047430700,3.4434306640625,0.05149427056312561,0.002978934906423092,-0.4802660048007965
1772699416057387800,3.4533876953125,0.17681676149368286,-0.03249623253941536,-0.6507301330566406
1772699416067346000,3.463345947265625,0.22727015614509583,-0.08035285025835037,-0.7349611520767212
1772699416077303000,3.473302978515625,0.19633062183856964,-0.1296255886554718,-0.6948574185371399
1772699416087259600,3.483259765625,0.09943040460348129,-0.16131846606731415,-0.5889650583267212
1772699416097217800,3.4932177734375,-0.03877407684922218,-0.18402032554149628,-0.48274433612823486
1772699416107175000,3.5031748046875,-0.15220263600349426,-0.19361327588558197,-0.39050209522247314
1772699416117131800,3.5131318359375,-0.19790062308311462,-0.19491156935691833,-0.28931716084480286
1772699416127089700,3.523089599609375,-0.1816403865814209,-0.1776636838912964,-0.1832103729248047
1772699416137046800,3.533046875,-0.12220528721809387,-0.14239224791526794,-0.11413302272558212
1772699416147005000,3.5430048828125,-0.014294815249741077,-0.09848122298717499,-0.10557294636964798
1772699416156961800,3.5529619140625,0.15365079045295715,-0.05930691584944725,-0.1208493709564209
1772699416166918700,3.562918701171875,0.36307215690612793,-0.019274476915597916,-0.12048051506280899
1772699416176876800,3.572876708984375,0.5476987361907959,0.013286927714943886,-0.13174141943454742
1772699416186834000,3.582833984375,0.6684285998344421,0.05154326185584068,-0.1548212617635727
1772699416196791800,3.592791748046875,0.700938880443573,0.07763105630874634,-0.1570945382118225
1772699416206748700,3.602748779296875,0.6718131899833679,0.09958670288324356,-0.12045855820178986
1772699416216705800,3.612705810546875,0.5952686667442322,0.10614633560180664,-0.05187470465898514
1772699416226664000,3.622663818359375,0.4845879375934601,0.09726999700069427,0.03612155094742775
1772699416236620800,3.632620849609375,0.36537793278694153,0.057323113083839417,0.14437691867351532
1772699416246579000,3.642578857421875,0.2647029161453247,0.013446012511849403,0.2638079524040222
1772699416256535800,3.652535888671875,0.17266488075256348,-0.021613704040646553,0.3929275870323181
1772699416266493000,3.662492919921875,0.06538484990596771,-0.04886682704091072,0.5117694735527039
1772699416276450800,3.672450927734375,-0.02688968926668167,-0.06667564809322357,0.6063281893730164
1772699416286407700,3.68240771484375,-0.07071047276258469,-0.09475693106651306,0.6769306659698486
1772699416296364800,3.69236474609375,-0.08206566423177719,-0.11184829473495483,0.708950400352478
1772699416306322700,3.70232275390625,-0.09847947210073471,-0.10856606811285019,0.7105143666267395
1772699416316279800,3.71227978515625,-0.11680787801742554,-0.0968921035528183,0.7312907576560974
1772699416326238000,3.722238037109375,-0.12072115391492844,-0.09130765497684479,0.7813758254051208
1772699416336194800,3.73219482421875,-0.10159912705421448,-0.09060804545879364,0.8818116188049316
1772699416346152000,3.74215185546875,-0.07971327006816864,-0.11526784300804138,0.9512713551521301
1772699416356109800,3.75210986328125,-0.10630013793706894,-0.12055448442697525,0.741398274898529
1772699416366067000,3.76206689453125,-0.21807247400283813,-0.15547813475131989,0.1304502934217453
1772699416376024800,3.77202490234375,-0.41928279399871826,-0.3326137661933899,-0.7281591892242432
1772699416385981700,3.781981689453125,-0.6723979115486145,-0.4660077393054962,-1.592741847038269
1772699416395938800,3.791938720703125,-0.8863458633422852,-0.4219135046005249,-2.1753342151641846
1772699416405897000,3.80189697265625,-0.9399222731590271,-0.27986982464790344,-2.148001194000244
1772699416415853800,3.811853759765625,-0.9140413999557495,-0.024983737617731094,-1.428154706954956
1772699416425811700,3.821811767578125,-0.8603094816207886,0.2111787348985672,-0.25745469331741333
1772699416435768800,3.831768798828125,-0.9122655987739563,0.45726707577705383,0.9062463045120239
1772699416445726000,3.841725830078125,-0.9891880750656128,0.7012972831726074,1.5397878885269165
1772699416455683600,3.85168359375,-0.9320859313011169,0.9408859014511108,1.4488537311553955
1772699416465640700,3.861640625,-0.6205565333366394,1.049242377281189,0.6898680925369263
1772699416475597300,3.871597412109375,-0.07882189005613327,0.9288817048072815,-0.33890727162361145
1772699416485555200,3.88155517578125,0.5537273287773132,0.6631650924682617,-1.283519983291626
1772699416495512300,3.89151220703125,1.0788263082504272,0.4134596288204193,-1.8696694374084473
1772699416505470200,3.90147021484375,1.3486374616622925,0.20976057648658752,-2.072538375854492
1772699416515427300,3.91142724609375,1.3348217010498047,0.08966001123189926,-1.9681754112243652
1772699416525384200,3.92138427734375,1.0906533002853394,0.020734481513500214,-1.5972044467926025
1772699416535342300,3.93134228515625,0.7106083035469055,-0.06201525777578354,-1.0620073080062866
1772699416545299200,3.94129931640625,0.27942463755607605,-0.1587071716785431,-0.5288564562797546
1772699416555257300,3.95125732421875,-0.10020843893289566,-0.20575164258480072,-0.12181650102138519
1772699416565214500,3.96121435546875,-0.3799074590206146,-0.2354421615600586,0.17651529610157013
1772699416575171300,3.97117138671875,-0.5598098039627075,-0.2553181052207947,0.364528626203537
1772699416585129200,3.981129150390625,-0.5893072485923767,-0.27307984232902527,0.47211936116218567
1772699416595086300,3.99108642578125,-0.47595304250717163,-0.27817845344543457,0.5043872594833374
1772699416605044500,4.00104443359375,-0.25198328495025635,-0.2928352355957031,0.49886658787727356
1772699416615001000,4.0110009765625,0.01982213370501995,-0.3043728470802307,0.49645403027534485
1772699416624958200,4.020958251953125,0.2905800938606262,-0.28794318437576294,0.5376586318016052
1772699416634916400,4.030916259765625,0.506977915763855,-0.23483523726463318,0.6048720479011536
1772699416644873500,4.04087353515625,0.6288018226623535,-0.13350224494934082,0.6616307497024536
1772699416654830300,4.050830322265625,0.6642365455627441,-0.024560045450925827,0.6865316033363342
1772699416664788200,4.060788330078125,0.6623477339744568,0.060816690325737,0.6673368811607361
1772699416674745300,4.070745361328125,0.664188802242279,0.12008187919855118,0.6161543726921082
1772699416684703200,4.080703125,0.687353789806366,0.15552110970020294,0.569541871547699
1772699416694660000,4.09066015625,0.7273115515708923,0.17564687132835388,0.5062675476074219
1772699416704617200,4.1006171875,0.7691459059715271,0.1870429813861847,0.44573554396629333
1772699416714575400,4.110575439453125,0.7820689082145691,0.19814729690551758,0.39832383394241333
1772699416724532500,4.120532470703125,0.7620086073875427,0.21024343371391296,0.3583221733570099
1772699416734490400,4.130490478515625,0.7106530070304871,0.21482379734516144,0.3178535997867584
1772699416744447200,4.140447265625,0.66554194688797,0.2321663647890091,0.24323934316635132
1772699416754404400,4.150404296875,0.6245377659797668,0.2654076814651489,0.09326475858688354
1772699416764362200,4.1603623046875,0.5886834263801575,0.2693629264831543,-0.1614408791065216
1772699416774319000,4.170319091796875,0.5733417868614197,0.19554544985294342,-0.5022802352905273
1772699416784276200,4.180276123046875,0.5536471605300903,0.08952927589416504,-0.8175145983695984
1772699416794234400,4.190234375,0.48125627636909485,-0.021159425377845764,-1.0354509353637695
1772699416804191200,4.200191162109375,0.37200355529785156,-0.10383164137601852,-1.0248503684997559
1772699416814149400,4.2101494140625,0.24139416217803955,-0.11131885647773743,-0.7177955508232117
1772699416824106200,4.220106201171875,0.05696441978216171,-0.07378804683685303,-0.14981842041015625
1772699416834063400,4.2300634765625,-0.16392268240451813,-0.03842899948358536,0.5189258456230164
1772699416844021200,4.240021240234375,-0.37835004925727844,0.05105406790971756,1.0450413227081299
1772699416853978400,4.249978271484375,-0.5261626839637756,0.16869494318962097,1.2635211944580078
1772699416863936300,4.259936279296875,-0.5266894102096558,0.27124395966529846,1.211881160736084
1772699416873893400,4.269893310546875,-0.37363412976264954,0.34027203917503357,0.9453701972961426
1772699416883850200,4.279850341796875,-0.10046463459730148,0.3544735610485077,0.5546314716339111
1772699416893808400,4.289808349609375,0.23132793605327606,0.35056084394454956,0.12559807300567627
1772699416903765200,4.29976513671875,0.5365632176399231,0.3291320502758026,-0.24079793691635132
1772699416913723100,4.30972314453125,0.7623203992843628,0.2988937199115753,-0.4759124517440796
1772699416923680300,4.31968017578125,0.8999819159507751,0.28892141580581665,-0.5301101207733154
1772699416933637400,4.329637451171875,0.9385985732078552,0.28852248191833496,-0.4743310511112213
1772699416943595300,4.33959521484375,0.8672891855239868,0.26640981435775757,-0.3494527339935303
1772699416953552100,4.34955224609375,0.7073482275009155,0.20315521955490112,-0.24113239347934723
1772699416963509200,4.35950927734375,0.5254562497138977,0.11562715470790863,-0.16241547465324402
1772699416973467400,4.36946728515625,0.32787156105041504,0.01670829951763153,-0.10763105750083923
1772699416983424300,4.37942431640625,0.12913604080677032,-0.09063725173473358,-0.04200044274330139
1772699416993382100,4.389382080078125,-0.0623665414750576,-0.17261333763599396,0.05217239633202553
1772699417003339300,4.39933935546875,-0.24659602344036102,-0.23501017689704895,0.15053027868270874
1772699417013296400,4.40929638671875,-0.4175403416156769,-0.25061923265457153,0.22435256838798523
1772699417023254300,4.419254150390625,-0.5493026375770569,-0.24086351692676544,0.2554878294467926
1772699417033211100,4.429211181640625,-0.6058000326156616,-0.20329751074314117,0.266297310590744
1772699417043169300,4.439169189453125,-0.562007486820221,-0.16989995539188385,0.2938709557056427
1772699417053126400,4.44912646484375,-0.4379832446575165,-0.11841706186532974,0.34028345346450806
1772699417063083300,4.459083251953125,-0.2906961143016815,-0.06188449636101723,0.3592385947704315
1772699417073041200,4.469041259765625,-0.16532431542873383,-0.009739271365106106,0.31468871235847473
1772699417082998300,4.478998291015625,-0.0782695859670639,0.051932089030742645,0.21118411421775818
1772699417092955400,4.488955322265625,-0.023815395310521126,0.11419839411973953,0.08660890907049179
1772699417102913300,4.498913330078125,0.017170872539281845,0.15174534916877747,-0.03665325418114662
1772699417112870100,4.5088701171875,0.08613582700490952,0.1715097278356552,-0.11752866208553314
1772699417122828300,4.518828369140625,0.17481964826583862,0.1754881888628006,-0.14659236371517181
1772699417132785400,4.528785400390625,0.24997298419475555,0.1737651228904724,-0.1629665344953537
1772699417142742300,4.5387421875,0.3803384304046631,-0.07513339072465897,0.1334366351366043
1772699417152700200,4.5487001953125,0.2745954990386963,-0.04664582386612892,0.3778514266014099
1772699417162657300,4.5586572265625,-0.09502750635147095,0.002114967443048954,0.2522701323032379
1772699417172615200,4.568615234375,-0.3230883777141571,-0.1418328881263733,0.17398999631404877
1772699417182572300,4.578572265625,-0.2390962839126587,-0.13513152301311493,0.019540565088391304
1772699417192529200,4.588529052734375,-0.06469865888357162,-0.12771275639533997,-0.14452213048934937
1772699417202487300,4.5984873046875,-0.006053985096514225,-0.1100916787981987,-0.1487341970205307
1772699417212444400,4.6084443359375,0.008062100037932396,-0.10243881493806839,-0.0936613529920578
1772699417222401300,4.6184013671875,0.021006107330322266,-0.08309517055749893,-0.034632835537195206
1772699417232359200,4.628359130859375,0.016353297978639603,-0.028901170939207077,0.01733182929456234
1772699417242316300,4.63831640625,-0.051323480904102325,0.05281685292720795,0.018599525094032288
1772699417252274200,4.648274169921875,-0.14717410504817963,0.12970951199531555,-0.03223569318652153
1772699417262231300,4.658231201171875,-0.26892662048339844,0.20711104571819305,-0.13687486946582794
1772699417272188200,4.668188232421875,-0.2846145033836365,0.4935697019100189,-0.12848378717899323
1772699417282146300,4.678146240234375,-0.09731841087341309,0.33061572909355164,0.03727855160832405
1772699417292103200,4.688103271484375,-0.08619917929172516,0.37461063265800476,-0.12316971272230148
1772699417302061300,4.698061279296875,-0.08060918748378754,0.3906819522380829,-0.202408105134964
1772699417312018400,4.708018310546875,-0.15804538130760193,-0.06700331717729568,-0.31836214661598206
1772699417321975300,4.717975341796875,-0.07649459689855576,-0.387393057346344,0.10998710989952087
1772699417331933200,4.72793310546875,0.13947072625160217,-0.43586844205856323,0.3395974040031433
1772699417341890300,4.737890380859375,0.3273703157901764,-0.41035696864128113,0.4399450123310089
1772699417351847200,4.74784716796875,0.31238365173339844,-0.3888378143310547,0.4547026455402374
1772699417361805300,4.757805419921875,0.19679979979991913,-0.27449312806129456,0.39049601554870605
1772699417371762200,4.76776220703125,0.08294034004211426,-0.11813415586948395,0.3079225718975067
1772699417381720300,4.77772021484375,0.01767982356250286,-0.0064640468917787075,0.20303568243980408
1772699417391677400,4.787677490234375,0.0021304243709892035,0.04470965638756752,0.11450900882482529
1772699417401634300,4.79763427734375,-0.0004049220588058233,0.04936596751213074,0.02033895254135132
1772699417411592200,4.80759228515625,-0.006100891157984734,0.02001819759607315,-0.08254668116569519
1772699417421549300,4.81754931640625,-0.011843164451420307,-0.00974669773131609,-0.1771858036518097
1772699417431507500,4.827507568359375,-0.0254825446754694,-0.06401179730892181,-0.26262375712394714
1772699417441464000,4.837464111328125,-0.03621590510010719,-0.10307872295379639,-0.33392423391342163
1772699417451421200,4.847421142578125,-0.055308908224105835,-0.09022364765405655,-0.4010484218597412
1772699417461379300,4.85737939453125,-0.09280940145254135,-0.06369379162788391,-0.4405192732810974
1772699417471336400,4.86733642578125,-0.12326264381408691,-0.01299945916980505,-0.47651588916778564
1772699417481294000,4.877294189453125,-0.1414637565612793,0.02684435248374939,-0.4853658080101013
1772699417491252200,4.887252197265625,-0.13445191085338593,0.04461269453167915,-0.4748002588748932
1772699417501209300,4.897209228515625,-0.11344170570373535,0.042309608310461044,-0.4418511390686035
1772699417511167000,4.9071669921875,-0.07393131405115128,0.04530566558241844,-0.4010653793811798
1772699417521124000,4.9171240234375,-0.029113519936800003,0.04361031949520111,-0.347639262676239
1772699417531081200,4.927081298828125,0.031946901232004166,0.04437864199280739,-0.28445443511009216
1772699417541039000,4.9370390625,0.06663429737091064,0.04069818556308746,-0.22104838490486145
1772699417550996000,4.946995849609375,0.0901540070772171,0.03861106559634209,-0.16185936331748962
1772699417560954000,4.9569541015625,0.049049727618694305,0.050835467875003815,-0.12357762455940247
1772699417570911200,4.9669111328125,-0.13601918518543243,0.0988037958741188,-0.07931695133447647
1772699417580868400,4.976868408203125,-0.1487477868795395,0.028389832004904747,-0.06457028537988663
1772699417590826200,4.986826171875,-0.06737835705280304,0.018668493255972862,-0.040553633123636246
1772699417600783000,4.996783203125,-0.06719991564750671,-0.015593348070979118,-0.015374748036265373
1772699417610740200,5.006740234375,-0.0849650651216507,-0.019835762679576874,-0.043557118624448776
1772699417620698000,5.016697998046875,-0.12776042520999908,0.004562443122267723,-0.1061224639415741
1772699417630655000,5.026655029296875,-0.07124682515859604,0.02734445407986641,-0.13404704630374908
1772699417640613000,5.036613037109375,-0.02792360447347164,0.04692565277218819,-0.12558232247829437
1772699417650570200,5.0465703125,-0.08834859728813171,0.08839613199234009,-0.07370582222938538
1772699417660527000,5.056527099609375,-0.12466561049222946,0.08981802314519882,-0.01737874746322632
1772699417670485200,5.0664853515625,-0.09706007689237595,0.05713357776403427,0.0009605791419744492
1772699417680442000,5.076442138671875,-0.045790769159793854,0.005594495218247175,-0.010291039943695068
1772699417690400000,5.08639990234375,0.00041294493712484837,-0.03426024317741394,-0.0398649126291275
1772699417700357000,5.096357177734375,0.04140113666653633,-0.0652482807636261,-0.057159096002578735
1772699417710314200,5.106314208984375,0.08493529260158539,-0.07453419268131256,-0.08416035771369934
1772699417720272100,5.116272216796875,0.13460032641887665,-0.07358235865831375,-0.11829044669866562
1772699417730229200,5.126229248046875,0.1759227216243744,-0.04524366185069084,-0.14575108885765076
1772699417740186000,5.13618603515625,0.20028503239154816,-0.01775604858994484,-0.16203735768795013
1772699417750144300,5.146144287109375,0.20417430996894836,-0.004546502139419317,-0.15684819221496582
1772699417760101000,5.15610107421875,0.19036026298999786,0.0017365948297083378,-0.13392437994480133
1772699417770059000,5.16605908203125,0.1610093116760254,0.011391883715987206,-0.10686001181602478
1772699417780016000,5.17601611328125,0.11550570279359818,0.02967110089957714,-0.08575555682182312
1772699417789973200,5.18597314453125,0.06496982276439667,0.0356067530810833,-0.07633648812770844
1772699417799931100,5.19593115234375,0.037145696580410004,0.033577319234609604,-0.07296451181173325
1772699417809888000,5.205887939453125,0.029246224090456963,0.03090323880314827,-0.07100629061460495
1772699417819845000,5.21584521484375,0.03129177168011665,0.022838182747364044,-0.06609352678060532
1772699417829803300,5.22580322265625,0.02639235369861126,0.03021940030157566,-0.060609545558691025
1772699417839760100,5.235760009765625,0.026362255215644836,0.03727785497903824,-0.03510291129350662
1772699417849718000,5.245718017578125,0.02066894993185997,0.03624934330582619,-0.004527959041297436
1772699417859675100,5.255675048828125,0.01869524084031582,0.03395324945449829,0.02120504528284073
1772699417869632300,5.26563232421875,0.01316332258284092,0.020390836521983147,0.02162449061870575
1772699417879590400,5.27559033203125,0.005660472437739372,0.0027538910508155823,0.011207356117665768
1772699417889547000,5.285547119140625,-0.02570117823779583,0.0027701361104846,-0.0058416686952114105
1772699417899505200,5.295505126953125,-0.06341797113418579,0.023683492094278336,-0.015045609325170517
1772699417909462300,5.305462158203125,-0.11545401066541672,0.052622999995946884,-0.026341142132878304
1772699417919419100,5.315419189453125,-0.15685470402240753,0.07159643620252609,-0.049195919185876846
1772699417929377000,5.325376953125,-0.18572257459163666,0.08163762092590332,-0.08070696890354156
1772699417939334100,5.335334228515625,-0.19515283405780792,0.08489040285348892,-0.10777853429317474
1772699417949291300,5.345291259765625,-0.1914643496274948,0.07666895538568497,-0.13261091709136963
1772699417959249200,5.355249267578125,-0.18216757476329803,0.08860079944133759,-0.13877137005329132
1772699417969206000,5.3652060546875,-0.15300674736499786,0.0762738287448883,-0.02334384061396122
1772699417979164200,5.3751640625,-0.12021097540855408,0.05854086950421333,0.10352954268455505
1772699417989121300,5.385121337890625,-0.09227361530065536,0.06163493171334267,0.13079577684402466
1772699417999078400,5.395078369140625,-0.09921111166477203,0.06818250566720963,0.11031713336706161
1772699418009036000,5.4050361328125,-0.12192042171955109,0.05671333521604538,0.06110643967986107
1772699418018993200,5.4149931640625,-0.13844187557697296,0.04878778010606766,-0.010740343481302261
1772699418028951300,5.424951416015625,-0.13239730894565582,0.04676537588238716,-0.07411079108715057
1772699418038908200,5.434908203125,-0.1294231116771698,0.06399288028478622,-0.1371794492006302
1772699418048865000,5.444864990234375,-0.11796671897172928,0.0900505781173706,-0.19541771709918976
1772699418058823200,5.4548232421875,-0.0997711792588234,0.11251108348369598,-0.244414821267128
1772699418068780300,5.4647802734375,-0.067085400223732,0.12558934092521667,-0.2725799083709717
1772699418078737200,5.474737060546875,-0.007093178108334541,0.11778894811868668,-0.2822495996952057
1772699418088695000,5.484695068359375,0.05917905271053314,0.08258409053087234,-0.25618550181388855
1772699418098652200,5.494652099609375,0.12354499846696854,0.04178818315267563,-0.22059953212738037
