time,seconds_elapsed,z,y,x
1772698501873062700,0.077062744140625,-0.06869534143037162,0.12479366988241672,0.029163367979042232
1772698501883019800,0.087019775390625,-0.10112404048144817,0.1897796445339918,0.0937422231344506
1772698501892976600,0.0969765625,-0.07924013458662665,0.23879589663743972,0.03976253993734717
1772698501902933500,0.10693359375,-0.07766951513588428,0.2788607805222273,-0.011426854954101144
1772698501912890600,0.116890625,-0.0943319143895991,0.29379005410671233,-0.00016567542310804128
1772698501922847500,0.126847412109375,-0.12442074491679668,0.36257659008502957,-0.041110703143291176
1772698501932805600,0.1368056640625,-0.12077331919199787,0.4138274693727493,-0.07013974068555981
1772698501942762500,0.146762451171875,-0.11296411587893962,0.4464753549993038,-0.11323310554604976
1772698501952719600,0.1567197265625,-0.09359949019551277,0.45243280209898945,-0.13503043826911598
1772698501962676500,0.166676513671875,-0.07319034216152503,0.4257406100064516,-0.12520820550005882
1772698501972633600,0.176633544921875,-0.060951020047068594,0.3731950147330761,-0.20736885804273186
1772698501982590700,0.1865908203125,-0.0532768230242189,0.3401660208344459,-0.16572850500214845
1772698501992547600,0.196547607421875,-0.03466973770982586,0.28850831431150437,-0.08464852383565157
1772698502002504700,0.206504638671875,-0.04301846386021934,0.18409926081001757,-0.0046965237857773895
1772698502012461600,0.216461669921875,-0.11754502306156792,0.08814940809607505,0.04094959429744631
1772698502022419700,0.226419677734375,-0.10861058771139942,0.05079319864809513,0.01763224893286824
1772698502032376600,0.23637646484375,-0.0608592501103878,0.07949322343170642,0.00044127749409526585
1772698502042333700,0.246333740234375,-0.0440191744685173,0.11676526172757148,-0.0457764299320057
1772698502052290600,0.25629052734375,-0.030291687022382392,0.09614625206887721,-0.07900288263149559
1772698502062247400,0.266247314453125,-0.0013601778707234189,0.07745616464614867,-0.044178675879165526
1772698502072204800,0.276204833984375,-0.03174013226502575,0.06323065541684628,-0.026821188767068085
1772698502082162000,0.286161865234375,-0.06642974371910094,0.11482932522892951,0.015408398870937525
1772698502092118800,0.296118896484375,-0.0727606820399873,0.2669850492894649,0.022417035523988306
1772698502102076000,0.306075927734375,-0.14824350991970858,0.3606277941048145,0.054022061034105714
1772698502112033800,0.31603369140625,-0.2722638664752245,0.31266718853414055,0.10702913633938878
1772698502121991000,0.325990966796875,-0.2851455598801374,0.25068507187366484,0.2297098691884428
1772698502131947800,0.33594775390625,-0.38428748663365836,0.1436994458824396,0.2164738459205255
1772698502141905000,0.34590478515625,-0.35314474487304687,0.03359247300028801,0.1855408379204571
1772698502151862000,0.355862060546875,-0.2709329101324081,-0.09637012395262717,0.12954828053098172
1772698502161818600,0.365818603515625,-0.15389292311668396,-0.21303017174005506,-0.048683001561090344
1772698502171775700,0.375775634765625,-0.027028294462396296,-0.2775274860918522,-0.21286540963239967
1772698502181732900,0.38573291015625,0.0710240857720375,-0.31074644960463044,-0.2854133805034682
1772698502191691000,0.39569091796875,0.12744681473970412,-0.28440964682102204,-0.2600271564429626
1772698502201647900,0.40564794921875,0.1402268013358116,-0.18931728771924972,-0.20925342968031763
1772698502211604700,0.415604736328125,0.12324176426529884,-0.07598316948413848,-0.10913085785899311
1772698502221561900,0.425561767578125,0.03664601535201072,-0.0279547593742609,-0.04372881321981549
1772698502231518700,0.435518798828125,0.05323474658131599,0.014613047242164612,-0.032295747720636425
1772698502241475800,0.445475830078125,0.033488425820635166,-0.15878478681147098,0.15067699327748268
1772698502251433000,0.455432861328125,-0.09489829783439635,-0.627785277351737,0.39124223767500366
1772698502261389800,0.465389892578125,-0.14534721308946608,-0.7101683770060538,-0.20145356958433985
1772698502271347700,0.47534765625,0.10331076427022926,-0.33094168089330195,-0.0003723952426575124
1772698502281304800,0.485304931640625,0.23370704906582832,-0.0357493587732315,0.27750817860318344
1772698502291262000,0.495261962890625,0.44171033255457876,0.14911504119038582,0.07460894025517627
1772698502301218800,0.50521875,0.5420271483063698,0.029165888729691503,-0.12595045696841553
1772698502311176000,0.515176025390625,0.55342181802392,-0.1407721602588892,-0.26636403131429104
1772698502321132800,0.5251328125,0.4619944111704826,-0.1558200917869806,-0.124839171258267
1772698502331089700,0.535089599609375,0.36807694106698036,0.02760755337178707,-0.1251688598703593
1772698502341046800,0.545046875,0.3439396576216444,0.409631771248579,-0.012587496231310068
1772698502351004000,0.55500390625,0.38176527467966076,0.5279483540713786,0.2106439707232639
1772698502360961800,0.5649619140625,0.4069090682864189,0.14818565138578413,0.34966110400836914
1772698502370918700,0.574918701171875,0.5381143222441896,-0.4429074333846569,0.1728295691790059
1772698502380875800,0.584875732421875,0.5992237477233633,-0.873033711129427,-0.18580504181459545
1772698502390833000,0.5948330078125,0.5155365797331556,-0.8143056278288364,-0.352705001748912
1772698502400789800,0.604789794921875,0.3503495977291837,-0.5597171187758445,-0.25040767970439043
1772698502410747000,0.614746826171875,0.08981533201429992,-0.3187251733988523,-0.0027482027295976878
1772698502420704000,0.6247041015625,-0.10339019531514496,0.0945125133872032,0.24238924495428799
1772698502430660600,0.63466064453125,-0.2904793221235275,0.41990357441604137,0.43851858730856325
1772698502440618800,0.64461865234375,-0.44667522495295847,0.5210439815104008,0.515751939516887
1772698502450576000,0.654575927734375,-0.5227344188153743,0.5182324312210083,0.41607053559180346
1772698502460533000,0.664532958984375,-0.5101695362746715,0.3541729188770056,0.29702063352577385
1772698502470489900,0.67448974609375,-0.39320316248442977,-0.00609247165620327,0.10450970086436719
1772698502480446700,0.68444677734375,-0.22187044426705688,-0.37136663026213645,-0.10456848184689879
1772698502490403800,0.69440380859375,-0.013570260190963744,-0.414562797909975,-0.2627709752583876
1772698502500360700,0.704360595703125,0.16239541505668312,-0.1878542294293642,-0.2864896314328536
1772698502510317800,0.71431787109375,0.21995321246888488,0.1377560273081064,-0.1751032497320324
1772698502520275000,0.72427490234375,0.22279168729782103,0.36811551951169963,0.14810337992981076
1772698502530232800,0.73423291015625,0.209988283293508,0.318490780121088,0.36761385359987614
1772698502540189700,0.744189697265625,0.27716504598762837,0.18922259517312048,0.30340708315987136
1772698502550146800,0.754146728515625,0.37697570231556893,-0.0006646013885736465,0.13889931559171526
1772698502560104000,0.76410400390625,0.3537876458864659,-0.5411234774649143,0.07027425378542393
1772698502570060800,0.774060791015625,0.24680614808108656,-1.118397295719385,-0.16034542372431604
1772698502580018000,0.784017822265625,0.1867021185184829,-0.7939309483200311,-0.4768596065428108
1772698502589974800,0.793974853515625,0.09492398026492446,0.1609925259888172,-0.5546379888806492
1772698502599931600,0.803931640625,-0.10263387878881766,1.0650842232048512,-0.35426658850982784
1772698502609889800,0.813889892578125,-0.3489560975441709,1.5661229430407284,-0.0601716879713349
1772698502619847000,0.823846923828125,-0.3327519817182794,1.6734522679030894,0.08051852962514384
1772698502629803800,0.8338037109375,-0.09168109848671592,1.4855997920393942,0.060125419410504394
1772698502639760600,0.8437607421875,0.2044096611772664,1.0304711749851703,0.2314548496922478
1772698502649717800,0.8537177734375,0.7745102085351944,0.5722545287877321,0.4695215918049216
1772698502659675000,0.8636748046875,1.0148878214061259,0.1620949342727661,0.5963850171661004
1772698502669631700,0.8736318359375,0.5637772078216076,-0.04932487966120243,0.025275712890736757
1772698502679588900,0.8835888671875,-2.068890678626299,0.5517185212373733,-1.0306113141082227
1772698502689546800,0.893546630859375,-4.366037155175209,0.9662187753051519,-0.5365252264218404
1772698502699503900,0.90350390625,-2.2844752110242843,0.29601065276563165,-0.2598215874008834
1772698502709460700,0.913460693359375,-0.2715933833351359,0.38252164600491523,-0.26865327476263046
1772698502719417900,0.92341796875,1.521333953243494,0.47458325910866256,-0.20015476194545626
1772698502729375000,0.933375,2.601805130672455,0.5037655144512653,-0.010962908970471471
1772698502739331800,0.943331787109375,2.812631654888391,0.3543897764980793,0.10557775022098793
1772698502749288700,0.953288818359375,2.216441539239883,0.13554302743375302,0.13550932609355076
1772698502759245800,0.963245849609375,1.1713865431070327,0.21388824987411498,-0.11561168951196596
1772698502769202700,0.97320263671875,0.10919687229990958,0.23376725482046604,-0.3883511558759957
1772698502779160800,0.983160888671875,-0.7045791786968708,-0.031759996876120564,-0.37019754995014514
1772698502789117700,0.99311767578125,-0.8851438356399536,-0.15973872653543947,-0.13687719864696263
1772698502799074800,1.00307470703125,-0.6047533978650346,-0.15620295362472533,0.2085282206783071
1772698502809031700,1.01303173828125,-0.1401134040892124,-0.17090017201900481,0.4785103694245219
1772698502818988800,1.02298876953125,0.22673483543302864,-0.16121289074122905,0.5043339619889855
1772698502828946000,1.03294580078125,0.32043252530600874,-0.15418050788640975,0.2804893315721303
1772698502838902800,1.04290283203125,0.2043628811597824,-0.043936172360181804,-0.029120953609421848
1772698502848860000,1.05285986328125,0.12018124418351799,0.18630875355303286,-0.21826186184845864
1772698502858816800,1.062816650390625,0.17862521331310272,0.3416752563536167,-0.2599289932981133
1772698502868775000,1.07277490234375,0.2123054011294618,0.32326340135037895,-0.3448522424219176
1772698502878731800,1.082731689453125,0.09986903545167297,0.24238544556200503,-0.7142458555780351
1772698502888689000,1.09268896484375,0.025309761290811,0.2763876684069633,-1.1937816225275397
1772698502898645800,1.102645751953125,0.07124266042616217,0.3890764744758606,-1.5066374655015766
1772698502908602600,1.1126025390625,0.1363221951127052,0.5268406850904226,-1.5707129011794925
1772698502918559700,1.122559814453125,0.051758280820585784,0.7520283276140689,-1.473436476036906
1772698502928516900,1.132516845703125,-0.019386289525963364,0.9798737911701202,-1.3189990707799792
1772698502938473700,1.1424736328125,0.07525255365464836,1.1422773530006407,-1.0646629290528595
1772698502948431600,1.152431640625,0.29101828783843664,1.39875445227921,-0.7402714004553854
1772698502958388700,1.162388671875,0.4896749932458624,1.6395926683992146,-0.2554197357127443
1772698502968345900,1.172345947265625,0.5978863981723785,1.834785570153594,0.18903887263666838
1772698502978302700,1.182302734375,0.6842214503228664,1.9602093546330928,0.466700652632676
1772698502988259800,1.192259765625,0.6170119544029236,1.9863754770249127,0.6630039633143693
1772698502998217000,1.202217041015625,0.29678624024800954,2.079654649224877,0.8105579657331109
1772698503008173800,1.212173828125,-0.06344871861431747,2.26555306841135,0.8348881048694252
1772698503018130700,1.222130615234375,-0.3169278416533023,2.4290181219935416,0.7523572673074901
1772698503028087800,1.232087890625,-0.34304661777205764,2.5908038441866634,0.5714402167301624
1772698503038046000,1.2420458984375,-0.2537573189258575,2.6649901933819056,0.28603587804967534
1772698503048002800,1.2520029296875,-0.28385544700436294,2.7384359533429143,-0.24563785322038456
1772698503057959700,1.261959716796875,-0.5181774130981415,2.7081121267497537,-0.6797174169018865
1772698503067916500,1.27191650390625,-0.8509551503121853,2.8172002779781815,-0.8178999259937554
1772698503077873700,1.281873779296875,-1.2170716049611567,3.087385584613681,-0.7885141839683055
1772698503087830500,1.29183056640625,-1.4598106862664222,3.425184291794896,-0.7024433357119559
1772698503097787600,1.30178759765625,-1.4572481423020363,3.7630040417641397,-0.39032724172193556
1772698503107744800,1.311744873046875,-1.277158117133379,3.8970471860289573,0.058399070541933176
1772698503117702400,1.321702392578125,-0.9349497037511318,3.8073172307431697,0.44739645189959554
1772698503127659500,1.331659423828125,-0.81365322833471,3.3836201092630622,0.7023607719950378
1772698503137616600,1.34161669921875,-0.9520552253961563,2.828787255397439,0.7414197667729109
1772698503147573800,1.35157373046875,-1.0146435643214733,2.3903198502868412,0.4931004376498982
1772698503157530600,1.361530517578125,-0.7896095779895782,1.9021932189941406,0.32701383992508054
1772698503167487700,1.37148779296875,-0.15756467043198644,1.3169991291344165,0.34012904982492326
1772698503177444600,1.381444580078125,0.693336484670639,0.27795009541809557,0.4115888966657221
1772698503187401500,1.3914013671875,1.3754711918473244,-1.5426286702066658,0.4161421395232901
1772698503197359600,1.401359619140625,1.835216362786293,-3.7417905733436343,0.3429341703735292
1772698503207316700,1.411316650390625,2.0712556541919707,-5.892965567424893,0.019429324950091538
1772698503217273600,1.421273681640625,1.7054384747505187,-8.527515029835701,-0.7283166857022791
1772698503227230500,1.43123046875,0.9069803313296287,-10.885766255688667,-1.5721649996839462
1772698503237187600,1.4411875,0.1548106224834919,-12.536128739905356,-2.6175761157780886
1772698503247144700,1.451144775390625,0.09492394373230635,-13.58726042560339,-3.3347339132800697
1772698503257101600,1.4611015625,0.9732487470071762,-14.40952022730708,-3.676851944965124
1772698503267058700,1.47105859375,2.2420237242639063,-15.23545900978446,-3.57131885586977
1772698503277015800,1.481015869140625,3.150848879742622,-16.105488278400898,-2.852166669680178
1772698503286973700,1.4909736328125,3.5976176647305484,-16.567532958453892,-1.6056034511663018
1772698503296930600,1.5009306640625,3.747867847430706,-16.64610906704068,0.09136749335974455
1772698503306887700,1.5108876953125,3.7818040193021294,-16.511878291249275,2.069555864536762
1772698503316844800,1.5208447265625,3.861649709433317,-16.223173577582834,3.914332375089824
1772698503326801700,1.5308017578125,3.837900585055351,-15.609538990658521,5.049788649898767
1772698503336758500,1.540758544921875,3.356587725430727,-14.517732764744757,5.220718632534146
1772698503346715600,1.550715576171875,2.2365631207704544,-12.935464742588996,4.670770628100633
1772698503356672500,1.560672607421875,0.7994903360128403,-10.789925708568095,3.6054859138876196
1772698503366629600,1.570629638671875,-0.3391385409502312,-8.233187215590476,2.1102279205344616
1772698503376587500,1.58058740234375,-0.8707108211398125,-5.620542126473784,0.5561235877959058
1772698503386544600,1.590544677734375,-0.9341736048121004,-3.2600013283789155,-0.6727038118127733
1772698503396501500,1.60050146484375,-0.7764251022458076,-1.226174364349246,-1.5480276066407561
1772698503406458600,1.610458740234375,-0.6455249321818352,0.627171529367566,-2.0443372521281242
1772698503416415700,1.620415771484375,-0.6940823346018791,2.27077518697381,-2.068912598197162
1772698503426372600,1.63037255859375,-1.027635074776411,3.7409915319204328,-1.755106761021912
1772698503436329700,1.640329833984375,-1.5683938105821609,5.023883808791637,-1.1500452105231582
1772698503446286600,1.65028662109375,-2.012503020972013,6.253903742653131,-0.49141895083636045
1772698503456244700,1.66024462890625,-2.2004805845201014,7.5790791639804835,0.04018878425909206
1772698503466201600,1.67020166015625,-2.10592715460062,8.845858510440587,0.4631688617773354
1772698503476158700,1.68015869140625,-1.7311071690142155,9.964655619132518,0.6763401224885135
1772698503486115600,1.690115478515625,-1.255583414185047,10.838434011149406,0.7047188063632697
1772698503496072400,1.700072509765625,-0.6988648196380585,11.4253641310215,0.6110378118967638
1772698503506029600,1.710029541015625,-0.12097966455221175,11.988231822782755,0.6037892290079966
1772698503515986700,1.719986572265625,0.32428331898264584,12.468317186439037,0.5167913290346041
1772698503525943600,1.729943603515625,0.5828851553302258,12.73830901632905,0.4118997161805629
1772698503535900700,1.739900634765625,0.594135959597677,12.655409783846139,0.37278723764978344
1772698503545858600,1.749858642578125,0.3339396936655044,12.217185539841651,0.3666620327677578
1772698503555815700,1.759815673828125,-0.02626958276629448,11.777875254166126,0.2513654188206419
1772698503565772500,1.7697724609375,-0.37911972860693927,11.348379091018439,-0.08614193159802816
1772698503575729700,1.779729736328125,-0.4729214633762836,10.88257125903964,-0.5012051989765838
1772698503585686800,1.789686767578125,-0.41183885283879934,10.489979469919204,-0.8339001898106188
1772698503595643600,1.7996435546875,-0.3901438114464283,10.144412466824054,-0.981106109444052
1772698503605600500,1.8096005859375,-0.4657985526937991,9.760779644706846,-0.9161035489838569
1772698503615557600,1.8195576171875,-0.6713852765601128,9.38297450582981,-0.7112842292934656
1772698503625514500,1.829514404296875,-0.8801355790238827,9.107095371466874,-0.42606458126381036
1772698503635472600,1.83947265625,-1.122149926251173,8.811323203632234,-0.12884676293181255
1772698503645429500,1.849429443359375,-1.3620821334421633,8.488678810963034,0.1368908070472069
1772698503655386600,1.85938671875,-1.544638840985298,8.280555115965008,0.39158352539334446
1772698503665343500,1.869343505859375,-1.603340036278963,8.276030332016944,0.38877745499666777
1772698503675300600,1.879300537109375,-1.5230699832558632,8.33570066460371,0.2071015306097455
1772698503685257700,1.8892578125,-1.2393383818268775,8.328801552739739,0.004311415192019194
1772698503695214600,1.899214599609375,-0.7936218093056231,8.22385766170919,-0.0485165954856202
1772698503705171700,1.909171630859375,-0.533563271343708,7.88530141415894,0.03781002676323987
1772698503715129600,1.919129638671875,-0.7242413260221481,7.215566754350066,0.12033184990165754
1772698503725086700,1.929086669921875,-1.224718393387273,6.360103771224618,-0.01079615583512932
1772698503735043600,1.939043701171875,-1.830667613440752,5.379550765618681,-0.1827448687926866
1772698503745000700,1.949000732421875,-2.316698587628454,3.922656259059906,-0.14233955570608375
1772698503754957600,1.95895751953125,-2.489458854430914,2.4509639963418244,-0.07937248312886803
1772698503764914400,1.96891455078125,-2.49345698415637,0.7145785946637392,-0.2010333348782733
1772698503774871600,1.97887158203125,-2.179482074024528,-1.277810443562269,-0.2120265111228451
1772698503784828700,1.98882861328125,-1.5025824910223484,-3.11250833543241,0.10984956405498086
1772698503794785500,1.99878564453125,-0.6018904461819679,-4.225138738188147,0.6444388905107975
1772698503804743400,2.008743408203125,0.04817746319174766,-4.7075721262753,1.060528167335689
1772698503814700500,2.018700439453125,0.4530195159457624,-4.797303835126757,1.335194272647053
1772698503824657700,2.02865771484375,0.6511093081854283,-4.750679446595907,1.1922145193412899
1772698503834614500,2.038614501953125,0.8339362109720706,-4.89498913333118,0.6348391413860023
1772698503844571600,2.048571533203125,1.5379871280111372,-5.145023632341623,-0.24892091174535452
1772698503854528800,2.05852880859375,2.5796143416523933,-5.660410611003637,-1.3941400903515517
1772698503864485400,2.0684853515625,3.6456396450996396,-6.7316925198048345,-2.612278009369969
1772698503874442500,2.0784423828125,4.582251802170276,-9.164707017958163,-3.580759176649153
1772698503884400600,2.088400634765625,4.9400282984972,-12.999118007332086,-3.8106758935213088
1772698503894357800,2.098357666015625,3.6401813796937463,-17.36994122774005,-3.0640242905095216
1772698503904314600,2.108314697265625,0.6384591585140675,-20.164027172112462,-1.0549573084007948
1772698503914271500,2.118271484375,-2.755930693501234,-20.34889274111986,1.516497911389172
1772698503924228600,2.128228515625,-4.426507113707065,-17.86012011538744,3.6872219478100536
1772698503934185500,2.138185546875,-3.1006793659508225,-13.78082835650444,5.029911983039975
1772698503944142600,2.148142578125,0.716184203229472,-9.823137024420499,5.561290311560034
1772698503954099700,2.158099609375,4.531798210740089,-6.2827376229494805,5.347490324491262
1772698503964056600,2.168056640625,6.546901185077428,-3.542442889997363,4.432610399018228
1772698503974014500,2.178014404296875,6.205352185451984,-2.027409498202801,3.0434611026912926
1772698503983971600,2.1879716796875,4.179591038978099,-1.2045984923571347,1.3807346653334795
1772698503993928700,2.1979287109375,1.829044980674982,-0.5650649095445871,-0.3147499861575663
1772698504003885600,2.207885498046875,0.01525255072209984,-0.14949673398435115,-1.7620463510267435
1772698504013842700,2.2178427734375,-1.06268066919446,0.2758177595645189,-2.8581206096485254
1772698504023799600,2.227799560546875,-1.3583598980486393,0.8024363263368606,-3.6584897743225095
1772698504033756400,2.23775634765625,-1.2323743880331515,1.388849728858471,-3.974138609015941
1772698504043713500,2.247713623046875,-0.9856453603088855,1.9527140304416417,-3.783203949227929
1772698504053671700,2.257671630859375,-0.8456921152174472,2.5992168677449223,-3.168825850459933
1772698504063628800,2.26762890625,-0.7788000146836042,3.3107214617908,-2.2108302752293647
1772698504073585200,2.277585205078125,-0.7124328148066997,3.9802082843184468,-1.1745314170040189
1772698504083542000,2.2875419921875,-0.6108171914160251,4.612516592052579,-0.0968026884173043
1772698504093499100,2.2974990234375,-0.4184767564833164,4.9131993282824755,0.946270139188692
1772698504103456300,2.307456298828125,-0.28642507829666136,4.8478217239648105,1.707942566525936
1772698504113413400,2.317413330078125,-0.21145895863426847,4.947158296507597,1.8301533803083
1772698504123370200,2.327370361328125,-0.10487491744756698,5.389633768215775,1.3889444214046
1772698504133327400,2.337327392578125,0.09759469731152057,5.877872627711295,0.7892395025681704
1772698504143285200,2.34728515625,0.41668110523819923,6.170580147278309,0.014260288281738757
1772698504153242000,2.3572421875,0.5489361970424652,6.29976649916172,-0.7287996469136327
1772698504163199200,2.36719921875,0.33379999293386936,6.3374629003494976,-1.3487541575744748
1772698504173156400,2.37715625,-0.06887713687121867,6.392561687237024,-1.7140319694422184
1772698504183113200,2.38711328125,-0.493456301882863,6.400770712655782,-1.8789621271409094
1772698504193070000,2.397070068359375,-0.8399848434865475,6.1677943159520625,-1.7624442643031477
1772698504203027200,2.407027099609375,-1.2232003169745207,5.800805170121788,-1.5036873835243283
1772698504212984300,2.416984375,-1.4412065235614775,5.402891309195756,-1.2464289246097207
1772698504222941200,2.426941162109375,-1.0919511873424053,5.289226351571083,-1.1099860987920314
1772698504232899000,2.436899169921875,-0.2151169148862362,5.201033104333281,-1.2447684440515934
1772698504242856200,2.446856201171875,0.6842120979726314,4.96528081317544,-1.3681462557867168
1772698504252813300,2.456813232421875,1.1252864707112311,4.402406107151508,-1.1711811567280441
1772698504262770200,2.466770263671875,0.9714555069148539,3.8904759909451005,-0.741263480232656
1772698504272727300,2.476727294921875,0.36430323121454566,3.0831711817890404,-0.2982203281717375
1772698504282684400,2.486684326171875,-0.09454524661302566,1.6783832945644854,0.23645640257289632
1772698504292641300,2.496641357421875,-0.47686698613166806,-0.3270364901483059,0.5158714742433279
1772698504302598100,2.50659814453125,-1.0837059215664864,-2.8885031806915995,0.15580242826612664
1772698504312556300,2.516556396484375,-1.776671819359064,-5.060852480226755,-0.7639617073182016
1772698504322513200,2.52651318359375,-2.1239012027084825,-6.512391597232222,-1.7230796376422046
1772698504332470300,2.53647021484375,-1.7616577901005743,-7.561001070976257,-2.0236925235062837
1772698504342427100,2.54642724609375,-0.6116833797913044,-8.11809076385796,-1.5050965196698902
1772698504352384300,2.55638427734375,0.9065175361234694,-8.561537126424907,-0.13198652226226404
1772698504362341000,2.566341064453125,2.3025708396852016,-8.90846372743547,1.54376337332502
1772698504372298200,2.57629833984375,3.0478771655678747,-9.1602956312567,2.703193667308986
1772698504382255400,2.58625537109375,2.995527385127544,-9.803018365499376,3.3351927629634734
1772698504392212200,2.596212158203125,2.3280209227621556,-10.877007779693603,3.2849352786272763
1772698504402170000,2.606170166015625,1.7587562234401701,-11.779617129397392,2.3109768489807845
1772698504412127200,2.616127197265625,2.1701427294015883,-12.593970688021182,0.9782491856429726
1772698504422084400,2.62608447265625,3.251371447199583,-13.742155219238995,-0.1446768121477682
1772698504432041200,2.636041259765625,3.805695767021179,-15.130711518108845,-0.6948319108601659
1772698504441998300,2.645998291015625,2.8567969598293304,-15.657445235693453,-0.5543342201611027
1772698504451955200,2.655955078125,0.5240799516728147,-14.751312388038635,-0.12749067214773968
1772698504461912000,2.665912109375,-1.6952607796072958,-12.80585753494501,0.406126210813038
1772698504471869200,2.675869140625,-3.05821852684021,-10.357421595776081,0.7212054654575883
1772698504481827300,2.685827392578125,-3.191515236651897,-7.7015967056244605,0.6273248202331364
1772698504491784400,2.695784423828125,-2.1071885528385637,-4.77406207574904,0.035487492966651914
1772698504501741000,2.705740966796875,-0.7327648242175578,-2.339188797986507,-0.30071868432611226
1772698504511698200,2.7156982421875,0.31261399704217907,-0.6535919187813997,-0.21450963317546992
1772698504521655300,2.7256552734375,0.5254454313397408,0.7264560794621706,-0.18354071361180394
1772698504531612200,2.735612060546875,-0.022902736681699752,1.943004537332058,-0.21328728830628096
1772698504541569300,2.7455693359375,-0.8606851016879081,3.105069125342369,-0.3387256493004039
1772698504551526400,2.7555263671875,-1.4219675700843333,4.366400143268704,-0.26457053549364207
1772698504561483300,2.765483154296875,-1.7180594713926314,5.394316373074054,0.08676800020765513
1772698504571441200,2.775441162109375,-1.8724650202065705,6.240847861725092,0.5296570576854049
1772698504581398300,2.785398193359375,-1.7562977243721485,7.237873278704285,0.6187944539055228
1772698504591355400,2.79535546875,-1.1313614067107438,8.416834640979767,0.2936549564849585
1772698504601312300,2.805312255859375,-0.10534954922199248,9.243390678572654,-0.09462859578123316
1772698504611269000,2.81526904296875,0.8296674476116895,9.639037763610482,-0.392404047995992
1772698504621226200,2.825226318359375,1.4032757290959357,9.970945074665545,-0.6994263259783386
1772698504631183000,2.83518310546875,1.6283096423625945,10.129794743406771,-0.832561488552764
1772698504641140200,2.84514013671875,1.5851427008092402,9.855081145691871,-0.6989746366880834
1772698504651097300,2.855097412109375,1.15151046077013,9.051180007499456,-0.45775312033891674
1772698504661055200,2.86505517578125,0.4095271418303251,8.03086665391326,-0.25895119777452197
1772698504671012000,2.87501220703125,-0.29787352402806283,7.5134011154115194,-0.2892993185587227
1772698504680969200,2.88496923828125,-0.5987310323029756,7.293108259192109,-0.5021160667438059
1772698504690926300,2.89492626953125,-0.41373453039228913,7.2104480961620805,-0.7718545794598758
1772698504700883200,2.90488330078125,-0.0670031596928835,7.282528412988781,-0.9103314683884381
1772698504710840300,2.91484033203125,0.3168359986513853,7.573125808534026,-0.806724963441491
1772698504720797200,2.924797119140625,0.5738719008564949,7.9576926966309545,-0.42108226280659433
1772698504730754000,2.934754150390625,0.607624532854557,8.319107841721177,0.09681365733589045
1772698504740711200,2.944711181640625,0.49227849027514453,8.601535374814272,0.5814290017051622
1772698504750669300,2.95466943359375,0.45045478002429007,8.887102959498762,0.8685065160285681
1772698504760626400,2.96462646484375,0.35674890684485433,8.971420826607941,0.8603888221550733
1772698504770583000,2.9745830078125,0.27442720025526357,8.912710278964042,0.5384556099625304
1772698504780540200,2.9845400390625,0.2535737607861869,8.977700929790736,-0.05047836511183995
1772698504790497300,2.994497314453125,0.2646153975486755,8.994479630634189,-0.5957356498792767
1772698504800454100,3.0044541015625,0.26495325120091434,8.965485591340064,-0.9653449150800705
1772698504810411300,3.014411376953125,0.06127778604971244,8.683156842446326,-1.145995789001882
1772698504820368400,3.024368408203125,-0.4493816343674436,8.03517341119647,-1.0649976408999413
1772698504830326300,3.034326171875,-1.13839963478446,7.236486208260059,-1.0041349567234517
1772698504840283100,3.044283203125,-1.76211371717453,6.427601436436176,-1.0073779572326689
1772698504850240300,3.054240234375,-2.1341689142227174,5.52289832932353,-0.9436049385674298
1772698504860197400,3.064197265625,-1.9243255558252332,4.487061827912926,-0.7943088417217135
1772698504870154200,3.074154296875,-1.0136837063133717,2.9998756434649225,-0.3756661540869623
1772698504880111000,3.084111083984375,0.10877360538654028,0.9734446349054574,0.3489466355960816
1772698504890068200,3.094068115234375,0.7085726322472095,-1.0070458757340908,0.9091188777282834
1772698504900025000,3.104025146484375,0.5949765751402825,-2.892783049967885,0.9054070175983011
1772698504909982200,3.113982177734375,0.21989823087863622,-4.741823939967155,0.5087411839719862
1772698504919940400,3.1239404296875,-0.16724230709858237,-6.352148428305983,-0.32381606679707764
1772698504929897200,3.133897216796875,-0.18649287794828415,-7.3786904471486805,-1.4546204241469503
1772698504939854000,3.14385400390625,0.4401835613787174,-7.882679833483696,-2.442978550545871
1772698504949811200,3.153811279296875,1.9489514630377291,-7.908734896716475,-2.9290801057517526
1772698504959768300,3.163768310546875,3.9572389121413227,-8.410047757318615,-2.829585127776861
1772698504969725200,3.17372509765625,5.574993258219957,-10.697532671552896,-2.0471445646338164
1772698504979682300,3.183682373046875,4.851456865596771,-15.026569591110944,-0.5650133985530584
1772698504989639200,3.19363916015625,1.2930711410582065,-19.110669627058506,1.3929407975643873
1772698504999596000,3.203595947265625,-2.9820202533006666,-20.974927375411987,3.0548861675471066
1772698505009554200,3.21355419921875,-5.676273366045952,-19.959196673440932,3.7035470596671103
1772698505019511300,3.22351123046875,-5.216021999150514,-16.768145547169446,3.4376445449173447
1772698505029468400,3.233468505859375,-1.8887154593922197,-13.275311614471674,2.427646979770809
1772698505039425000,3.243425048828125,1.9836134649656711,-10.3571258276999,1.4162512382641435
1772698505049382100,3.253382080078125,4.22315662446022,-7.795493717461824,0.4278745532952249
1772698505059339300,3.26333935546875,4.252862026894093,-5.66840628593266,-0.3246010431623086
1772698505069297000,3.273296875,2.7170903829753397,-3.8972722269564866,-0.791030112311989
1772698505079253800,3.283253662109375,0.9376198728084564,-2.332243508893251,-0.8573194246470928
1772698505089211600,3.293211669921875,-0.29151852897815406,-1.130443707343936,-0.4718069262631237
1772698505099168800,3.303168701171875,-0.7064987485826015,0.041378304570913314,-0.027175920488871633
1772698505109125600,3.313125732421875,-0.4672153972217813,1.1716612683951855,0.26560685627143826
1772698505119082800,3.323082763671875,0.2706265841295942,2.1898703431785105,0.3667239190228283
1772698505129040000,3.333039794921875,0.9953530998528003,2.968665681686997,0.19630743886753915
1772698505138996700,3.342996826171875,1.3447335237562656,3.55938233436048,-0.07061590226336847
1772698505148953600,3.35295361328125,1.2422680055379867,3.996038306134939,-0.23783132592160253
1772698505158910700,3.36291064453125,0.7690133646845817,4.198901304125785,-0.17723984163561834
1772698505168868900,3.372868896484375,0.16455224603069946,4.36489792201221,0.04201385339493863
1772698505178825700,3.38282568359375,-0.5428583384335041,4.460961171972752,0.12375870081149042
1772698505188782600,3.392782470703125,-1.1889385664105414,4.555826152059436,-0.0015922010948881506
1772698505198739700,3.40273974609375,-1.4395546647012234,4.832349429544807,-0.27907970223622397
1772698505208696600,3.412696533203125,-1.2136743637382983,5.222638786941767,-0.5365324233476072
1772698505218653700,3.42265380859375,-0.8366518996715545,5.73813740928471,-0.7773121872786432
1772698505228610800,3.43261083984375,-0.6301636969208717,6.157586810192465,-0.8888239854574203
1772698505238568000,3.44256787109375,-0.6473311048209667,6.519892182120681,-0.8921928043033928
1772698505248524500,3.452524658203125,-0.689364073908329,6.791327781078219,-0.8825120258316397
1772698505258481700,3.462481689453125,-0.6215852536678314,7.024117130777239,-0.7619825892649591
1772698505268439800,3.472439697265625,-0.4159948765397072,7.2951003097921605,-0.6401870052199811
1772698505278396700,3.482396728515625,-0.2140928325355053,7.441167069327831,-0.4930836691781878
1772698505288353800,3.492353759765625,-0.09150229872055352,7.382573426061868,-0.3609948007863015
1772698505298310700,3.502310546875,-0.1803390314936638,7.029435695451498,-0.2573496260630898
1772698505308267800,3.512267822265625,-0.37698622370958323,6.576053045281768,-0.25089792917305603
1772698505318224600,3.522224609375,-0.4070691907515749,6.323972135135531,-0.3603873364124447
1772698505328181800,3.532181640625,-0.25973935247752816,5.999442659372091,-0.55493010369502
1772698505338139000,3.542138916015625,-0.1442774649661034,5.608568195563555,-0.5748008522696793
1772698505348096500,3.552096435546875,-0.2539350135803223,5.175269133001565,-0.3457435287058353
1772698505358053600,3.5620537109375,-0.43543724363446235,4.486686564859748,-0.05098817323092371
1772698505368010800,3.5720107421875,-0.4383130913317203,3.4774031393319365,0.14871663472363725
1772698505377967900,3.5819677734375,-0.34409510391168296,2.2433312997311354,-0.009544420474674553
1772698505387924700,3.5919248046875,-0.3411199605584144,0.698394352582097,-0.32376572484932836
1772698505397881900,3.6018818359375,-0.2561819887895137,-0.5508791478037833,-0.5776685531930997
1772698505407838700,3.611838623046875,-0.13363814366050064,-1.620488739478588,-0.8145913129024207
1772698505417795600,3.621795654296875,-0.011552563693001866,-2.8130378976017236,-0.7006102020006626
1772698505427752700,3.631752685546875,-0.04230535628795624,-4.312032593265176,-0.39649413032121955
1772698505437710800,3.6417109375,-0.1681598603349179,-5.8811208158522845,0.012538706919830292
1772698505447667700,3.651667724609375,-0.03825008954778313,-7.172707271310687,0.39530554159116
1772698505457624600,3.66162451171875,0.5748526555221527,-8.293636131334305,0.5828892469834536
1772698505467581700,3.671581787109375,1.7983787703849374,-9.229089181497692,0.3621894539309665
1772698505477538800,3.681538818359375,3.379607366490364,-10.22260162191987,-0.434792150663957
1772698505487495700,3.69149560546875,4.826024318176508,-11.622245131993292,-1.398375682094693
1772698505497452800,3.701452880859375,5.505487760317325,-13.276345049172638,-2.3219208523213863
1772698505507410000,3.711409912109375,4.959282449543476,-15.10522285658717,-3.373516356138885
1772698505517367800,3.721367919921875,3.41247620139122,-16.866225982171297,-4.496615838199854
1772698505527324700,3.73132470703125,1.2658359281301497,-18.418230968010423,-4.8539048432707785
1772698505537281800,3.74128173828125,-0.8357716097056865,-19.873891548860072,-4.088129437594115
1772698505547239000,3.751239013671875,-2.2096998098947105,-20.206772088861463,-2.1712647191688417
1772698505557195800,3.76119580078125,-1.534607276314497,-19.12074912252426,0.6693095662645995
1772698505567152600,3.771152587890625,1.0084159219782798,-17.869429211002586,4.153352728132903
1772698505577109800,3.78110986328125,3.0077216807901856,-16.562866135686637,7.899216542264819
1772698505587066600,3.791066650390625,3.0565386109292505,-14.360013561338185,11.053305426841973
1772698505597024800,3.801024658203125,1.9603987397253513,-11.589722334051132,12.312699923747777
1772698505606981600,3.810981689453125,0.5880746137320995,-8.874815724855662,11.537975780200957
1772698505616938800,3.820938720703125,-0.7473766293507069,-5.937950372055172,9.246421424570679
1772698505626895600,3.8308955078125,-2.095388224929571,-2.68361364530921,6.033385260984301
1772698505636852700,3.840852783203125,-3.495750696927309,0.6635358051687479,2.414228987532109
1772698505646809900,3.850809814453125,-4.3826866766810415,3.954188292399049,-1.4301390399716793
1772698505656766700,3.8607666015625,-4.563368238002061,6.841729934582114,-5.123332025015354
1772698505666723800,3.870723876953125,-4.224097704702616,9.171678610536455,-7.803986235997081
1772698505676680700,3.8806806640625,-3.6330887910842895,10.828284373056889,-8.944627512228488
1772698505686637600,3.890637451171875,-3.0383716705977917,11.613860750007628,-8.06548087117672
1772698505696595700,3.900595703125,-2.4430057308137414,12.389356462448834,-5.673545986908674
1772698505706552800,3.910552734375,-1.7738263668000698,13.585303446316718,-2.7224828896686435
1772698505716509700,3.920509765625,-0.902534603967145,14.634934079802035,0.343109125081636
1772698505726466600,3.930466552734375,0.12743395525813103,15.380655416226386,2.885737515370548
1772698505736423700,3.940423583984375,1.076703349328041,15.578631811219452,4.590239293792844
1772698505746380800,3.950380859375,1.8186790694832802,15.33092663193941,5.335860092452168
1772698505756337700,3.960337646484375,1.9983285112775862,14.549368258458376,4.891720486924052
1772698505766294800,3.970294677734375,1.5484896711945533,13.435887960875034,3.591445113575458
1772698505776252700,3.980252685546875,0.7557178297817707,12.358285616880655,2.046581231662631
1772698505786209800,3.990209716796875,-0.048909211532399056,11.320076541119814,0.713637952812761
1772698505796166700,4.000166748046875,-0.6115407564502209,10.29542954224348,-0.20088879357473924
1772698505806123800,4.010123779296875,-0.9799673877377062,9.388424587929249,-0.595507722874917
1772698505816081000,4.020080810546875,-1.2487491842508316,8.607706756925582,-0.5308502129927277
1772698505826037800,4.030037841796875,-1.4667010303020476,8.09556270570755,-0.28441136385407295
1772698505835994600,4.03999462890625,-1.544265916019678,7.889709878250956,-0.06640354983191937
1772698505845951700,4.04995166015625,-1.3690133940100668,7.854718644368648,0.10416457722112536
1772698505855908600,4.05990869140625,-0.9069161069869994,7.895861971139907,0.2775829060735181
1772698505865866800,4.06986669921875,-0.4168179564256221,7.976026810222864,0.5939982681600376
1772698505875823600,4.07982373046875,-0.12915369172282518,8.081578604018688,0.8249082703858613
1772698505885780700,4.08978076171875,0.0666015566220507,8.12083392508626,0.8300289013352244
1772698505895737600,4.099737548828125,0.23542203629016875,7.976625360637903,0.754231171420589
1772698505905694700,4.10969482421875,0.23602055017258972,7.600967755183577,0.7073517121501266
1772698505915651800,4.11965185546875,-0.011838942886330186,7.131142504256963,0.2713279007993638
1772698505925608700,4.129608642578125,-0.3613607845544815,6.484632068169117,-0.44442149120941754
1772698505935565800,4.13956591796875,-0.6289572437405586,5.530033588030934,-1.057489749487862
1772698505945522700,4.149522705078125,-0.6125801094353198,4.486498348811269,-1.5162484666727483
1772698505955480800,4.159480712890625,-0.3170061310539022,3.380042250776291,-1.6823672496341169
1772698505965437700,4.169437744140625,0.05192191041707992,2.235831883886456,-1.477350873001665
1772698505975394800,4.179394775390625,0.31131752749085423,1.016657753688097,-1.2049920947846025
1772698505985351700,4.1893515625,0.4596294356048107,-0.6496610090732574,-0.7544256710793823
1772698505995308500,4.19930859375,0.5702653277318924,-2.7967729914993047,-0.01018142147026956
1772698506005265700,4.209265625,0.339877340086177,-5.016360427549481,0.9016174160569905
1772698506015222800,4.219222900390625,-0.27157120803594587,-6.56538142914176,1.5336543595038354
1772698506025179600,4.2291796875,-0.8326292200267315,-7.168830722138285,1.6383841693922876
1772698506035137500,4.239137451171875,-1.1218985818386078,-7.223799160644411,1.0686397967945784
1772698506045094700,4.2490947265625,-0.6395044297832996,-5.980115443089604,-0.5000073309615254
1772698506055051800,4.2590517578125,1.8724806561671197,-3.370541431981325,-3.2566727684780954
1772698506065008600,4.269008544921875,6.573081920516491,-2.4740023421019313,-5.76915447883904
1772698506074965800,4.2789658203125,10.523030675649641,-6.903447262826561,-6.104543786790966
1772698506084923000,4.2889228515625,9.016883770143986,-13.05964758709669,-4.21176984578818
1772698506094879700,4.298879638671875,1.7774936571359634,-16.77757154716253,-1.288300711786002
1772698506104836600,4.308836669921875,-6.753536687344313,-18.17901889178753,2.7251348654821514
1772698506114793700,4.318793701171875,-11.231659421998263,-15.981906322395801,6.080225922614336
1772698506124752000,4.328751953125,-10.054389081549644,-11.203026032710074,7.794308891591429
1772698506134708700,4.338708740234375,-4.761974747592211,-6.450974713239074,7.994471398451924
1772698506144665600,4.34866552734375,2.183960826873779,-2.9915351006209847,6.691777273523807
1772698506154622700,4.358622802734375,8.04613904184699,-1.476294203555584,3.832764391210675
1772698506164579600,4.36857958984375,10.078463200098275,-1.4521511114239691,0.47256176321841775
1772698506174536700,4.37853662109375,7.986848648488521,-2.472977675229311,-1.9093666177548467
1772698506184493800,4.388493896484375,2.848531820309162,-3.364299322721362,-2.841552628946304
1772698506194450700,4.39845068359375,-2.5880361330389974,-3.7738779024779796,-2.9867215628594157
1772698506204408600,4.40840869140625,-5.975338145685195,-3.694192371344566,-2.9011034268066287
1772698506214365700,4.41836572265625,-7.218250294345617,-2.846418189156055,-2.8820731476441024
1772698506224322800,4.42832275390625,-6.412362950772047,-1.414761584228277,-2.794756098718941
1772698506234279700,4.43827978515625,-3.9283950949728488,0.14674655849337576,-2.6206998007565736
1772698506244236800,4.44823681640625,-1.1046762288808822,1.6270692869126795,-2.1544791501931844
1772698506254193700,4.458193603515625,1.072771855098009,2.92505684158504,-1.5694627549879252
1772698506264150500,4.468150634765625,2.070861686438322,4.02539065734744,-0.8925164102345704
1772698506274107600,4.478107666015625,1.9906500856041907,4.603005251863599,-0.18306158832535147
1772698506284064800,4.488064697265625,1.2944669793307781,4.715196045282483,0.466325316514261
1772698506294023000,4.49802294921875,0.4335889854192734,4.435646113452315,0.8897837704002857
1772698506303979500,4.5079794921875,-0.2690823138296604,3.964868091845512,0.9099968296065926
1772698506313936600,4.5179365234375,-0.69551675131917,3.5258301933705805,0.5052948429103941
1772698506323893800,4.527893798828125,-0.8724059346199036,3.0812983736544846,-0.1193351304818876
1772698506333850600,4.5378505859375,-0.9044763856846839,2.700955825254321,-0.8122505219299345
1772698506343807700,4.547807861328125,-0.8610954360544681,2.5597756687164304,-1.4779191744089126
1772698506353764900,4.557764892578125,-0.5492961894612759,2.708486805281043,-1.845480128777772
1772698506363721700,4.5677216796875,0.04579970120973885,2.9512200413674115,-1.8757023946925997
1772698506373678600,4.5776787109375,0.5440343599429354,3.0916718836307524,-1.688526941307634
1772698506383636700,4.58763671875,0.8728957639634609,3.093557551246881,-1.3344945999450981
1772698506393593900,4.59759375,1.0736720918733627,3.0042718325972557,-0.9920267319090664
1772698506403550700,4.60755078125,0.9487328760404139,2.76315538405776,-0.7447209272101522
1772698506413507600,4.617507568359375,0.7086123797357082,2.4041385322809217,-0.49370231253318486
1772698506423464700,4.627464599609375,0.4329448422968387,1.9720663811653851,-0.2787498857599683
1772698506433421600,4.637421630859375,0.14407291883733123,1.583041344615817,-0.11467344054747372
1772698506443378700,4.647378662109375,-0.2333493216693401,1.1762094332188366,0.12781055175187064
1772698506453335800,4.657335693359375,-0.6364098978340625,1.1047989784777164,0.39129889976568516
1772698506463293700,4.667293701171875,-0.8718670054376125,1.4644769245117901,0.5748438876938075
1772698506473250600,4.67725048828125,-0.7375567346692085,2.0372271278619767,0.63440513388291
1772698506483207700,4.687207763671875,-0.3168015118598938,2.78516263320446,0.5311693254118784
1772698506493164800,4.697164794921875,0.006001870763301849,3.59026730196774,0.2918746124068275
1772698506503121700,4.70712158203125,0.24231471841335295,4.306861912629008,-0.030829383228812363
1772698506513078800,4.717078857421875,0.274077637898922,4.855071548962592,-0.41444161921571937
1772698506523035600,4.72703564453125,0.1862718556087464,5.17412405461967,-0.7661714923221618
1772698506532992800,4.73699267578125,0.05310030654668808,5.297237224069238,-1.0573208226617425
1772698506542949600,4.74694970703125,-0.019250607382319866,5.253958638834953,-1.342985949436575
1772698506552906800,4.75690673828125,-0.09952654215693474,5.079698634994029,-1.5745822899587452
1772698506562865000,4.766864990234375,-0.2536614573359489,4.708455338850617,-1.8258324483692645
1772698506572821500,4.776821533203125,-0.3375613547613844,4.036363886782527,-2.0029826206937433
1772698506582778600,4.786778564453125,-0.3031388972103596,2.7915678240716457,-1.964943981939554
1772698506592735700,4.79673583984375,-0.30566520081758497,0.9916016383647918,-1.7687036169588566
1772698506602692600,4.806692626953125,-0.3766121297001839,-1.242215398567915,-1.5774724584423006
1772698506612649700,4.816649658203125,-0.5738356970319524,-3.7496442094534634,-1.4567419463455675
1772698506622606800,4.82660693359375,-0.4989350986201316,-6.162646431669592,-1.435688929183781
1772698506632563700,4.836563720703125,0.030211598390340804,-8.477937636718153,-1.1112335415698587
1772698506642521600,4.846521484375,0.6307306100886315,-10.655125608456133,-0.7540836527086794
1772698506652478700,4.856478759765625,1.1021675339955836,-12.524258269369602,-0.37881099145133046
1772698506662435800,4.866435791015625,1.5114228000819683,-13.987332925868033,-0.1183600475051906
1772698506672392700,4.876392822265625,2.033237181442976,-15.054307492864131,-0.38494160316083575
1772698506682349600,4.886349609375,2.8700059854924675,-15.862520064514875,-0.9819235633067787
1772698506692306700,4.896306640625,3.7543349976181983,-16.924066761243342,-1.1405093204148113
1772698506702263800,4.906263916015625,3.9691900466978547,-18.406627039456367,-0.49387123935930427
1772698506712220700,4.916220703125,2.9866812308490274,-19.426527720588446,0.8816577470898628
1772698506722178800,4.9261787109375,1.2511036384224892,-19.202499184972048,2.842581971994042
1772698506732135700,4.9361357421875,-0.20694873293451962,-17.838754671275616,4.8830128643333905
1772698506742092500,4.946092529296875,-0.7377659935057163,-15.37714360871315,6.587136749354005
1772698506752049700,4.956049560546875,-0.4654244586843997,-12.360222722423076,7.377872701025009
1772698506762006800,4.9660068359375,0.2988976063787937,-9.196875011113285,7.235266895598173
1772698506771964000,4.9759638671875,0.9225263485729693,-6.100577221247553,6.319942441228032
1772698506781920800,4.985920654296875,0.9508218842089176,-3.389647114467621,4.956090960025787
1772698506791877600,4.995877685546875,0.34172201810479164,-1.0457394712656736,3.2133386536642905
1772698506801834800,5.005834716796875,-0.610215133869648,0.9849871886610985,1.2735336430259048
1772698506811792600,5.015792724609375,-1.7674889804720877,2.727860198792815,-0.6629305327519774
1772698506821749800,5.025749755859375,-2.93535202562809,4.250830228805542,-2.236446508653462
1772698506831707000,5.035706787109375,-3.704588677674532,5.787857425743341,-3.3034485481783746
1772698506841663700,5.045663818359375,-3.8142975911498067,7.205483751752972,-3.971584540618956
1772698506851620600,5.05562060546875,-3.141265058839321,8.30121796476543,-4.300071814097464
1772698506861577700,5.06557763671875,-2.0451473994672296,9.007264293405413,-4.099502480001747
1772698506871534800,5.075534912109375,-1.0031693265616892,9.476005256226658,-3.386614030382037
1772698506881491700,5.08549169921875,-0.3324164296209812,9.961757559603452,-2.490217563843727
1772698506891448800,5.09544873046875,0.07442015795111656,10.652684645044802,-1.5913124754853545
1772698506901406700,5.10540673828125,0.3644225102126598,11.125968511992692,-0.6530171876333654
1772698506911363600,5.115363525390625,0.5036661457300186,11.005896025413275,0.29524021638240666
1772698506921320700,5.12532080078125,0.604043751758337,10.751190611982345,0.7583174178209156
1772698506931277800,5.13527783203125,0.7223276013553143,10.452366655361653,0.825940609108284
1772698506941235000,5.14523486328125,0.807553230959177,9.915158305513858,0.5404759002763778
1772698506951191600,5.155191650390625,0.7103940024554729,9.333954162073136,0.11247534598130732
1772698506961148700,5.165148681640625,0.5050970918485894,8.868379554328321,-0.2598367849700153
1772698506971105800,5.175105712890625,0.3366682418465614,8.517581080320477,-0.5254366635113954
1772698506981063700,5.185063720703125,0.1687269561657682,8.190037225171924,-0.6132558167397976
1772698506991020800,5.195020751953125,0.040260735250450666,7.940679017987847,-0.47486039554961024
1772698507000977700,5.204977783203125,-0.16021507534291593,7.747268323475122,-0.17053753098538144
1772698507010934800,5.214934814453125,-0.38946927318572994,7.6388944579958915,0.1779331028630957
1772698507020891600,5.2248916015625,-0.4539993207633495,7.7475915640801185,0.4106134026970714
1772698507030848800,5.234848876953125,-0.4445452637195587,7.77953743891716,0.6553465073637664
1772698507040806000,5.244805908203125,-0.485291079073213,7.785615297526121,0.6777133105378598
1772698507050762800,5.2547626953125,-0.5444833458194509,8.103648397007584,0.6019662148319185
1772698507060719600,5.2647197265625,-0.5275941703388467,8.440076984879374,0.4699119428293779
1772698507070678000,5.274677978515625,-0.32625439985990523,8.71977889240086,0.12082425479479134
1772698507080635000,5.284634765625,-0.03825695767998695,8.646583307808637,-0.5016181636916474
1772698507090592000,5.294592041015625,-0.0733294401049614,8.051599645340442,-1.0156695463683456
1772698507100548900,5.304548828125,-0.7041805347681045,7.205713468855619,-1.1852371546093374
1772698507110505700,5.314505615234375,-1.6405015999376773,6.47013417173922,-1.187359115199372
1772698507120462800,5.324462890625,-2.296915005880594,5.573481100091338,-1.1828289244238286
1772698507130420000,5.334419921875,-2.5046938329637047,4.084346704185009,-0.9626818333506584
1772698507140377000,5.344377197265625,-2.31835176166296,2.1891771002173424,-0.523788932836987
1772698507150334000,5.354333984375,-1.8811445857465265,0.4028273519307375,-0.33556952335704116
1772698507160291800,5.364291748046875,-1.1839514256477355,-1.4195482339829206,-0.3453620551075786
1772698507170249000,5.3742490234375,-0.0250187789876014,-3.1349305951207875,-0.189294856691733
1772698507180205800,5.384205810546875,1.1007271259289235,-4.426838537618518,-0.09864913826789706
1772698507190163000,5.394162841796875,1.7821616489470005,-5.024422153452038,0.0075648457637056705
1772698507200120000,5.4041201171875,1.8619395345389842,-5.497240156453848,-0.06925459188148379
1772698507210077000,5.414076904296875,1.5628794310748577,-5.846003325241804,-0.8294906297400594
1772698507220033800,5.42403369140625,1.4427740651391445,-5.5430175727665425,-2.432649318102747
1772698507229991000,5.433990966796875,2.3709843045674264,-5.137722953939438,-4.671922136223316
1772698507239949000,5.443948974609375,3.819011175668239,-6.339198930361866,-6.358523808556795
1772698507249906000,5.453906005859375,4.332805916702747,-9.237135125309228,-5.837568674373626
1772698507259862800,5.46386279296875,3.2275837443768975,-12.34908173520565,-3.5687419911190865
1772698507269820000,5.47381982421875,1.2547849572837353,-13.822971215707064,-0.09222714239638298
1772698507279776800,5.48377685546875,-0.4022247829277068,-13.466965820705889,3.8699139721706506
1772698507289734000,5.49373388671875,-1.1357914981126784,-11.824018581181765,7.384242236056924
1772698507299691000,5.50369091796875,-0.47041496044807135,-9.45841348543465,9.275921075299381
1772698507309648100,5.513648193359375,1.3443068227767943,-7.463599265888333,8.607254336982965
1772698507319605000,5.52360498046875,3.0004139881253242,-6.246207342931628,5.8493719248920675
1772698507329563000,5.53356298828125,3.363646411770582,-5.618172474732995,2.9217016859382388
1772698507339520000,5.54352001953125,2.139036812520027,-4.772990647125244,0.7966867498341947
1772698507349476900,5.553476806640625,0.21088848353624343,-3.7394647607445717,-0.8367061140768229
1772698507359434000,5.56343408203125,-1.2458756746411324,-3.0946646357059477,-2.094817439304292
1772698507369390800,5.573390869140625,-1.6568962698996066,-2.7812451674997805,-3.1319632697477937
1772698507379348000,5.583347900390625,-1.3264005792081355,-2.4151123462378976,-3.950983651138842
1772698507389304800,5.593304931640625,-0.9091454734742641,-2.0157628995507952,-4.090604595535994
1772698507399262000,5.603261962890625,-0.8866168308019637,-1.4040882145226001,-3.371537457281351
1772698507409219000,5.613218994140625,-1.1227250957906245,-0.4765905072778463,-1.9285083944678305
1772698507419176700,5.6231767578125,-1.08959205699563,0.6376432390213013,-0.5070207168549299
1772698507429133800,5.6331337890625,-0.7291244218885898,1.8329022406250237,0.7739737635709345
1772698507439091000,5.643091064453125,-0.17728669471833855,2.7826439283818005,1.8331055081121623
1772698507449048000,5.653048095703125,0.5431388724079356,3.4591736551582812,2.299777701835334
1772698507459005000,5.6630048828125,1.062467903226614,3.965471318435669,2.2138336948290465
1772698507468962000,5.672962158203125,1.117407115638256,4.269044515410066,1.6188022476963697
1772698507478919000,5.6829189453125,0.6218740074813366,4.362476247823238,0.8754996628515422
1772698507488875800,5.692875732421875,-0.1780991801450029,4.519620281690359,0.12417243271153419
1772698507498834000,5.702833984375,-0.8352934707999229,4.766036005681753,-0.5938002979025244
1772698507508791000,5.712791015625,-0.9478829081475734,4.961537534993886,-1.2989064230829477
1772698507518748200,5.722748046875,-0.6230499924581497,4.995955937424302,-1.8300994581639765
1772698507528704800,5.732704833984375,-0.03520695899222046,5.209775798237324,-2.069555426145345
1772698507538662000,5.742661865234375,0.6651508391499519,5.444217006796598,-2.007634245891869
1772698507548619000,5.752618896484375,1.3125170152842998,5.345084432393312,-1.714935640283674
1772698507558575900,5.762575927734375,1.6318037680886686,4.952716515156626,-1.3144269405588507
1772698507568533000,5.772532958984375,1.4352034837543963,4.5674008545190095,-0.8607102361291646
1772698507578490000,5.782489990234375,0.9180126705408096,4.238173576328158,-0.40606574933007356
1772698507588448000,5.792447998046875,0.3706441612064838,3.8640591086626053,0.03161901750285178
1772698507598404900,5.80240478515625,-0.16490769013855605,3.415657169514894,0.31232085931450126
1772698507608362000,5.812362060546875,-0.8285971880316734,3.136238755109906,0.5468333064790815
1772698507618319000,5.822319091796875,-1.4846739093661308,3.0682728878647088,0.7839379620939493
1772698507628276000,5.83227587890625,-1.988661542135477,3.2747482311338185,0.9293136706255376
1772698507638232800,5.84223291015625,-2.1909692443311215,3.66744055801928,0.8860536439612507
1772698507648190000,5.85218994140625,-2.004830586647987,4.1143887912273405,0.6873498845417052
1772698507658146800,5.862146728515625,-1.4917361028373242,4.550305927333236,0.20190849201129749
1772698507668104000,5.87210400390625,-1.0810241351366043,4.883339612069726,-0.4198640461232513
1772698507678062000,5.88206201171875,-0.812456200569868,5.050867677307129,-0.8165243998568504
1772698507688019000,5.89201904296875,-0.640465310704708,5.143320920076966,-0.8467111560668796
1772698507697975800,5.901975830078125,-0.4948503135245293,4.9586938360005615,-0.6149276954747737
1772698507707933000,5.911932861328125,-0.21952881304435432,4.234530251389741,-0.22281287621632218
1772698507717890000,5.92189013671875,0.2413666239082813,3.138054864621162,0.06475055846050382
1772698507727847000,5.931846923828125,0.9079716804545372,1.4140893840551376,0.20936233341488986
1772698507737804000,5.941803955078125,1.5154863962590694,-1.148599541759491,0.49484450483825054
1772698507747761000,5.951760986328125,1.7281529953837393,-4.102424797189236,0.9021558337826281
1772698507757719000,5.961718994140625,1.7723545406818388,-6.271439399343729,1.0527970616269855
1772698507767676000,5.971676025390625,1.9600795907735824,-7.725448705855012,0.549848343451321
1772698507777633000,5.981633056640625,2.561966456758976,-9.073747228616476,-0.31827019617296753
1772698507787590100,5.991590087890625,3.2737750021874903,-10.930926416885852,-1.1683036285303532
1772698507797546800,6.001546630859375,3.64157371083498,-13.147858954513072,-1.9194610185287893
1772698507807504000,6.01150390625,3.337090413278341,-15.57854296389222,-2.4793355198234317
1772698507817461000,6.0214609375,2.402738017833233,-18.175911573421953,-2.5399548236981033
1772698507827417900,6.03141796875,0.9587152678072453,-20.38863789153099,-1.9088120526120065
1772698507837375000,6.041375,-0.554749851757288,-21.404345212626456,-0.6927475058015435
1772698507847332900,6.051332763671875,-1.5908990723788736,-20.98950301325321,1.0779974807918071
1772698507857290000,6.0612900390625,-1.7451427086293696,-19.341278710108995,3.1405604177013036
1772698507867246800,6.071246826171875,-0.9473159219145775,-16.811370940911768,4.878647947122157
1772698507877204000,6.081203857421875,0.3782300862908363,-13.84073249784708,6.0177200743407
1772698507887161000,6.0911611328125,1.3555389954090118,-10.947879889774322,6.369786960849166
1772698507897118000,6.101117919921875,1.5584218671441077,-8.303181373792887,5.939482403928041
1772698507907074800,6.11107470703125,1.1916916645109652,-6.003183014944195,4.74100414801687
1772698507917032000,6.121031982421875,0.6167991884350776,-3.96593542881608,2.8705136427536604
1772698507926990000,6.130989990234375,0.032083274013735355,-2.0596534792035817,0.7799252193212509
1772698507936947000,6.140947021484375,-0.44750177543759345,-0.24360884987711906,-1.2060976448737084
1772698507946904000,6.150904052734375,-0.6695686555922031,1.5970704544901846,-2.625111771979928
1772698507956861000,6.16086083984375,-0.6308616160571575,3.152604783499241,-3.437878938195109
1772698507966817800,6.17081787109375,-0.6102443599641323,4.245235185277462,-3.500019752548635
1772698507976775000,6.18077490234375,-0.8515677292525767,5.14131776356101,-2.871165676921606
1772698507986732000,6.19073193359375,-1.3854805446863174,6.022033261364698,-1.904583329001069
1772698507996689000,6.20068896484375,-2.247159333586693,6.629755409374833,-0.6677427553392946
1772698508006646000,6.21064599609375,-3.1064462589144703,7.1015995989084235,0.642682329167053
1772698508016604000,6.22060400390625,-3.4261797325730323,8.065150616309046,1.2548197363361715
1772698508026561000,6.23056103515625,-2.941620438373089,9.32094679646194,1.3072019577413796
1772698508036518000,6.240517822265625,-1.7086533451437949,10.564099183619021,1.0644233481433243
1772698508046475000,6.25047509765625,-0.40033199145104736,11.687849530804156,0.543620774173364
1772698508056432000,6.26043212890625,0.5812064815282821,12.458899369752407,-0.21511742634288966
1772698508066388700,6.270388671875,1.2736242439188061,12.865135068821907,-1.172357726226747
1772698508076346000,6.28034619140625,1.617474944615364,12.943865491187571,-1.9828437957674263
1772698508086303000,6.290302978515625,1.513696590232849,12.620896104347706,-2.5110040390238164
1772698508096260000,6.300260009765625,0.9109130676686763,11.884887183642387,-2.7197414820060133
1772698508106218000,6.310218017578125,-0.07126490879058837,11.03777701832056,-2.5504025679543614
1772698508116174800,6.3201748046875,-1.0079472084879875,10.299163468074799,-2.211922892771661
1772698508126132000,6.330132080078125,-1.5580021804273128,9.647151511961221,-2.017327226258069
1772698508136089000,6.340089111328125,-1.7143080099046228,9.038113605177402,-1.9438756210781634
1772698508146046200,6.350046142578125,-1.5608651686429977,8.679670753896236,-1.7930156359165905
1772698508156003000,6.360003173828125,-1.215455986458063,8.576855107066034,-1.558649684550613
1772698508165960200,6.369960205078125,-0.832380213701725,8.50715087172091,-1.180897298774123
1772698508175917000,6.3799169921875,-0.469401472556591,8.52781255147755,-0.6732860686801374
1772698508185874000,6.3898740234375,-0.1838894174516201,8.61356717339158,-0.2813285954078659
1772698508195832000,6.39983203125,0.09333528630137443,8.62035464157462,0.08978168547302484
1772698508205789200,6.4097890625,0.30623686322569843,8.46052531414628,0.4588760599542409
1772698508215746000,6.41974609375,0.3330430005541071,8.095287395897508,0.7147441604889929
1772698508225703000,6.429702880859375,0.1496680354306474,7.596856812733411,0.7635728541310877
1772698508235660000,6.439659912109375,-0.2078875481545925,6.880803469341993,0.47842557721789924
1772698508245617200,6.4496171875,-0.5476900329062715,5.982095218729972,0.048320671054720876
1772698508255574000,6.459573974609375,-0.839629454177618,4.758428453287482,-0.22096438053911552
1772698508265531100,6.46953125,-0.9029647390127181,3.206426390057802,-0.3197826830951497
1772698508275489000,6.479489013671875,-0.6867535991489887,1.2456594015419482,-0.23224621926564723
1772698508285446100,6.489446044921875,-0.3603671338746324,-1.0061457120239734,-0.02676485546994954
1772698508295403000,6.499403076171875,0.10405775584578514,-3.0588942341446876,0.16325305479932575
1772698508305360100,6.509360107421875,0.7617009958446025,-4.788209259045124,0.0582569495243486
1772698508315317200,6.519317138671875,1.501193667012453,-6.355961264592409,0.01321121762022376
1772698508325274000,6.529274169921875,2.192079835921526,-7.513030528533458,0.226603610268794
1772698508335231000,6.53923095703125,2.549714877951145,-8.428788113623858,0.44414793496504423
1772698508345188000,6.54918798828125,2.4706489400207996,-8.920478574877977,0.3717729460407048
1772698508355145000,6.55914501953125,2.599281165152788,-8.524965345352888,-0.3663129636017605
1772698508365103000,6.56910302734375,3.4601708495020866,-8.078576499593257,-1.5740513979524373
1772698508375060000,6.57906005859375,4.6065714199125765,-9.324051776739955,-2.057953251156956
1772698508385017000,6.58901708984375,4.225511078631878,-12.405135046339034,-1.4323307047970593
1772698508394974000,6.598973876953125,1.5635983929991721,-15.06246274226904,-0.5014038268212229
1772698508404931000,6.60893115234375,-2.143615957003832,-16.336785928237436,0.740280972001329
1772698508414888200,6.61888818359375,-5.040888719606399,-16.31132649281025,2.066665988314152
1772698508424845000,6.628844970703125,-5.429407560199499,-14.283767357003688,3.2394641517847775
1772698508434802200,6.63880224609375,-3.042203796106577,-11.123334656357764,3.997800055110454
1772698508444759000,6.648759033203125,0.6547615470826625,-8.27118932172656,4.391750273102522
1772698508454717200,6.65871728515625,3.595025894671678,-5.9001370664894575,4.204247925850749
1772698508464674000,6.668674072265625,4.894786304235458,-4.059718458884954,3.282415989282727
1772698508474631200,6.678631103515625,4.494951119858026,-2.6975919017791745,2.0482960727564987
1772698508484588000,6.688588134765625,2.954359508436918,-1.5722499014884233,0.758550130598247
1772698508494545000,6.698544921875,1.2287065131753683,-0.61052843760252,-0.371760524950549
1772698508504502000,6.708501953125,-0.19363279456449672,0.1458697756588459,-1.2086778706252574
1772698508514459100,6.718459228515625,-1.3111287757962942,0.7127519637584686,-1.782787087368965
1772698508524416000,6.728416015625,-2.2014666729480026,0.9700807114303112,-2.160073024677485
1772698508534373000,6.738373046875,-2.5826392424315214,1.2294465178877114,-2.430669980853796
1772698508544331000,6.7483310546875,-2.480448449501395,1.606394747674465,-2.598329855777323
1772698508554288000,6.7582880859375,-2.031633253377676,1.8675649732053279,-2.5565584602355957
1772698508564245000,6.768244873046875,-1.3227858958423138,2.1831915960669517,-2.1868781756252047
1772698508574202000,6.7782021484375,-0.7114987488269805,2.544153736692667,-1.422807528039813
1772698508584159200,6.7881591796875,-0.3774818982720375,2.8149568829655647,-0.5851730105390772
1772698508594116000,6.7981162109375,-0.2990582768332213,3.212871912935376,0.042422954785637554
1772698508604073000,6.808072998046875,-0.2737829658012837,3.6934850998580453,0.4459246623139828
1772698508614030000,6.818030029296875,-0.20614329830314962,4.048206884789467,0.7869359748661517
1772698508623988200,6.82798828125,-0.10172785159349441,4.3159021281749,1.0501158597189932
1772698508633945000,6.837945068359375,-0.0193973223766312,4.650646708482504,0.9579517360888421
1772698508643902000,6.84790185546875,-0.10460015562679618,5.046404268157482,0.5360832913406193
1772698508653859000,6.857859130859375,-0.10624679032266139,5.530515818589925,-0.08056991275250912
1772698508663816000,6.86781591796875,0.1332914856472984,6.013516777431964,-0.6301758988153189
1772698508673773000,6.87777294921875,0.490951625585556,6.4238891379147764,-1.0580530824590473
1772698508683730200,6.887730224609375,0.8509697633594274,6.680324736139178,-1.4274340187966823
1772698508693687000,6.89768701171875,0.855593916028738,6.828623200249671,-1.539047596849501
1772698508703644200,6.90764404296875,0.65635144662261,6.991128468888998,-1.4499793203428386
1772698508713602000,6.91760205078125,0.46008594720065593,7.129234040287137,-1.4783753937438129
1772698508723559200,6.92755908203125,0.28848960961103437,7.146863220480084,-1.516162103563547
1772698508733516000,6.93751611328125,0.25462650297582146,7.029035297957062,-1.454668208811432
1772698508743473200,6.94747314453125,0.30099428639709946,6.820864256685971,-1.375417415833473
1772698508753430000,6.957429931640625,0.24167758955359459,6.399810927712917,-1.3772963614478706
1772698508763387000,6.967386962890625,-0.06325695890188217,5.70318884550035,-1.3030702647641301
1772698508773344000,6.977343994140625,-0.5924655421674251,4.9036295359045265,-1.1687719766944646
1772698508783301000,6.987301025390625,-1.0691688621699809,4.031677774792909,-1.1123102308906614
1772698508793258000,6.997258056640625,-1.2879589126110076,2.854361841636896,-1.027711354883015
1772698508803216000,7.0072158203125,-1.0441852275609969,1.4773545262634753,-0.9496981408759951
1772698508813173000,7.017173095703125,-0.7000958958029747,-0.13753507803380488,-0.8457830083712935
1772698508823130000,7.027130126953125,-0.6545183859765529,-2.059142607071996,-0.7531867038689554
1772698508833087000,7.0370869140625,-0.9090297381401061,-3.9066999805152416,-0.5629607403395697
1772698508843044000,7.047044189453125,-1.2426631423354149,-5.600464968606829,-0.14188731842655689
1772698508853001200,7.057001220703125,-1.3987994604647158,-7.3072607031852,0.1920645588670857
1772698508862958000,7.0669580078125,-1.3700456596672534,-8.903710979950427,0.11561528797484934
1772698508872915000,7.0769150390625,-1.0725509058237075,-10.285394470441341,-0.03960367784751579
1772698508882873000,7.086873046875,-0.4506219532847404,-11.080002879631518,-0.11822671258226036
1772698508892830200,7.096830322265625,0.3329553588032722,-11.448462098014353,-0.20668971667215227
1772698508902787000,7.106787109375,1.107895775449276,-11.815901910221577,-0.4175593493774533
1772698508912744000,7.116743896484375,1.848821694290638,-12.238764918965101,-0.6554280481673777
1772698508922701000,7.126701171875,2.2073358572423456,-13.09096393185854,-0.831141611817479
1772698508932658000,7.136657958984375,2.0585949100613594,-14.416459671181439,-0.7189112901058048
1772698508942615000,7.146614990234375,1.6362228997051715,-15.80808821710348,-0.09488554795067757
1772698508952572200,7.156572265625,1.242845513164997,-16.800826166021825,0.859424580232799
1772698508962529000,7.166529052734375,0.9810194540739059,-16.878240245091913,2.1336614030919967
1772698508972487000,7.17648681640625,0.9684101478695869,-15.742204416829347,3.805294492743909
1772698508982444000,7.186444091796875,1.1336766979157924,-13.557906905347108,5.5393450217336415
1772698508992401200,7.196401123046875,1.5056103144109247,-10.871784492087363,6.729576550564169
1772698509002358000,7.20635791015625,1.8813772254586218,-8.136904769921303,6.963939433190226
1772698509012315100,7.216315185546875,1.9052689731776713,-5.617144300729036,6.0913289159089326
1772698509022272000,7.22627197265625,1.3709750494718551,-3.48636795155406,4.25834045830518
1772698509032228900,7.236228759765625,0.44198038166761394,-1.7421721683859823,1.813682137978822
1772698509042186000,7.24618603515625,-0.4926227736681699,-0.2854617862224579,-0.5948598899580538
1772698509052143000,7.25614306640625,-1.2442781763166189,0.8896984302043914,-2.5004832295313477
1772698509062101200,7.266101318359375,-1.8087942198067903,1.9114865325182675,-3.7301618026092647
1772698509072057300,7.276057373046875,-2.208314346885681,2.8222207364886995,-4.197418372091651
1772698509082014200,7.28601416015625,-2.544246675673127,3.69754226629436,-3.883304199619591
1772698509091971300,7.295971435546875,-2.9154619147658347,4.584370109498501,-2.8707433598563075
1772698509101928200,7.30592822265625,-2.895223428857326,5.883892034131288,-1.6492220820099115
1772698509111885300,7.31588525390625,-2.2727233984321353,7.4525734294831745,-0.6212355634473263
1772698509121842400,7.325842529296875,-1.1271475884079933,8.88349002969861,0.43706301820538934
1772698509131799600,7.335799560546875,0.24050273708794265,10.07399628381729,1.2623936787217855
1772698509141757200,7.345757080078125,1.4626730899602174,11.042316415315867,1.5437351701438426
1772698509151714300,7.35571435546875,2.4157319394409655,11.669629983502626,1.4158542017705738
1772698509161671400,7.36567138671875,2.9199545500099657,11.907435700058937,0.9308955329895019
1772698509171628300,7.375628173828125,2.88706584136486,11.832450893962383,0.172381131291762
1772698509181585400,7.38558544921875,2.3760727137476203,11.418861909520626,-0.5690214651506393
1772698509191542300,7.395542236328125,1.5905951209962368,10.79426403003335,-1.2487234652876853
1772698509201499400,7.40549951171875,0.7688631425589323,10.185298603963851,-1.8247580971360207
1772698509211456300,7.415456298828125,-0.11916121695339679,9.50054523872137,-2.2490169441521166
1772698509221413400,7.425413330078125,-0.7685399019539356,8.931912407562136,-2.5675115236654875
1772698509231371500,7.43537158203125,-1.0197978052794934,8.681925254824757,-2.7061151077136394
1772698509241328000,7.445328125,-0.9361661668688058,8.515425948113203,-2.7032261082738636
1772698509251285200,7.45528515625,-0.6699193687260151,8.417001814240217,-2.5274293963849543
1772698509261242400,7.465242431640625,-0.3185995011925697,8.509665484890341,-2.253367832837999
1772698509271199500,7.475199462890625,0.11160627152919769,8.734398953905702,-1.9027815402761101
1772698509281156400,7.48515625,0.49715457187891005,8.8450699904114,-1.4294259232662618
1772698509291113500,7.495113525390625,0.6974947733938693,8.888797488456964,-0.9081723175931722
1772698509301070300,7.5050703125,0.6977554701566696,8.948152763745188,-0.4621882532421499
1772698509311027200,7.515027099609375,0.5509738403499126,8.90553410372436,0.018082769179344177
1772698509320985300,7.5249853515625,0.266837768039573,8.77061885280013,0.3591059182997793
1772698509330942500,7.5349423828125,0.011769914504420012,8.467732469046116,0.41403117525130506
1772698509340899300,7.5448994140625,-0.2704384411463514,8.07597946883738,0.06924326676987111
1772698509350856200,7.554856201171875,-0.5225251599788665,7.61123722026348,-0.5587606948338448
1772698509360813300,7.564813232421875,-0.8774585418343543,6.878337371489406,-1.1216029598928987
1772698509370770400,7.5747705078125,-1.3261094873070716,5.984087269330025,-1.3038485556602477
1772698509380727300,7.584727294921875,-1.82114107568264,4.872509590497613,-1.1437176149368284
1772698509390684400,7.594684326171875,-2.0423522157907485,3.457551022392511,-0.7767819528594613
1772698509400641500,7.6046416015625,-1.7331249385774135,1.7102186947643756,-0.4978010530889034
1772698509410599200,7.61459912109375,-1.125931782877445,-0.41492929313480853,-0.07153855636650695
1772698509420556300,7.624556396484375,-0.6587643529832363,-2.5757138270825144,0.6087659945072605
1772698509430513400,7.634513427734375,-0.5692133709935471,-4.465597599601745,1.0393327460285275
1772698509440470500,7.644470458984375,-0.362775327527523,-5.40232490748465,1.0006587319802491
1772698509450427400,7.654427490234375,0.6025731677491217,-5.496100923290848,0.6022860213708132
1772698509460384300,7.66438427734375,2.06234169537425,-5.82586888422966,0.16768552082143723
1772698509470341400,7.67434130859375,3.1363363702654836,-6.691501379191875,0.09782464274303056
1772698509480298200,7.68429833984375,4.078633587235212,-7.332818338289856,-0.28496320731686425
1772698509490255400,7.69425537109375,4.93685668272376,-9.184457428088784,-0.745439669938758
1772698509500213500,7.704213623046875,4.299330348080397,-13.3867518817842,-0.11238847141545265
1772698509510170400,7.71417041015625,1.043909333229065,-17.381604777526853,1.2046662968963384
1772698509520127200,7.724127197265625,-3.353543535429239,-19.323292971563337,2.1977371310308573
1772698509530084400,7.73408447265625,-6.51288084205389,-19.082570490777492,2.7701018421947956
1772698509540041500,7.74404150390625,-6.342883171832561,-16.31121192651987,3.253428671990335
1772698509549998300,7.753998291015625,-2.940086652934551,-12.3641320048213,3.5165126221880314
1772698509559955500,7.76395556640625,1.82671741451025,-8.880508968061209,3.5509786631524562
1772698509569912300,7.773912353515625,5.55286910469532,-6.067091131231188,3.318626828087866
1772698509579870500,7.783870361328125,7.096503737074136,-4.386421187034249,2.847205832402408
1772698509589827300,7.793827392578125,6.201702430772781,-3.7170325641840694,2.207881508426368
1772698509599784400,7.803784423828125,3.6051521518886087,-3.6842929086208343,1.5480410506442188
1772698509609741600,7.813741455078125,0.8479512923210859,-3.392397289958596,1.0760228927832096
1772698509619698200,7.8236982421875,-1.2377893988192081,-3.0096494339823723,0.7006245958521962
1772698509629655300,7.8336552734375,-2.2500918799072505,-2.410682839357853,0.01991634128205478
1772698509639612400,7.8436123046875,-2.3385417322546243,-1.4817390249580145,-0.9021146980546414
1772698509649569300,7.8535693359375,-1.6110510490477084,-0.25950667623281476,-1.8904517816655337
1772698509659526400,7.8635263671875,-0.6888017638504504,0.8104775939732789,-2.734706411425769
1772698509669484300,7.873484375,-0.12381580129358917,1.767296672770381,-3.1655481439635156
1772698509679441400,7.88344140625,-0.09450491460263728,2.6523826407432556,-3.074010554733872
1772698509689398300,7.893398193359375,-0.3577484392762184,3.4171377634614704,-2.6363345922619104
1772698509699355400,7.90335546875,-0.6753104141145945,3.9741257495343683,-2.0146756888359785
1772698509709312500,7.9133125,-0.8638660698115825,4.345653123316168,-1.3901505823239684
1772698509719269400,7.923269287109375,-0.7325643332093954,4.640063939669728,-0.8067781549334525
1772698509729226200,7.933226318359375,-0.46849371006190776,4.803049685302376,-0.3630236032001674
1772698509739183400,7.943183349609375,-0.2862263408541679,4.859740125295519,-0.08256422837488353
1772698509749140200,7.95314013671875,-0.19081775541007517,5.080718041169643,-0.08047448955401777
1772698509759098400,7.963098388671875,-0.12100655255913734,5.37815434282422,-0.1702951918631792
1772698509769055500,7.973055419921875,0.004312036246526986,5.537555800229311,-0.4535643634121865
1772698509779012400,7.983012451171875,-0.024221418064832686,5.474518037036061,-0.8163106840409338
1772698509788969200,7.99296923828125,-0.18556935162888838,5.472202161309123,-1.1556539172504097
1772698509798926300,8.00292626953125,-0.1956190182119608,5.617291600245237,-1.561722369994223
1772698509808883500,8.012883544921875,-0.07163314844793639,5.629065040147304,-2.0920602495506406
1772698509818840300,8.02284033203125,0.11173545086681842,5.44736641073823,-2.4307616046600042
1772698509828797400,8.03279736328125,0.355546545317769,5.2625750760108225,-2.6007182122185823
1772698509838754300,8.04275439453125,0.35157471907734866,4.915965870386362,-2.456463178279996
1772698509848712400,8.05271240234375,0.0849321996152401,4.45029598557353,-2.2226561759710313
1772698509858669300,8.06266943359375,-0.1403928055524826,4.054567651993036,-2.1432073762029407
1772698509868626400,8.07262646484375,-0.05698387454834301,3.553906533297896,-2.2718714577779173
1772698509878583600,8.08258349609375,-0.06318097105622292,2.5383167011022567,-2.3495877346649765
1772698509888540200,8.0925400390625,-0.5579834268510341,1.3114882567584514,-1.9836755704164504
1772698509898497300,8.102497314453124,-1.3538099796593188,0.6467670411974191,-1.5626333473592995
1772698509908454400,8.112454345703124,-1.8207634745419023,0.4392003955602646,-1.19585565232262
1772698509918411300,8.122411376953124,-1.351855338460207,0.45404082181751726,-0.7236550505667925
1772698509928368400,8.132368408203124,-0.16573062389399856,0.42811435340046883,-0.12473430437799543
1772698509938326300,8.142326171875,1.1764905882477759,0.31261224347651,0.5590636963684111
1772698509948283400,8.152283447265624,2.011618054831028,-0.021324527579545973,1.1539009361032395
1772698509958240300,8.162240234375,2.0616461143255234,-0.9957534973472356,1.4258707150027154
1772698509968197400,8.172197265625,1.6404174287855624,-2.4068279174953697,1.2242149008445442
1772698509978154500,8.182154541015626,0.7857014646351337,-4.168070112532377,0.7106135634902865
1772698509988111400,8.192111328125,-0.06237787451241165,-6.205530464628338,-0.06308759368434548
1772698509998068200,8.202068115234376,-0.14401216509342193,-8.135880103048681,-0.9425219656363129
1772698510008025300,8.212025390625,0.19767708325292915,-9.904883579736948,-1.6495079132139683
1772698510017983500,8.2219833984375,0.550887331110239,-11.392336306166648,-1.6417029385514557
1772698510027940400,8.2319404296875,0.7527776846766472,-12.189179927062987,-1.311704675988108
1772698510037897500,8.2418974609375,0.9084289227027446,-12.286107684898376,-0.9432073906172066
1772698510047854300,8.251854248046875,1.3906465491473674,-12.011686348128318,-0.47803266891017554
1772698510057811200,8.261811279296875,2.161814461517334,-11.864243039542435,0.004098594425246119
1772698510067768300,8.271768310546875,2.814864528506994,-12.136261991345881,0.8186146501343697
1772698510077725700,8.2817255859375,3.057217825365066,-12.931506360352039,2.0039165405429897
1772698510087682600,8.2916826171875,2.645028186327219,-13.850554803681373,3.26990517501682
1772698510097639700,8.3016396484375,1.355245565420389,-14.194651149702072,4.569630805528163
1772698510107596500,8.311596435546875,-0.3862076410412788,-13.478541692209243,5.47916381701529
1772698510117554700,8.3215546875,-1.9695885928750037,-11.855410913789271,5.641951409727334
1772698510127511600,8.331511474609375,-2.645404618424177,-9.643698156636953,4.9825616183221335
1772698510137468700,8.34146875,-2.4427917958021164,-7.289540922099351,3.4933269769117232
1772698510147425500,8.351425537109375,-2.098786635196209,-5.056425895956158,1.6303994542486964
1772698510157382400,8.36138232421875,-2.1251842282563445,-2.896587702947855,-0.17450338414274155
1772698510167339500,8.371339599609374,-2.3037737857341765,-0.5571732795119285,-1.488373640666902
1772698510177296600,8.381296630859374,-2.3217916729837653,2.028050718715787,-2.24754234155491
1772698510187253500,8.39125341796875,-1.9792460635364055,4.675986316922307,-2.589894620387256
1772698510197211400,8.40121142578125,-1.1334171701967715,7.048239764642715,-2.749779185134172
1772698510207168500,8.41116845703125,0.10356854755673557,8.745693085858225,-2.8858009359955785
1772698510217125600,8.421125732421874,1.350934131962061,9.53719417668283,-2.819098220553994
1772698510227082500,8.43108251953125,2.1351754609167575,9.6445229170233,-2.4059166478693483
1772698510237039600,8.44103955078125,2.1205179900109767,9.380186920937895,-1.7173128908090292
1772698510246996700,8.450996826171876,1.2072878775715827,9.018557256314159,-0.7510042452633381
1772698510256953600,8.46095361328125,-0.07762622398342937,8.919362138068676,0.1514646182575263
1772698510266910500,8.470910400390625,-1.1568494837105274,9.080670890399814,0.5913884875204414
1772698510276867600,8.48086767578125,-1.488194484707713,9.323563116440177,0.6230405670426785
1772698510286825700,8.49082568359375,-0.987768270746991,9.734480251324177,0.3563570945156738
1772698510296782600,8.500782470703125,0.0036100071907043457,10.194295564889908,-0.1935011310088448
1772698510306739500,8.510739501953125,1.0743974104732275,10.576404538440704,-0.7885548813048749
1772698510316696600,8.520696533203125,1.8813702111959456,10.758815115511418,-1.0323295162029564
1772698510326653400,8.5306533203125,2.27633282110095,10.805240182077885,-0.9814549228817224
1772698510336610600,8.540610595703125,2.192211353346705,10.635560491764545,-0.7253523560039699
1772698510346567700,8.550567626953125,1.7802683825463055,10.302214672338962,-0.3816583802390843
1772698510356524500,8.560524658203125,1.340038643938303,9.868532163417338,-0.1862051470480859
1772698510366481700,8.570481689453125,1.0409259335041046,9.488781151169539,-0.16553020595107226
1772698510376439600,8.580439453125,0.9325164121896028,9.03375365640223,-0.28231265627546237
1772698510386396700,8.590396728515625,0.8257102344185113,8.589084474042057,-0.3201460730474442
1772698510396353500,8.600353515625,0.5845826068978757,8.233857077676058,-0.3224316997665912
1772698510406310700,8.610310546875,0.3199275349259376,7.953753603616357,-0.3416839145841077
1772698510416267500,8.620267578125,0.01836735827438533,7.747522005975246,-0.4572038158930838
1772698510426224400,8.630224365234374,-0.09493687627911566,7.685248212891817,-0.5957348096290603
1772698510436181500,8.640181396484374,0.03239654121398926,7.52263246961534,-0.7181716507196426
1772698510446138600,8.650138671875,0.3756856625050306,7.199261516237258,-0.7965144620072097
1772698510456095500,8.660095458984374,0.6170487792819738,6.711529437220096,-0.7567809289686381
1772698510466053400,8.670053466796874,0.4574556352296844,5.859387122949958,-0.7737808713473379
1772698510476010500,8.680010498046874,-0.11068206935636699,4.633171842068434,-0.46217016959618773
1772698510485967600,8.689967529296876,-0.803483789563179,3.1063579961091277,0.16136760637890546
1772698510495924500,8.699924560546876,-1.5074316846191882,1.0334750329762696,1.0759922784492373
1772698510505881600,8.709881591796876,-1.794389262357354,-1.2774696673005819,2.1717413967698813
1772698510515838700,8.719838623046876,-1.4494243168085812,-3.5619852103352545,2.775345588067174
1772698510525795600,8.729795654296876,-0.10505962636470793,-5.180439813637733,2.624182674436271
1772698510535752400,8.73975244140625,1.7473697370290755,-6.045138242620229,1.5157216663196682
1772698510545709600,8.74970947265625,2.991549129146337,-6.461060053923726,-0.2825970444411039
1772698510555667700,8.759667724609375,3.680143972247839,-6.032822950926422,-2.4530229746982455
1772698510565624600,8.76962451171875,4.876193831968307,-5.258650011521578,-4.796988193306326
1772698510575581400,8.77958154296875,6.283575242817402,-6.363434376952052,-5.971417172849178
1772698510585538600,8.78953857421875,6.154219379585981,-9.70015478787422,-5.3516994666188955
1772698510595495400,8.799495361328125,2.9668098246872425,-12.373386155378817,-3.4787747199460863
1772698510605452500,8.80945263671875,-1.7428654113471507,-13.7052192810297,-0.5423698973294347
1772698510615409700,8.81940966796875,-5.969442657905817,-14.624828865373134,3.279902545157075
1772698510625366500,8.829366455078125,-8.117211058413982,-13.716548484295606,6.184846573039889
1772698510635323600,8.83932373046875,-7.449538591831922,-10.71753617966175,7.081164713644981
1772698510645281500,8.849281494140625,-3.910587051081657,-7.293052729612588,5.87909544750452
1772698510655238700,8.85923876953125,1.022957730615139,-5.107619492098689,4.078502069810033
1772698510665195500,8.869195556640625,5.179580566459894,-4.274484660637379,2.108362857314944
1772698510675152600,8.879152587890625,6.642968526691198,-3.8398020347625015,0.47191688944362103
1772698510685109500,8.889109619140624,5.308404514771699,-3.16566124894917,-0.48394919947758314
1772698510695066400,8.89906640625,2.7465982170104977,-1.957325323629379,-1.0222935676179825
1772698510705023500,8.9090234375,0.6101929220378398,-1.070455394849181,-1.1989156244151293
1772698510714980600,8.918980712890624,-0.856367823010683,-1.468645734629035,-1.1270214778102934
1772698510724937500,8.9289375,-1.8706594320893286,-2.2480939840883014,-1.0280552729498595
1772698510734895400,8.938895263671874,-2.497561496865749,-2.268140162295103,-1.3640541641674935
1772698510744852500,8.9488525390625,-2.4112761290758846,-1.6122499034434556,-1.9578068235360084
1772698510754809600,8.9588095703125,-1.5539824233919382,-0.7796206834167242,-2.408621815174818
1772698510764766500,8.968766357421876,-0.22182136269463226,-0.01713350563049316,-2.485302903795242
1772698510774723600,8.9787236328125,0.7998848882883787,0.5400029490023851,-2.0740420700401065
1772698510784680700,8.9886806640625,1.0134604189515113,0.7713847699910402,-1.1590413677316158
1772698510794637600,8.998637451171875,0.5875748475164174,1.030516767692566,0.04869914897829294
1772698510804594400,9.008594482421875,-0.42132571617364883,0.9995885454654693,1.3448321618251502
1772698510814551600,9.018551513671875,-1.3699357695519923,0.7502911285579205,2.4201211143106223
1772698510824509700,9.028509765625,-1.460029297453165,0.9529588962376118,2.663855344133079
1772698510834466600,9.038466552734375,-0.8766711908489465,1.3639660474926232,2.009646462497115
1772698510844423400,9.04842333984375,-0.03295706117358058,1.7251579052209853,0.8953238688707351
1772698510854380500,9.058380615234375,0.5016261278023944,2.0957214024066926,-0.07385024910867213
1772698510864337400,9.06833740234375,0.634262364411354,2.6108932770133015,-0.7587727603729814
1772698510874294500,9.07829443359375,0.46501522029638287,3.056375529322028,-1.1857346558026969
1772698510884251600,9.088251708984375,0.11826163776516914,3.2338685237348077,-1.2897915348656475
1772698510894208800,9.098208740234375,-0.11844864823725074,3.273861511427164,-1.2925053238689899
1772698510904165600,9.10816552734375,-0.07424010694278403,3.149905461412668,-1.300024613457918
1772698510914123500,9.11812353515625,0.21029985172701998,2.9120775330245494,-1.3289441262111068
1772698510924080600,9.12808056640625,0.3542220187157392,2.4874469300866124,-1.2428218400284647
1772698510934037500,9.13803759765625,0.18337562271058558,1.8190642694085835,-0.9942805021852255
1772698510943994600,9.14799462890625,0.10529692398561163,1.471689340108633,-0.8840686076238751
1772698510953951500,9.157951416015624,0.33842239203751084,1.2775304575771094,-0.9064020930502563
1772698510963908600,9.16790869140625,0.7951438312411307,0.9580231938898562,-0.8477098847806454
1772698510973865500,9.177865478515624,1.317460901427269,0.5240080920130014,-0.7003177218601108
1772698510983822600,9.187822509765626,1.547816886499524,-0.017699322819709776,-0.5439427726693451
1772698510993779700,9.19777978515625,1.138750347918272,-0.8084475494503974,-0.3893696852687746
1772698511003737300,9.2077373046875,0.28476675316300243,-1.6064853485673665,-0.42082565769702196
1772698511013694500,9.217694580078126,-0.8092284706950187,-2.3602403538435697,-0.541948895438388
1772698511023651600,9.227651611328126,-1.9897212803214788,-2.718522461605072,-0.6929832873187959
1772698511033608400,9.2376083984375,-2.644557646206021,-2.5499860961079595,-0.7905395523160695
1772698511043565600,9.247565673828126,-2.7024054395407435,-2.118072934946418,-0.6517047167953104
1772698511053522700,9.257522705078125,-2.252131276780367,-1.4281547342866658,-0.252593006120529
1772698511063479600,9.2674794921875,-3.2764041816473006,-0.2124105785369873,0.6828904209148139
1772698511073436700,9.277436767578125,-5.199399950173497,0.42363223955035206,0.6541423192057758
1772698511083393500,9.2873935546875,1.6512018576502798,-0.15245207665860652,0.3125906161665916
1772698511093351700,9.2973515625,1.7015747850596903,1.1241145043224097,0.11254804589133709
1772698511103308800,9.307308837890625,0.5679542012453079,1.8128332660645246,0.31057496549524366
1772698511113265700,9.317265625,0.7248503978312015,2.077871857461333,0.5381547273198143
1772698511123222500,9.327222412109375,0.4832651627361774,1.8809277281254528,0.6176065592952072
1772698511133179600,9.3371796875,0.30440376604702324,1.4119780909895896,1.0788131080236285
1772698511143136800,9.34713671875,0.34214283733274786,1.225914836630225,1.2399750722952185
1772698511153093600,9.35709375,0.46933951323628426,1.2592770080059765,0.8676005070995539
1772698511163050800,9.36705078125,0.8066460529863834,0.8507704413950443,0.7200004735819995
1772698511173007600,9.377007568359375,1.0043009609401226,0.29673019921183585,0.5419966801028698
1772698511182965800,9.3869658203125,0.7768728460133075,0.010435469296574592,0.2181326094456017
1772698511192922600,9.396922607421875,0.3550643512913957,0.06507014580368996,-0.2000571467898786
1772698511202879700,9.406879638671874,-0.3110754988959059,0.19603052162230014,-0.6008394027590751
1772698511212836900,9.4168369140625,-0.8064999225139617,0.3887783683121204,-0.7974613874685019
1772698511222793500,9.42679345703125,-0.7550690104842186,0.3644453065663576,-0.7780778378888964
1772698511232750600,9.43675048828125,-0.46638066343069073,0.2203138990074396,-0.5720417628198862
1772698511242707700,9.446707763671874,-0.899947437018156,0.01976093152463436,-1.0116551961604505
1772698511252664600,9.45666455078125,-1.3791864129781721,-0.20655074659287928,-1.2475766333401201
1772698511262621700,9.46662158203125,-1.422734462803602,-0.5913000055193901,-1.0299530693951993
1772698511272579600,9.47657958984375,-1.1574293294250964,-0.8093389453321694,-0.66790057624951
1772698511282536700,9.48653662109375,-0.6245698955018073,-0.9779524677187204,-0.473098683106713
1772698511292493600,9.49649365234375,-0.23439108580723403,-0.8704688290774821,-0.3521562818249687
1772698511302450700,9.50645068359375,0.06704809481315314,-0.5215741428643464,-0.29361667030118405
1772698511312407800,9.51640771484375,0.3283071676712483,-0.13879413818418979,-0.09293123554512858
1772698511322364700,9.52636474609375,0.4714379468202591,0.29773616138398645,0.421709783587791
1772698511332321500,9.536321533203125,0.7461104818724096,0.53326107352674,0.3900503244766965
1772698511342278700,9.546278564453125,0.9011829701624811,0.6248176597177982,0.23772399308960884
1772698511352235800,9.55623583984375,0.9485995319843291,0.6696604255288839,0.3637912265717983
1772698511362193700,9.566193603515625,0.9220026169598102,0.48947863042354584,0.46204581256415694
1772698511372150800,9.57615087890625,0.91771821763888,0.033522330373525616,0.26678813847787675
1772698511382107600,9.586107666015625,0.8038250772815198,-0.39850247446894643,-0.010548355086520314
1772698511392064500,9.596064453125,0.4490938669346273,-0.8351473403275013,-0.38725415441952643
1772698511402021600,9.606021728515625,0.20717560049295425,-0.969888988250494,-0.594821822969988
1772698511411978800,9.615978759765625,0.0992495518464595,-0.7159341009259224,-0.7272033906981349
1772698511421935900,9.625935791015625,0.03619125732183456,-0.2950520368665457,-0.7069467846110463
1772698511431892700,9.635892822265625,-0.007209566052630543,0.05186404275000095,-0.29557737591490146
1772698511441849600,9.645849609375,-0.0281377147257328,0.19913725546598432,0.051820715064927934
1772698511451807700,9.655807861328125,0.027447905830666423,0.2169552362293005,0.1838570495519787
1772698511461764600,9.6657646484375,-0.023943185645341872,0.18875906931459902,0.3381439404223114
1772698511471721700,9.6757216796875,0.06055171853117645,0.30959201887249943,0.31929033300094306
1772698511481678800,9.685678955078124,0.06007131460309028,0.41822015137374396,-0.1028545175358653
1772698511491635500,9.695635498046874,-0.05776369524784386,0.42868367772102356,-0.3630341245941818
1772698511501592600,9.705592529296876,-0.17435593849606812,0.2872235351979732,-0.4879244963167235
1772698511511549700,9.7155498046875,0.054877180026099086,0.2890057424396276,-0.41665556893814354
1772698511521506800,9.7255068359375,0.17824527408480642,0.5379407557755709,-0.02940707707442343
1772698511531463700,9.735463623046876,-0.1276923139333725,0.5762111574590206,0.3061087798666209
1772698511541421600,9.745421630859376,-0.10095043748021125,0.6124433313131332,0.2698926072992384
1772698511551378700,9.755378662109376,-0.2101707637209445,-0.38060207611918445,0.6517470215670764
1772698511561335600,9.76533544921875,0.25442367388010023,-1.2286293562859296,0.2974493437992409
1772698511571292700,9.775292724609375,0.23083704658746718,-2.1579174540787935,0.014941512011550365
1772698511581249800,9.785249755859375,0.18893135714158416,-1.5305401730060577,-0.4728524167280644
1772698511591207000,9.79520703125,0.5270318237483501,-1.0213333442837,-0.5044923308884725
1772698511601163500,9.80516357421875,0.33384609709791835,-0.8176233740746974,-0.6534022414281964
1772698511611120600,9.81512060546875,0.024494974309206007,-0.6517752247482538,-0.40316827432289715
1772698511621077800,9.825077880859375,-0.08596205411963165,-0.3332043651282787,-0.012326032283529638
1772698511631034600,9.83503466796875,0.03977320746183395,-0.020740590211749076,-0.09463928157202899
1772698511640992800,9.84499267578125,0.09947623674180359,0.1919844611018896,-0.4405740585336461
1772698511650949600,9.85494970703125,0.11164952614903449,0.325035087198019,-0.3649177829163149
1772698511660906800,9.86490673828125,-0.06289229030795394,0.34585575690865517,-0.018822298967652022
1772698511670863600,9.874863525390625,-0.10282448772378265,0.3506488364040851,0.21748408240899442
1772698511680820700,9.88482080078125,-0.12450787521097809,0.3550514552772045,0.1958641520794481
1772698511690777900,9.89477783203125,-0.0453484137782827,0.36406770542562006,0.1655945398915559
1772698511700734700,9.904734619140624,-0.10410568664073944,0.362764221611619,0.16355959999784828
1772698511710691600,9.914691650390624,-0.12938392028212548,0.4220902708053589,0.20154278223775327
1772698511720649700,9.924649658203125,-0.16009703845381737,0.5468892013847828,0.14478742378223686
1772698511730606800,9.93460693359375,-0.08952069644927978,0.6623731911301612,0.12301854996867477
1772698511740563700,9.944563720703124,-0.10906710844039916,0.6903957550436258,0.0864977684315294
1772698511750520800,9.954520751953124,-0.19787585722804069,0.8009943108350038,0.07132979072034358
1772698511760477700,9.964477783203124,-0.19203765259385108,0.9694996966719627,0.22529515801873057
1772698511770434600,9.9744345703125,-0.3256851120719686,0.9780851541876793,0.3854487854979932
1772698511780391700,9.9843916015625,-0.34860885500907896,0.8834376162439584,0.4361350897055119
1772698511790348800,9.994348876953126,-0.27221418211460113,0.6268605637222529,0.4716192582039162
1772698511800305700,10.0043056640625,-0.006868095671199261,-0.09532909046709537,0.3628447760345414
1772698511810262800,10.0142626953125,0.09252632627235725,-0.35429099229872224,0.28945611655563114
1772698511820220700,10.024220703125,-0.07689621094213799,-0.15714637195467948,-0.01123334167599678
1772698511830177800,10.034177734375,-0.3826280289888382,-0.8796832321465015,-0.5126035219559446
1772698511840134700,10.044134765625,-0.3110708592534065,-0.45338674182295796,-0.09633264148645103
1772698511850091800,10.054091796875,-0.38358664488792416,-0.03974281232357025,0.31560649338904767
1772698511860049000,10.064048828125,-0.4204010025441646,-0.1461824948698282,0.4573907532999292
1772698511870005500,10.074005615234375,-0.2656406489431858,-0.07385083363056183,0.4024492758659646
1772698511879962600,10.083962646484375,-0.1924503250479698,0.0777472565472126,0.11834734328724443
1772698511889919700,10.093919677734375,-0.11057399673885665,0.30508184797167776,-0.14045976984146982
1772698511899876600,10.103876708984375,-0.0716039314866066,0.5065612826496363,-0.1907409638468176
1772698511909834500,10.11383447265625,-0.1071966383934021,0.6235246972978115,0.039090266698971386
1772698511919791600,10.12379150390625,-0.23547931943535802,0.6238578747749328,0.2838709003018215
1772698511929748700,10.133748779296875,-0.22629531150460241,0.4315262076705694,0.4669273740606382
1772698511939705600,10.14370556640625,-0.16789107159720731,0.19647709634602067,0.48299226407893
1772698511949662700,10.153662841796875,-0.08317629585862159,0.05737140799462795,0.23733755105528978
1772698511959619800,10.163619873046875,0.05870119529366493,0.05080138195455074,-0.05598868493195623
1772698511969576700,10.17357666015625,0.22565933342231437,0.12976912020742892,-0.19485183323174715
1772698511979533600,10.183533447265624,0.2826280241012573,0.21539222469627856,-0.25533713546320796
1772698511989490700,10.19349072265625,0.30856910556554795,0.30645547441244125,-0.2598822680795565
1772698511999447600,10.203447509765626,0.310618402778171,0.3407084571480751,-0.18375428329724816
1772698512009405700,10.21340576171875,0.2899625682404265,0.1883417206853628,-0.09411662767110392
1772698512019362800,10.22336279296875,0.2784486925899982,0.07620119614899158,0.04314432786274701
1772698512029319700,10.233319580078126,0.2970154458940029,0.010534838017821312,0.11712713557621464
1772698512039276500,10.243276611328126,0.2873345943570137,-0.10044891769886016,0.1777539651702158
1772698512049233700,10.253233642578126,0.25146482407450677,-0.1733154164671898,0.19883334061596541
1772698512059190800,10.263190673828126,0.2682370951771736,-0.1662561456054449,0.23340693360809237
1772698512069147600,10.273147705078125,0.2727519787857309,-0.13468319573402404,0.21463017254890873
1772698512079105000,10.28310498046875,0.3101519543102011,-0.13582476698458193,0.1690736324452795
1772698512089062000,10.293061767578125,0.23555293266084043,-0.17366437603533266,0.052737756844609976
1772698512099020000,10.30302001953125,0.28462588338758793,-0.16682956157922743,-0.09180586651070043
1772698512108977000,10.312976806640625,0.3292015957603231,-0.08395487901568412,-0.13744111614003776
1772698512118934000,10.32293408203125,0.36346151969339696,-0.05418401013016701,-0.10222933484222739
1772698512128891000,10.332890869140625,0.3832394023528322,-0.08742109382152558,0.04029598922692239
1772698512138847700,10.34284765625,0.34162374536208806,-0.15238836377263068,0.20575435378449036
1772698512148804900,10.352804931640625,0.2972200285553932,-0.2861398316144943,0.26460770743256434
1772698512158762000,10.362761962890625,0.27366611622227355,-0.4751017300248146,0.1242328759281896
1772698512168718800,10.37271875,0.19964927837504073,-0.4228215076893568,-0.11171225265432148
1772698512178676000,10.382676025390625,0.1711585672268644,-0.21534429390132426,-0.37800833329893646
1772698512188633900,10.3926337890625,0.4092670661220327,0.04289747696220875,-0.5005842540666461
1772698512198591000,10.402591064453125,0.5941454580783844,0.29589082577824594,-0.43544126222245394
1772698512208547800,10.4125478515625,0.542877006601356,0.3600818506598472,-0.19651569305704905
1772698512218505000,10.4225048828125,0.5109866978764533,0.3563081773400307,0.08915834767660126
1772698512228462000,10.432462158203125,0.41519404501821844,0.21853402985334394,0.3014772841410711
1772698512238419000,10.4424189453125,0.34263971747159955,0.030604981622099875,0.2943000677217729
1772698512248375800,10.452375732421874,0.37450901994109154,-0.17574644300639627,0.046597463991306716
1772698512258333000,10.4623330078125,0.3390086674928665,-0.5202139604270458,-0.1362667385984212
1772698512268290000,10.4722900390625,0.3273836961507797,-0.6168833595871925,-0.20668420024681836
1772698512278248000,10.482248046875,0.2818611313819885,-0.3570768236249685,-0.14143243253221735
