time,seconds_elapsed,z,y,x
1772698501873062700,0.077062744140625,0.006278670392930508,0.006340481340885162,-0.10535476356744766
1772698501883019800,0.087019775390625,-0.001757925609126687,0.001858995296061039,-0.09879405051469803
1772698501892976600,0.0969765625,-0.010741299949586391,-0.006046065595000982,-0.08822103589773178
1772698501902933500,0.10693359375,-0.014536567032337189,-0.019223906099796295,-0.06975684314966202
1772698501912890600,0.116890625,-0.005067432299256325,-0.03380364924669266,-0.0491865910589695
1772698501922847500,0.126847412109375,0.0049812039360404015,-0.04172550141811371,-0.031214211136102676
1772698501932805600,0.1368056640625,0.019531916826963425,-0.04442967474460602,-0.02075544372200966
1772698501942762500,0.146762451171875,0.035857900977134705,-0.055631160736083984,-0.009221402928233147
1772698501952719600,0.1567197265625,0.053430236876010895,-0.049439575523138046,0.0004277625121176243
1772698501962676500,0.166676513671875,0.055890973657369614,-0.04489072412252426,0.013596854172647
1772698501972633600,0.176633544921875,0.04261405020952225,-0.0297170989215374,0.02386067807674408
1772698501982590700,0.1865908203125,0.02927587740123272,-0.021722810342907906,0.03936023637652397
1772698501992547600,0.196547607421875,0.014406383037567139,-0.022308439016342163,0.0587800107896328
1772698502002504700,0.206504638671875,0.0003086801152676344,-0.028470437973737717,0.07785562425851822
1772698502012461600,0.216461669921875,-0.018275924026966095,-0.03569399565458298,0.09024544805288315
1772698502022419700,0.226419677734375,-0.04028083011507988,-0.03578696399927139,0.09211186319589615
1772698502032376600,0.23637646484375,-0.0573306530714035,-0.029907502233982086,0.07363991439342499
1772698502042333700,0.246333740234375,-0.07480975240468979,-0.025370726361870766,0.05382387712597847
1772698502052290600,0.25629052734375,-0.08354785293340683,-0.013910876587033272,0.02053755894303322
1772698502062247400,0.266247314453125,-0.08012436330318451,-0.01399238221347332,-0.012079203501343727
1772698502072204800,0.276204833984375,-0.08715617656707764,-0.014564162120223045,-0.0392138846218586
1772698502082162000,0.286161865234375,-0.09109841287136078,-0.007841959595680237,-0.06389349699020386
1772698502092118800,0.296118896484375,-0.09810705482959747,-0.0032195106614381075,-0.07939762622117996
1772698502102076000,0.306075927734375,-0.09769750386476517,-0.0037690741010010242,-0.0720825120806694
1772698502112033800,0.31603369140625,-0.0641225054860115,-0.004919293336570263,-0.041212212294340134
1772698502121991000,0.325990966796875,-0.014756019227206707,-0.02359311282634735,0.011129021644592285
1772698502131947800,0.33594775390625,0.04302418977022171,-0.07112308591604233,0.08165458589792252
1772698502141905000,0.34590478515625,0.09310335665941238,-0.11654374748468399,0.1440897434949875
1772698502151862000,0.355862060546875,0.11121152341365814,-0.13076049089431763,0.18467286229133606
1772698502161818600,0.365818603515625,0.08620015531778336,-0.1285243183374405,0.19612284004688263
1772698502171775700,0.375775634765625,0.036016084253787994,-0.11794784665107727,0.18107464909553528
1772698502181732900,0.38573291015625,-0.019409626722335815,-0.11063586920499802,0.15133726596832275
1772698502191691000,0.39569091796875,-0.059479549527168274,-0.10361524671316147,0.1074688732624054
1772698502201647900,0.40564794921875,-0.06988982856273651,-0.10807092487812042,0.06757643818855286
1772698502211604700,0.415604736328125,-0.05386905372142792,-0.11816457659006119,0.035563379526138306
1772698502221561900,0.425561767578125,-0.034151025116443634,-0.1188485249876976,0.01747560128569603
1772698502231518700,0.435518798828125,-0.013878507539629936,-0.12113431841135025,0.010891469195485115
1772698502241475800,0.445475830078125,-0.015770403668284416,-0.07320988178253174,0.04677102714776993
1772698502251433000,0.455432861328125,-0.0816442221403122,-0.0894186794757843,0.2376834601163864
1772698502261389800,0.465389892578125,-0.15069624781608582,-0.19928492605686188,0.3617798984050751
1772698502271347700,0.47534765625,-0.17090830206871033,-0.18934813141822815,0.35849061608314514
1772698502281304800,0.485304931640625,-0.15478552877902985,-0.1605394333600998,0.26433467864990234
1772698502291262000,0.495261962890625,-0.10140646994113922,-0.05862770974636078,0.16592074930667877
1772698502301218800,0.50521875,-0.023705823346972466,-0.040169380605220795,0.163129061460495
1772698502311176000,0.515176025390625,0.05527261272072792,-0.049800168722867966,0.23645280301570892
1772698502321132800,0.5251328125,0.10291095077991486,-0.05099598690867424,0.3671654462814331
1772698502331089700,0.535089599609375,0.11601583659648895,-0.07351993769407272,0.5171240568161011
1772698502341046800,0.545046875,0.1392228603363037,-0.11535266041755676,0.5665072798728943
1772698502351004000,0.55500390625,0.17587435245513916,-0.1367112100124359,0.4817153811454773
1772698502360961800,0.5649619140625,0.17825709283351898,-0.11143752187490463,0.28627628087997437
1772698502370918700,0.574918701171875,0.11924677342176437,-0.07878077030181885,0.05420682951807976
1772698502380875800,0.584875732421875,0.03375615179538727,-0.043594688177108765,-0.13773557543754578
1772698502390833000,0.5948330078125,-0.015854544937610626,-0.0035282298922538757,-0.26549699902534485
1772698502400789800,0.604789794921875,-0.04826495796442032,0.03708015754818916,-0.31615105271339417
1772698502410747000,0.614746826171875,-0.0527033805847168,0.03382124751806259,-0.29216957092285156
1772698502420704000,0.6247041015625,-0.006902659311890602,0.01171229500323534,-0.24163441359996796
1772698502430660600,0.63466064453125,0.07316581159830093,-0.014899075031280518,-0.1778024435043335
1772698502440618800,0.64461865234375,0.15939606726169586,-0.040585957467556,-0.09559711813926697
1772698502450576000,0.654575927734375,0.21014313399791718,-0.06496399641036987,0.0131157785654068
1772698502460533000,0.664532958984375,0.20684054493904114,-0.08830877393484116,0.08158335834741592
1772698502470489900,0.67448974609375,0.13230931758880615,-0.09287982434034348,0.10636354237794876
1772698502480446700,0.68444677734375,0.0021164517384022474,-0.0738503709435463,0.11308959871530533
1772698502490403800,0.69440380859375,-0.11337285488843918,-0.052742164582014084,0.1102655827999115
1772698502500360700,0.704360595703125,-0.20221646130084991,-0.026866404339671135,0.09694378823041916
1772698502510317800,0.71431787109375,-0.25614839792251587,0.0067275092005729675,0.08082687109708786
1772698502520275000,0.72427490234375,-0.23150882124900818,0.038178179413080215,0.056198541074991226
1772698502530232800,0.73423291015625,-0.15934567153453827,0.05925549939274788,0.034774210304021835
1772698502540189700,0.744189697265625,-0.08118242770433426,0.06589953601360321,-0.004973660688847303
1772698502550146800,0.754146728515625,0.001475961646065116,0.09242914617061615,-0.10541264712810516
1772698502560104000,0.76410400390625,0.03837696462869644,0.1613476723432541,-0.22719022631645203
1772698502570060800,0.774060791015625,0.0020003130193799734,0.21309928596019745,-0.32409706711769104
1772698502580018000,0.784017822265625,-0.07064594328403473,0.26038581132888794,-0.387690007686615
1772698502589974800,0.793974853515625,-0.1370832920074463,0.2656010687351227,-0.3909526467323303
1772698502599931600,0.803931640625,-0.1517154574394226,0.24291160702705383,-0.3138500452041626
1772698502609889800,0.813889892578125,-0.103728748857975,0.1737051159143448,-0.1747661828994751
1772698502619847000,0.823846923828125,-0.022694643586874008,0.058696143329143524,-0.03902275115251541
1772698502629803800,0.8338037109375,0.07169763743877411,-0.06131228432059288,0.02403237670660019
1772698502639760600,0.8437607421875,0.17113955318927765,-0.147313192486763,0.0173222403973341
1772698502649717800,0.8537177734375,0.26352939009666443,-0.14258208870887756,-0.06396941840648651
1772698502659675000,0.8636748046875,0.2840043306350708,-0.09072946757078171,-0.14034967124462128
1772698502669631700,0.8736318359375,0.14081016182899475,-0.014647483825683594,-0.1313180923461914
1772698502679588900,0.8835888671875,-0.05603739991784096,-0.06294073909521103,0.3225690424442291
1772698502689546800,0.893546630859375,-0.14344367384910583,-0.13407030701637268,0.8433371782302856
1772698502699503900,0.90350390625,-0.19160772860050201,-0.14930541813373566,1.076930284500122
1772698502709460700,0.913460693359375,-0.20862984657287598,-0.12526026368141174,1.0301835536956787
1772698502719417900,0.92341796875,-0.176376610994339,-0.10631036758422852,0.7844502925872803
1772698502729375000,0.933375,-0.09217330813407898,-0.07893946021795273,0.4135851263999939
1772698502739331800,0.943331787109375,0.010027104988694191,-0.061597440391778946,0.026426874101161957
1772698502749288700,0.953288818359375,0.09197710454463959,-0.04182400181889534,-0.25246521830558777
1772698502759245800,0.963245849609375,0.09275846183300018,-0.02698061801493168,-0.3669683039188385
1772698502769202700,0.97320263671875,0.027083050459623337,0.017763150855898857,-0.3431660532951355
1772698502779160800,0.983160888671875,-0.04947059601545334,0.073848195374012,-0.24198225140571594
1772698502789117700,0.99311767578125,-0.06932578980922699,0.07529802620410919,-0.13137665390968323
1772698502799074800,1.00307470703125,-0.012717349454760551,0.03518212214112282,-0.06492974609136581
1772698502809031700,1.01303173828125,0.10123958438634872,-0.013525760732591152,-0.05466459318995476
1772698502818988800,1.02298876953125,0.2224632054567337,-0.03993529826402664,-0.08479761332273483
1772698502828946000,1.03294580078125,0.2994370758533478,-0.045970819890499115,-0.10654684901237488
1772698502838902800,1.04290283203125,0.3326815664768219,-0.04763689264655113,-0.12325898557901382
1772698502848860000,1.05285986328125,0.3458231985569,-0.038270823657512665,-0.12806865572929382
1772698502858816800,1.062816650390625,0.3715789318084717,-0.044171009212732315,-0.12974339723587036
1772698502868775000,1.07277490234375,0.36999887228012085,-0.05376344919204712,-0.1254730224609375
1772698502878731800,1.082731689453125,0.31048309803009033,-0.06298036128282547,-0.10044123977422714
1772698502888689000,1.09268896484375,0.18905572593212128,-0.07377521693706512,-0.06297189742326736
1772698502898645800,1.102645751953125,0.03484030440449715,-0.11880055069923401,-0.02906777523458004
1772698502908602600,1.1126025390625,-0.10342036187648773,-0.18619637191295624,0.005265165586024523
1772698502918559700,1.122559814453125,-0.22176487743854523,-0.26730701327323914,0.06619109213352203
1772698502928516900,1.132516845703125,-0.3251567780971527,-0.3392714858055115,0.1452222615480423
1772698502938473700,1.1424736328125,-0.4085853695869446,-0.3940919041633606,0.19552555680274963
1772698502948431600,1.152431640625,-0.450617253780365,-0.42180824279785156,0.21705028414726257
1772698502958388700,1.162388671875,-0.4323399066925049,-0.415068119764328,0.21331489086151123
1772698502968345900,1.172345947265625,-0.3694986402988434,-0.38675206899642944,0.18288187682628632
1772698502978302700,1.182302734375,-0.3005955219268799,-0.3599589169025421,0.12197259813547134
1772698502988259800,1.192259765625,-0.20430971682071686,-0.3138073980808258,0.06002693623304367
1772698502998217000,1.202217041015625,-0.09551449865102768,-0.2585935890674591,0.01825229823589325
1772698503008173800,1.212173828125,0.01657555252313614,-0.21305513381958008,0.01097787544131279
1772698503018130700,1.222130615234375,0.11956479400396347,-0.19569821655750275,0.024814486503601074
1772698503028087800,1.232087890625,0.20999616384506226,-0.20294387638568878,0.03900061175227165
1772698503038046000,1.2420458984375,0.2449762374162674,-0.20101632177829742,0.02692781388759613
1772698503048002800,1.2520029296875,0.1967535763978958,-0.18523229658603668,0.015749726444482803
1772698503057959700,1.261959716796875,0.09803549945354462,-0.1489207148551941,0.020726099610328674
1772698503067916500,1.27191650390625,-0.008772706612944603,-0.120180144906044,0.04767249524593353
1772698503077873700,1.281873779296875,-0.10810961574316025,-0.10168160498142242,0.11611530929803848
1772698503087830500,1.29183056640625,-0.18409332633018494,-0.07291413843631744,0.21442323923110962
1772698503097787600,1.30178759765625,-0.21051861345767975,-0.06313575059175491,0.3105067312717438
1772698503107744800,1.311744873046875,-0.17942620813846588,-0.03996838256716728,0.37472379207611084
1772698503117702400,1.321702392578125,-0.10400675982236862,-0.017446406185626984,0.3852713108062744
1772698503127659500,1.331659423828125,0.0060728685930371284,0.025568969547748566,0.3920125663280487
1772698503137616600,1.34161669921875,0.09195733815431595,0.0834815502166748,0.42052119970321655
1772698503147573800,1.35157373046875,0.14020289480686188,0.13035717606544495,0.48107534646987915
1772698503157530600,1.361530517578125,0.16786177456378937,0.19467198848724365,0.5244802832603455
1772698503167487700,1.37148779296875,0.20686855912208557,0.25348711013793945,0.5176495909690857
1772698503177444600,1.381444580078125,0.25924038887023926,0.32487091422080994,0.4264794588088989
1772698503187401500,1.3914013671875,0.32674646377563477,0.42481881380081177,0.2794599235057831
1772698503197359600,1.401359619140625,0.425907701253891,0.4984208941459656,0.0886041596531868
1772698503207316700,1.411316650390625,0.5095663070678711,0.4885954260826111,-0.08817807585000992
1772698503217273600,1.421273681640625,0.5473038554191589,0.39142876863479614,-0.20335696637630463
1772698503227230500,1.43123046875,0.49789151549339294,0.23504503071308136,-0.20660601556301117
1772698503237187600,1.4411875,0.32456082105636597,0.022140879184007645,-0.08539450168609619
1772698503247144700,1.451144775390625,0.05419164150953293,-0.20544274151325226,0.0727011188864708
1772698503257101600,1.4611015625,-0.3035427927970886,-0.3807700574398041,0.148281067609787
1772698503267058700,1.47105859375,-0.6902292966842651,-0.47237083315849304,0.12654700875282288
1772698503277015800,1.481015869140625,-1.0412038564682007,-0.4906315207481384,0.043744854629039764
1772698503286973700,1.4909736328125,-1.2917393445968628,-0.42738091945648193,-0.048140592873096466
1772698503296930600,1.5009306640625,-1.3754308223724365,-0.2659728229045868,-0.10255780071020126
1772698503306887700,1.5108876953125,-1.2507977485656738,-0.06780116260051727,-0.15805435180664062
1772698503316844800,1.5208447265625,-0.9246266484260559,0.16492557525634766,-0.2551364600658417
1772698503326801700,1.5308017578125,-0.47481685876846313,0.3991042375564575,-0.4113215506076813
1772698503336758500,1.540758544921875,-0.017728092148900032,0.5938757061958313,-0.5839637517929077
1772698503346715600,1.550715576171875,0.3967369794845581,0.727797269821167,-0.6964301466941833
1772698503356672500,1.560672607421875,0.6978736519813538,0.7779664397239685,-0.7117174863815308
1772698503366629600,1.570629638671875,0.8372185230255127,0.7490447759628296,-0.6474378108978271
1772698503376587500,1.58058740234375,0.8277722597122192,0.6518561840057373,-0.5645596981048584
1772698503386544600,1.590544677734375,0.7088139057159424,0.5181290507316589,-0.49780014157295227
1772698503396501500,1.60050146484375,0.5047950148582458,0.38553792238235474,-0.4569241404533386
1772698503406458600,1.610458740234375,0.2604302763938904,0.24849484860897064,-0.4180228114128113
1772698503416415700,1.620415771484375,0.01642454043030739,0.11721301823854446,-0.36909106373786926
1772698503426372600,1.63037255859375,-0.17690470814704895,-0.02643975429236889,-0.28884974122047424
1772698503436329700,1.640329833984375,-0.28584161400794983,-0.1669171005487442,-0.15140146017074585
1772698503446286600,1.65028662109375,-0.3230566084384918,-0.29724690318107605,0.019612889736890793
1772698503456244700,1.66024462890625,-0.3025619685649872,-0.4011150598526001,0.2097460925579071
1772698503466201600,1.67020166015625,-0.2502524256706238,-0.47019824385643005,0.38985246419906616
1772698503476158700,1.68015869140625,-0.19594398140907288,-0.4763745963573456,0.5379749536514282
1772698503486115600,1.690115478515625,-0.17528608441352844,-0.43806740641593933,0.6122452020645142
1772698503496072400,1.700072509765625,-0.17290115356445312,-0.3823288083076477,0.6234307289123535
1772698503506029600,1.710029541015625,-0.15857388079166412,-0.3142309784889221,0.5637218952178955
1772698503515986700,1.719986572265625,-0.14354915916919708,-0.23721863329410553,0.4570651054382324
1772698503525943600,1.729943603515625,-0.12217117100954056,-0.18491441011428833,0.33077773451805115
1772698503535900700,1.739900634765625,-0.07239483296871185,-0.17122869193553925,0.19905783236026764
1772698503545858600,1.749858642578125,0.011518976651132107,-0.1737120896577835,0.10393957048654556
1772698503555815700,1.759815673828125,0.09199333190917969,-0.17959628999233246,0.056050922721624374
1772698503565772500,1.7697724609375,0.1167178526520729,-0.18528640270233154,0.06162039190530777
1772698503575729700,1.779729736328125,0.09604188054800034,-0.1893777996301651,0.0687461718916893
1772698503585686800,1.789686767578125,0.03697748854756355,-0.18939004838466644,0.06020594388246536
1772698503595643600,1.7996435546875,-0.02655460685491562,-0.1890408843755722,0.03696127235889435
1772698503605600500,1.8096005859375,-0.08660782128572464,-0.18938443064689636,0.014121203683316708
1772698503615557600,1.8195576171875,-0.12399357557296753,-0.17677125334739685,0.004892807919532061
1772698503625514500,1.829514404296875,-0.12580664455890656,-0.1611531376838684,0.012293467298150063
1772698503635472600,1.83947265625,-0.10450959205627441,-0.146171435713768,0.03196944296360016
1772698503645429500,1.849429443359375,-0.04563642293214798,-0.12490823119878769,0.07265322655439377
1772698503655386600,1.85938671875,0.041988223791122437,-0.09179425239562988,0.1252150535583496
1772698503665343500,1.869343505859375,0.11575113236904144,-0.04675672948360443,0.19666606187820435
1772698503675300600,1.879300537109375,0.16529551148414612,-0.0016087298281490803,0.258528470993042
1772698503685257700,1.8892578125,0.19433274865150452,0.03928650543093681,0.2704354524612427
1772698503695214600,1.899214599609375,0.23145565390586853,0.08019968867301941,0.2326052039861679
1772698503705171700,1.909171630859375,0.2848576307296753,0.09835978597402573,0.17263400554656982
1772698503715129600,1.919129638671875,0.3360917270183563,0.11626932770013809,0.1349530667066574
1772698503725086700,1.929086669921875,0.37342336773872375,0.09676060825586319,0.1702018678188324
1772698503735043600,1.939043701171875,0.3792099356651306,0.07434546947479248,0.2513545751571655
1772698503745000700,1.949000732421875,0.3624573051929474,0.0464768223464489,0.3679320514202118
1772698503754957600,1.95895751953125,0.3150549530982971,0.06680641323328018,0.46878063678741455
1772698503764914400,1.96891455078125,0.21055303514003754,0.11889836937189102,0.5950626730918884
1772698503774871600,1.97887158203125,0.10328590869903564,0.19904683530330658,0.6925697922706604
1772698503784828700,1.98882861328125,0.07277087867259979,0.31658995151519775,0.7289685606956482
1772698503794785500,1.99878564453125,0.13562257587909698,0.42345842719078064,0.6895215511322021
1772698503804743400,2.008743408203125,0.2973549962043762,0.5181524753570557,0.5914114713668823
1772698503814700500,2.018700439453125,0.4986433684825897,0.5802023410797119,0.42834344506263733
1772698503824657700,2.02865771484375,0.672097384929657,0.6106324195861816,0.23659983277320862
1772698503834614500,2.038614501953125,0.7958801984786987,0.5889077186584473,0.0553511343896389
1772698503844571600,2.048571533203125,0.8688691854476929,0.5081870555877686,-0.1697291135787964
1772698503854528800,2.05852880859375,0.843800961971283,0.2955903708934784,-0.480571985244751
1772698503864485400,2.0684853515625,0.6939707398414612,-0.08987502753734589,-0.8404369354248047
1772698503874442500,2.0784423828125,0.3979359269142151,-0.543057918548584,-1.162165641784668
1772698503884400600,2.088400634765625,-0.08871281147003174,-0.8513241410255432,-1.4212511777877808
1772698503894357800,2.098357666015625,-0.7152520418167114,-0.8868650794029236,-1.5387643575668335
1772698503904314600,2.108314697265625,-1.2548881769180298,-0.684512734413147,-1.3607383966445923
1772698503914271500,2.118271484375,-1.552039623260498,-0.3475854694843292,-0.8096215724945068
1772698503924228600,2.128228515625,-1.559053897857666,-0.09272760897874832,-0.06890271604061127
1772698503934185500,2.138185546875,-1.3039307594299316,0.14946889877319336,0.44672781229019165
1772698503944142600,2.148142578125,-0.8264166712760925,0.31346872448921204,0.5034075975418091
1772698503954099700,2.158099609375,-0.25204363465309143,0.4113573729991913,0.12591180205345154
1772698503964056600,2.168056640625,0.29275575280189514,0.41058051586151123,-0.4803307056427002
1772698503974014500,2.178014404296875,0.6998023390769958,0.37784308195114136,-1.0296481847763062
1772698503983971600,2.1879716796875,0.9045365452766418,0.33179914951324463,-1.3314067125320435
1772698503993928700,2.1979287109375,0.9018790125846863,0.22077058255672455,-1.3785474300384521
1772698504003885600,2.207885498046875,0.7336603999137878,0.07255048304796219,-1.249383568763733
1772698504013842700,2.2178427734375,0.43472057580947876,-0.09049495309591293,-1.0294724702835083
1772698504023799600,2.227799560546875,0.03374972194433212,-0.2528146207332611,-0.7938978672027588
1772698504033756400,2.23775634765625,-0.415099173784256,-0.3640550673007965,-0.5922306776046753
1772698504043713500,2.247713623046875,-0.8490015864372253,-0.4219047725200653,-0.430572509765625
1772698504053671700,2.257671630859375,-1.2036776542663574,-0.43855923414230347,-0.29712700843811035
1772698504063628800,2.26762890625,-1.4339401721954346,-0.4214566946029663,-0.1840049922466278
1772698504073585200,2.277585205078125,-1.5080724954605103,-0.388428270816803,-0.0939006432890892
1772698504083542000,2.2875419921875,-1.3997974395751953,-0.36829400062561035,-0.009495478123426437
1772698504093499100,2.2974990234375,-1.1327641010284424,-0.35579541325569153,0.028638070449233055
1772698504103456300,2.307456298828125,-0.755646824836731,-0.3065336048603058,0.050783853977918625
1772698504113413400,2.317413330078125,-0.3777403235435486,-0.23609359562397003,0.0654682144522667
1772698504123370200,2.327370361328125,-0.06625194102525711,-0.18601711094379425,0.0926969051361084
1772698504133327400,2.337327392578125,0.154617041349411,-0.13705116510391235,0.10155381262302399
1772698504143285200,2.34728515625,0.2595016658306122,-0.08409102261066437,0.06458727270364761
1772698504153242000,2.3572421875,0.2515430152416229,-0.01299457810819149,0.013471686281263828
1772698504163199200,2.36719921875,0.1754261553287506,0.04242607206106186,0.0023303511552512646
1772698504173156400,2.37715625,0.0710582435131073,0.05820409581065178,0.04224061220884323
1772698504183113200,2.38711328125,-0.01877656951546669,0.015594584867358208,0.12994755804538727
1772698504193070000,2.397070068359375,-0.07992170751094818,-0.0233779177069664,0.25028377771377563
1772698504203027200,2.407027099609375,-0.10087358951568604,-0.05172087252140045,0.4003675580024719
1772698504212984300,2.416984375,-0.06696866452693939,-0.08070766180753708,0.5651545524597168
1772698504222941200,2.426941162109375,-0.01580214872956276,-0.10981947183609009,0.6956672668457031
1772698504232899000,2.436899169921875,-0.007133796811103821,-0.13252682983875275,0.7238144278526306
1772698504242856200,2.446856201171875,-0.04104249179363251,-0.13197314739227295,0.6226577162742615
1772698504252813300,2.456813232421875,-0.05333298072218895,-0.0914827212691307,0.4659411311149597
1772698504262770200,2.466770263671875,-0.0305499080568552,-0.056314341723918915,0.3138194978237152
1772698504272727300,2.476727294921875,0.05723215639591217,-0.044893860816955566,0.19438615441322327
1772698504282684400,2.486684326171875,0.21195834875106812,-0.0744893029332161,0.11451316624879837
1772698504292641300,2.496641357421875,0.39065831899642944,-0.13492120802402496,0.0724002942442894
1772698504302598100,2.50659814453125,0.4919964075088501,-0.18326397240161896,0.14764286577701569
1772698504312556300,2.516556396484375,0.4218277335166931,-0.22658663988113403,0.3477584719657898
1772698504322513200,2.52651318359375,0.17705471813678741,-0.24779632687568665,0.6385163068771362
1772698504332470300,2.53647021484375,-0.14178349077701569,-0.19029183685779572,0.8827465176582336
1772698504342427100,2.54642724609375,-0.39837077260017395,-0.09360471367835999,0.9692124724388123
1772698504352384300,2.55638427734375,-0.44209322333335876,-0.008888723328709602,0.8624885678291321
1772698504362341000,2.566341064453125,-0.25844112038612366,0.04944222420454025,0.5958576798439026
1772698504372298200,2.57629833984375,0.06196138262748718,0.07969674468040466,0.26968351006507874
1772698504382255400,2.58625537109375,0.4477892220020294,0.12963233888149261,0.005705641582608223
1772698504392212200,2.596212158203125,0.7763359546661377,0.23316895961761475,-0.15013937652111053
1772698504402170000,2.606170166015625,0.9466893076896667,0.30148035287857056,-0.24902281165122986
1772698504412127200,2.616127197265625,0.9712032079696655,0.33337780833244324,-0.37815991044044495
1772698504422084400,2.62608447265625,0.8520504236221313,0.3520697355270386,-0.608771562576294
1772698504432041200,2.636041259765625,0.6449499726295471,0.44415482878685,-0.9033834338188171
1772698504441998300,2.645998291015625,0.41449838876724243,0.5317248702049255,-1.1295233964920044
1772698504451955200,2.655955078125,0.27701082825660706,0.5002090334892273,-1.1553174257278442
1772698504461912000,2.665912109375,0.24876827001571655,0.3277081251144409,-0.9864367842674255
1772698504471869200,2.675869140625,0.2900770902633667,0.08694557845592499,-0.7066754698753357
1772698504481827300,2.685827392578125,0.29566121101379395,-0.110207699239254,-0.430298775434494
1772698504491784400,2.695784423828125,0.19659480452537537,-0.23953887820243835,-0.2907983958721161
1772698504501741000,2.705740966796875,0.07174873352050781,-0.2923765182495117,-0.2924591600894928
1772698504511698200,2.7156982421875,-0.02476229891180992,-0.3157769739627838,-0.37518635392189026
1772698504521655300,2.7256552734375,-0.11192090064287186,-0.3309495449066162,-0.4592277407646179
1772698504531612200,2.735612060546875,-0.22298835217952728,-0.30897220969200134,-0.46912336349487305
1772698504541569300,2.7455693359375,-0.3880143165588379,-0.2549033761024475,-0.3959154486656189
1772698504551526400,2.7555263671875,-0.5564057230949402,-0.20659139752388,-0.263701856136322
1772698504561483300,2.765483154296875,-0.6448463201522827,-0.21005776524543762,-0.11313524097204208
1772698504571441200,2.775441162109375,-0.6173774600028992,-0.23848922550678253,0.041664741933345795
1772698504581398300,2.785398193359375,-0.5229372382164001,-0.2789171040058136,0.19523672759532928
1772698504591355400,2.79535546875,-0.44390711188316345,-0.31334367394447327,0.2874920666217804
1772698504601312300,2.805312255859375,-0.3656173646450043,-0.31716904044151306,0.2754782736301422
1772698504611269000,2.81526904296875,-0.30605047941207886,-0.274053692817688,0.16834671795368195
1772698504621226200,2.825226318359375,-0.27553170919418335,-0.2295844703912735,0.019506096839904785
1772698504631183000,2.83518310546875,-0.24519886076450348,-0.1977304220199585,-0.11841178685426712
1772698504641140200,2.84514013671875,-0.19292765855789185,-0.17464320361614227,-0.23471257090568542
1772698504651097300,2.855097412109375,-0.11368075013160706,-0.1662464439868927,-0.2993405759334564
1772698504661055200,2.86505517578125,-0.032801609486341476,-0.1656741201877594,-0.25379547476768494
1772698504671012000,2.87501220703125,0.020883463323116302,-0.16965152323246002,-0.1246735155582428
1772698504680969200,2.88496923828125,0.017160365357995033,-0.17432670295238495,0.03255312517285347
1772698504690926300,2.89492626953125,-0.03594919294118881,-0.16159386932849884,0.1638890504837036
1772698504700883200,2.90488330078125,-0.12033198773860931,-0.13681235909461975,0.24443502724170685
1772698504710840300,2.91484033203125,-0.19686348736286163,-0.08643701672554016,0.27715927362442017
1772698504720797200,2.924797119140625,-0.2235155999660492,-0.024742230772972107,0.28237026929855347
1772698504730754000,2.934754150390625,-0.17453531920909882,0.0490168035030365,0.28135234117507935
1772698504740711200,2.944711181640625,-0.045958444476127625,0.11098536849021912,0.28785789012908936
1772698504750669300,2.95466943359375,0.1286972612142563,0.15906792879104614,0.29155197739601135
1772698504760626400,2.96462646484375,0.31946614384651184,0.19810108840465546,0.2991712689399719
1772698504770583000,2.9745830078125,0.47097048163414,0.230462908744812,0.3077089190483093
1772698504780540200,2.9845400390625,0.5462982654571533,0.2562422752380371,0.3017871081829071
1772698504790497300,2.994497314453125,0.5465224981307983,0.27444741129875183,0.2776399254798889
1772698504800454100,3.0044541015625,0.48566287755966187,0.29929685592651367,0.23124180734157562
1772698504810411300,3.014411376953125,0.396185964345932,0.2921735644340515,0.20213492214679718
1772698504820368400,3.024368408203125,0.32559433579444885,0.24946124851703644,0.2183687537908554
1772698504830326300,3.034326171875,0.2514657974243164,0.18794305622577667,0.29984593391418457
1772698504840283100,3.044283203125,0.16039900481700897,0.15117092430591583,0.436626672744751
1772698504850240300,3.054240234375,0.06797561794519424,0.11842183768749237,0.5899840593338013
1772698504860197400,3.064197265625,-0.015343239530920982,0.09936612099409103,0.7093919515609741
1772698504870154200,3.074154296875,-0.02856021374464035,0.12513870000839233,0.715480387210846
1772698504880111000,3.084111083984375,0.06336651742458344,0.19181466102600098,0.5956826210021973
1772698504890068200,3.094068115234375,0.22676818072795868,0.2555258274078369,0.4560227394104004
1772698504900025000,3.104025146484375,0.4261598289012909,0.26473450660705566,0.4090946614742279
1772698504909982200,3.113982177734375,0.5912603735923767,0.21387512981891632,0.45872241258621216
1772698504919940400,3.1239404296875,0.6263645887374878,0.15787765383720398,0.5265398025512695
1772698504929897200,3.133897216796875,0.5128790140151978,0.09146957099437714,0.5590224266052246
1772698504939854000,3.14385400390625,0.32397809624671936,0.007895315997302532,0.5142145156860352
1772698504949811200,3.153811279296875,0.12761148810386658,-0.1122327670454979,0.2944781184196472
1772698504959768300,3.163768310546875,-0.034390728920698166,-0.29619887471199036,-0.13247746229171753
1772698504969725200,3.17372509765625,-0.16345547139644623,-0.4927499294281006,-0.6994913816452026
1772698504979682300,3.183682373046875,-0.26991721987724304,-0.5828846096992493,-1.1599013805389404
1772698504989639200,3.19363916015625,-0.32253700494766235,-0.4883587062358856,-1.2461110353469849
1772698504999596000,3.203595947265625,-0.3316199779510498,-0.2989371120929718,-0.8468718528747559
1772698505009554200,3.21355419921875,-0.3102332055568695,-0.14278097450733185,-0.17043772339820862
1772698505019511300,3.22351123046875,-0.24659322202205658,-0.06618553400039673,0.43289899826049805
1772698505029468400,3.233468505859375,-0.1865602731704712,-0.054210156202316284,0.6119440197944641
1772698505039425000,3.243425048828125,-0.13525819778442383,-0.056749213486909866,0.38813838362693787
1772698505049382100,3.253382080078125,-0.1253102421760559,-0.11187054961919785,-0.03449241444468498
1772698505059339300,3.26333935546875,-0.18562524020671844,-0.14756356179714203,-0.3914310932159424
1772698505069297000,3.273296875,-0.32656291127204895,-0.13581497967243195,-0.5513036847114563
1772698505079253800,3.283253662109375,-0.4810808598995209,-0.10931387543678284,-0.5408497452735901
1772698505089211600,3.293211669921875,-0.5614233613014221,-0.08107742667198181,-0.40474921464920044
1772698505099168800,3.303168701171875,-0.5588531494140625,-0.07947047054767609,-0.2461680918931961
1772698505109125600,3.313125732421875,-0.4897313117980957,-0.06113264709711075,-0.13515105843544006
1772698505119082800,3.323082763671875,-0.3922092616558075,-0.06118910759687424,-0.09675946086645126
1772698505129040000,3.333039794921875,-0.31744396686553955,-0.05135682225227356,-0.1437482088804245
1772698505138996700,3.342996826171875,-0.288156121969223,-0.0222905483096838,-0.23473963141441345
1772698505148953600,3.35295361328125,-0.2888653576374054,0.013529382646083832,-0.3241160213947296
1772698505158910700,3.36291064453125,-0.26860350370407104,0.07131065428256989,-0.3818219304084778
1772698505168868900,3.372868896484375,-0.21479052305221558,0.11491510272026062,-0.38305628299713135
1772698505178825700,3.38282568359375,-0.15368376672267914,0.16677351295948029,-0.29274237155914307
1772698505188782600,3.392782470703125,-0.1048119068145752,0.1965721994638443,-0.1513432413339615
1772698505198739700,3.40273974609375,-0.08277957141399384,0.20446926355361938,-0.0032874769531190395
1772698505208696600,3.412696533203125,-0.07653816789388657,0.19861356914043427,0.10569581389427185
1772698505218653700,3.42265380859375,-0.08264718949794769,0.18739287555217743,0.153427392244339
1772698505228610800,3.43261083984375,-0.09228222817182541,0.15699373185634613,0.1811874955892563
1772698505238568000,3.44256787109375,-0.09235253185033798,0.12798258662223816,0.22609105706214905
1772698505248524500,3.452524658203125,-0.09318237751722336,0.09820818901062012,0.2711099088191986
1772698505258481700,3.462481689453125,-0.09293150156736374,0.08654514700174332,0.29763710498809814
1772698505268439800,3.472439697265625,-0.09073387831449509,0.0906149297952652,0.2868863642215729
1772698505278396700,3.482396728515625,-0.0699058324098587,0.099436916410923,0.24892912805080414
1772698505288353800,3.492353759765625,-0.026958368718624115,0.10251711308956146,0.19633306562900543
1772698505298310700,3.502310546875,0.02885136939585209,0.09861505031585693,0.17202533781528473
1772698505308267800,3.512267822265625,0.09002607315778732,0.0779561996459961,0.18115386366844177
1772698505318224600,3.522224609375,0.12625758349895477,0.04644673690199852,0.18849806487560272
1772698505328181800,3.532181640625,0.12237734347581863,0.02858329564332962,0.18388529121875763
1772698505338139000,3.542138916015625,0.10262414813041687,0.024343542754650116,0.17771047353744507
1772698505348096500,3.552096435546875,0.10671819746494293,0.020912524312734604,0.1942068487405777
1772698505358053600,3.5620537109375,0.15831348299980164,0.0073671527206897736,0.2365143597126007
1772698505368010800,3.5720107421875,0.2348799705505371,0.0027119279839098454,0.2753097116947174
1772698505377967900,3.5819677734375,0.2806035280227661,0.011217797175049782,0.2980123460292816
1772698505387924700,3.5919248046875,0.29098179936408997,0.03868626430630684,0.31589552760124207
1772698505397881900,3.6018818359375,0.24506384134292603,0.056049276143312454,0.33667030930519104
1772698505407838700,3.611838623046875,0.16138842701911926,0.04278338700532913,0.3567805290222168
1772698505417795600,3.621795654296875,0.06831839680671692,0.007107682526111603,0.38354024291038513
1772698505427752700,3.631752685546875,0.005648839753121138,-0.037094321101903915,0.42935889959335327
1772698505437710800,3.6417109375,-0.0016748529160395265,-0.05325065180659294,0.5001060366630554
1772698505447667700,3.651667724609375,0.06365646421909332,-0.05244751647114754,0.576728105545044
1772698505457624600,3.66162451171875,0.20836196839809418,-0.03665070980787277,0.5931302309036255
1772698505467581700,3.671581787109375,0.38133618235588074,0.0007740124128758907,0.5195488333702087
1772698505477538800,3.681538818359375,0.5232664346694946,0.020921358838677406,0.2960640788078308
1772698505487495700,3.69149560546875,0.5791594982147217,-0.016318457201123238,-0.05110148340463638
1772698505497452800,3.701452880859375,0.5442819595336914,-0.12076044827699661,-0.4312450885772705
1772698505507410000,3.711409912109375,0.34960970282554626,-0.3188808858394623,-0.7340264916419983
1772698505517367800,3.721367919921875,-0.06765756756067276,-0.5693845152854919,-0.8390607833862305
1772698505527324700,3.73132470703125,-0.687109649181366,-0.7575494050979614,-0.7120836973190308
1772698505537281800,3.74128173828125,-1.3530136346817017,-0.8463301658630371,-0.35861456394195557
1772698505547239000,3.751239013671875,-1.903647780418396,-0.7828962206840515,0.13745078444480896
1772698505557195800,3.76119580078125,-2.1712045669555664,-0.5881163477897644,0.5113101601600647
1772698505567152600,3.771152587890625,-2.051182985305786,-0.27077165246009827,0.5043587684631348
1772698505577109800,3.78110986328125,-1.4667232036590576,0.13687145709991455,0.2203368842601776
1772698505587066600,3.791066650390625,-0.48347344994544983,0.5054935216903687,-0.07688675075769424
1772698505597024800,3.801024658203125,0.6480082869529724,0.8142849206924438,-0.27270206809043884
1772698505606981600,3.810981689453125,1.699293613433838,1.1114084720611572,-0.413810670375824
1772698505616938800,3.820938720703125,2.4898037910461426,1.3502599000930786,-0.530205488204956
1772698505626895600,3.8308955078125,2.949366807937622,1.4684683084487915,-0.5839467644691467
1772698505636852700,3.840852783203125,3.0461456775665283,1.3961834907531738,-0.5174068808555603
1772698505646809900,3.850809814453125,2.7436881065368652,1.1250029802322388,-0.3204849660396576
1772698505656766700,3.8607666015625,2.070136308670044,0.7015364170074463,-0.03075755015015602
1772698505666723800,3.870723876953125,1.0942074060440063,0.23413562774658203,0.31328731775283813
1772698505676680700,3.8806806640625,-0.003059419570490718,-0.16469459235668182,0.6104105710983276
1772698505686637600,3.890637451171875,-0.9994158744812012,-0.3812364637851715,0.835059642791748
1772698505696595700,3.900595703125,-1.7151974439620972,-0.42625749111175537,0.9762215614318848
1772698505706552800,3.910552734375,-2.0520379543304443,-0.3921912610530853,1.020369052886963
1772698505716509700,3.920509765625,-1.9765914678573608,-0.31343546509742737,0.9362548589706421
1772698505726466600,3.930466552734375,-1.5634491443634033,-0.23772203922271729,0.7049856781959534
1772698505736423700,3.940423583984375,-0.9330641031265259,-0.1708788275718689,0.3485644459724426
1772698505746380800,3.950380859375,-0.24671252071857452,-0.12546932697296143,-0.06637001782655716
1772698505756337700,3.960337646484375,0.30830836296081543,-0.06794638186693192,-0.47395482659339905
1772698505766294800,3.970294677734375,0.6249949336051941,0.0035763857886195183,-0.7820131182670593
1772698505776252700,3.980252685546875,0.7005780935287476,0.10212612897157669,-0.9356705546379089
1772698505786209800,3.990209716796875,0.5946764349937439,0.19290558993816376,-0.9645787477493286
1772698505796166700,4.000166748046875,0.388161838054657,0.2812999188899994,-0.9165292382240295
1772698505806123800,4.010123779296875,0.17117762565612793,0.3286040723323822,-0.8275869488716125
1772698505816081000,4.020080810546875,0.0025049890391528606,0.3573824465274811,-0.7113175988197327
1772698505826037800,4.030037841796875,-0.09789615869522095,0.38971492648124695,-0.5635411143302917
1772698505835994600,4.03999462890625,-0.15482096374034882,0.4133496880531311,-0.3992243707180023
1772698505845951700,4.04995166015625,-0.18020835518836975,0.4487776458263397,-0.2567858099937439
1772698505855908600,4.05990869140625,-0.17451106011867523,0.49519920349121094,-0.18110676109790802
1772698505865866800,4.06986669921875,-0.10987694561481476,0.5694824457168579,-0.1595129817724228
1772698505875823600,4.07982373046875,-0.012394864112138748,0.6487293243408203,-0.16211755573749542
1772698505885780700,4.08978076171875,0.0946979969739914,0.714847207069397,-0.17390665411949158
1772698505895737600,4.099737548828125,0.21758610010147095,0.7431041598320007,-0.19308674335479736
1772698505905694700,4.10969482421875,0.36011025309562683,0.7594878077507019,-0.19564874470233917
1772698505915651800,4.11965185546875,0.4499295949935913,0.7399969100952148,-0.1550895869731903
1772698505925608700,4.129608642578125,0.4376985430717468,0.7141216993331909,-0.058187734335660934
1772698505935565800,4.13956591796875,0.3520049452781677,0.6928257346153259,0.0649978443980217
1772698505945522700,4.149522705078125,0.2214847207069397,0.6565722823143005,0.18459317088127136
1772698505955480800,4.159480712890625,0.08356600254774094,0.5837979316711426,0.2562154233455658
1772698505965437700,4.169437744140625,-0.03635772317647934,0.5281291604042053,0.27545449137687683
1772698505975394800,4.179394775390625,-0.13940076529979706,0.5058627128601074,0.2838974893093109
1772698505985351700,4.1893515625,-0.20330412685871124,0.5137178897857666,0.2587835490703583
1772698505995308500,4.19930859375,-0.1674097776412964,0.5579748749732971,0.21632584929466248
1772698506005265700,4.209265625,-0.027616942301392555,0.6518151760101318,0.19447259604930878
1772698506015222800,4.219222900390625,0.17729465663433075,0.7236824631690979,0.24134503304958344
1772698506025179600,4.2291796875,0.38477542996406555,0.7502885460853577,0.3267136514186859
1772698506035137500,4.239137451171875,0.5759860873222351,0.7228390574455261,0.505306601524353
1772698506045094700,4.2490947265625,0.6579059958457947,0.5338507294654846,0.6422932744026184
1772698506055051800,4.2590517578125,0.5011062622070312,-0.036232706159353256,0.6323032379150391
1772698506065008600,4.269008544921875,0.02278415486216545,-0.661332368850708,0.1284988969564438
1772698506074965800,4.2789658203125,-0.6445909738540649,-1.1402426958084106,-0.8827542662620544
1772698506084923000,4.2889228515625,-1.367846131324768,-1.1761698722839355,-1.745962381362915
1772698506094879700,4.298879638671875,-2.0137946605682373,-0.81902676820755,-1.860116958618164
1772698506104836600,4.308836669921875,-2.3024954795837402,-0.16100823879241943,-1.1598467826843262
1772698506114793700,4.318793701171875,-2.1274874210357666,0.26820462942123413,0.0008625737391412258
1772698506124752000,4.328751953125,-1.516171932220459,0.583473801612854,1.1781179904937744
1772698506134708700,4.338708740234375,-0.6013697385787964,0.5862962603569031,1.8542195558547974
1772698506144665600,4.34866552734375,0.30247122049331665,0.5316498875617981,1.6325089931488037
1772698506154622700,4.358622802734375,0.9014353156089783,0.3709488809108734,0.6657983660697937
1772698506164579600,4.36857958984375,1.074060320854187,0.2854326665401459,-0.560126006603241
1772698506174536700,4.37853662109375,0.926937997341156,0.22203822433948517,-1.4803224802017212
1772698506184493800,4.388493896484375,0.6626392006874084,0.23818907141685486,-1.7436203956604004
1772698506194450700,4.39845068359375,0.3780156970024109,0.22734494507312775,-1.4100395441055298
1772698506204408600,4.40840869140625,0.11742865294218063,0.13603197038173676,-0.7169478535652161
1772698506214365700,4.41836572265625,-0.12898805737495422,-0.017920568585395813,0.07259447872638702
1772698506224322800,4.42832275390625,-0.3406129777431488,-0.15358074009418488,0.7391296625137329
1772698506234279700,4.43827978515625,-0.5105199813842773,-0.20641013979911804,1.0549732446670532
1772698506244236800,4.44823681640625,-0.5971259474754333,-0.18717564642429352,1.0351349115371704
1772698506254193700,4.458193603515625,-0.5874296426773071,-0.1482170671224594,0.7911931276321411
1772698506264150500,4.468150634765625,-0.4820614457130432,-0.13377133011817932,0.46161726117134094
1772698506274107600,4.478107666015625,-0.30010735988616943,-0.12460526078939438,0.16957367956638336
1772698506284064800,4.488064697265625,-0.05586006119847298,-0.10884495079517365,-0.02971542999148369
1772698506294023000,4.49802294921875,0.1913401484489441,-0.07693549245595932,-0.14135460555553436
1772698506303979500,4.5079794921875,0.39229750633239746,-0.04054706543684006,-0.17124851047992706
1772698506313936600,4.5179365234375,0.5053990483283997,-0.013730362057685852,-0.15219146013259888
1772698506323893800,4.527893798828125,0.5344357490539551,-0.02132987603545189,-0.10284946858882904
1772698506333850600,4.5378505859375,0.4709143042564392,-0.042611993849277496,-0.03960977867245674
1772698506343807700,4.547807861328125,0.3253419101238251,-0.07866057753562927,0.0284908227622509
1772698506353764900,4.557764892578125,0.15363620221614838,-0.12464644014835358,0.07308758795261383
1772698506363721700,4.5677216796875,-0.0049230922013521194,-0.16196030378341675,0.05464397370815277
1772698506373678600,4.5776787109375,-0.1353231817483902,-0.2099323570728302,-0.004180461633950472
1772698506383636700,4.58763671875,-0.20843623578548431,-0.2498599886894226,-0.09727014601230621
1772698506393593900,4.59759375,-0.23507823050022125,-0.2958389222621918,-0.19919224083423615
1772698506403550700,4.60755078125,-0.239158496260643,-0.3503571152687073,-0.2757387161254883
1772698506413507600,4.617507568359375,-0.21915203332901,-0.39729586243629456,-0.3163420557975769
1772698506423464700,4.627464599609375,-0.21518366038799286,-0.4130111634731293,-0.32039809226989746
1772698506433421600,4.637421630859375,-0.2158430516719818,-0.38884270191192627,-0.2930636703968048
1772698506443378700,4.647378662109375,-0.21023519337177277,-0.3289467692375183,-0.22464719414710999
1772698506453335800,4.657335693359375,-0.17676112055778503,-0.23303914070129395,-0.11721020936965942
1772698506463293700,4.667293701171875,-0.12071654200553894,-0.13530951738357544,-0.0009460162837058306
1772698506473250600,4.67725048828125,-0.029932042583823204,-0.04571092873811722,0.08329722285270691
1772698506483207700,4.687207763671875,0.08346672356128693,0.019415471702814102,0.10315121710300446
1772698506493164800,4.697164794921875,0.19817465543746948,0.06845758110284805,0.07900886237621307
1772698506503121700,4.70712158203125,0.2963102459907532,0.10280529409646988,0.03668368607759476
1772698506513078800,4.717078857421875,0.3724795877933502,0.11910144984722137,0.00974980928003788
1772698506523035600,4.72703564453125,0.4203195571899414,0.0985722467303276,-0.009077820926904678
1772698506532992800,4.73699267578125,0.4411254823207855,0.07509008795022964,-0.02028999663889408
1772698506542949600,4.74694970703125,0.43099671602249146,0.05596543103456497,-0.022681090980768204
1772698506552906800,4.75690673828125,0.39086607098579407,0.05203673616051674,-0.023839034140110016
1772698506562865000,4.766864990234375,0.32224196195602417,0.03269967436790466,-0.003357095643877983
1772698506572821500,4.776821533203125,0.25817403197288513,-0.0124526247382164,0.03885826840996742
1772698506582778600,4.786778564453125,0.20401015877723694,-0.08532566577196121,0.07203616946935654
1772698506592735700,4.79673583984375,0.16709156334400177,-0.16617177426815033,0.11130820959806442
1772698506602692600,4.806692626953125,0.14190393686294556,-0.23123088479042053,0.17037799954414368
1772698506612649700,4.816649658203125,0.09033341705799103,-0.31694579124450684,0.2932615876197815
1772698506622606800,4.82660693359375,0.021871279925107956,-0.4055754840373993,0.4259190857410431
1772698506632563700,4.836563720703125,-0.029052887111902237,-0.4801304042339325,0.5031635165214539
1772698506642521600,4.846521484375,-0.06634493917226791,-0.5610750317573547,0.534085750579834
1772698506652478700,4.856478759765625,-0.05361183360219002,-0.6450974941253662,0.5319325923919678
1772698506662435800,4.866435791015625,-0.028839077800512314,-0.7301933765411377,0.5066508650779724
1772698506672392700,4.876392822265625,-0.05348237231373787,-0.8757809400558472,0.45200732350349426
1772698506682349600,4.886349609375,-0.20427851378917694,-1.048269510269165,0.35518696904182434
1772698506692306700,4.896306640625,-0.48222917318344116,-1.1707264184951782,0.16757525503635406
1772698506702263800,4.906263916015625,-0.8258281350135803,-1.1648420095443726,-0.06342654675245285
1772698506712220700,4.916220703125,-1.1610578298568726,-1.0139188766479492,-0.21291111409664154
1772698506722178800,4.9261787109375,-1.3689159154891968,-0.7406452894210815,-0.25815021991729736
1772698506732135700,4.9361357421875,-1.3505710363388062,-0.43885374069213867,-0.2102053463459015
1772698506742092500,4.946092529296875,-1.096253514289856,-0.13176429271697998,-0.15235908329486847
1772698506752049700,4.956049560546875,-0.6972419023513794,0.2024850696325302,-0.17501646280288696
1772698506762006800,4.9660068359375,-0.2189488261938095,0.51140958070755,-0.3025251030921936
1772698506771964000,4.9759638671875,0.29225558042526245,0.7342240214347839,-0.48146235942840576
1772698506781920800,4.985920654296875,0.7791975736618042,0.8486049771308899,-0.6671234369277954
1772698506791877600,4.995877685546875,1.1478272676467896,0.8845363855361938,-0.8227351903915405
1772698506801834800,5.005834716796875,1.3402081727981567,0.8592516779899597,-0.9178591966629028
1772698506811792600,5.015792724609375,1.3364660739898682,0.7305139303207397,-0.8977262377738953
1772698506821749800,5.025749755859375,1.1827112436294556,0.5424423217773438,-0.7525139451026917
1772698506831707000,5.035706787109375,0.9149684309959412,0.3203037679195404,-0.49005115032196045
1772698506841663700,5.045663818359375,0.5536693334579468,0.10738599300384521,-0.17427507042884827
1772698506851620600,5.05562060546875,0.1464989334344864,-0.06603506207466125,0.08668355643749237
1772698506861577700,5.06557763671875,-0.23579731583595276,-0.18285199999809265,0.23817788064479828
1772698506871534800,5.075534912109375,-0.5295407772064209,-0.2310459017753601,0.2827664017677307
1772698506881491700,5.08549169921875,-0.7081949710845947,-0.23542839288711548,0.2734370827674866
1772698506891448800,5.09544873046875,-0.7573398947715759,-0.24109506607055664,0.26358842849731445
1772698506901406700,5.10540673828125,-0.6638479828834534,-0.25382277369499207,0.23574402928352356
1772698506911363600,5.115363525390625,-0.45934435725212097,-0.24570731818675995,0.18171115219593048
1772698506921320700,5.12532080078125,-0.22902782261371613,-0.2255895882844925,0.11288217455148697
1772698506931277800,5.13527783203125,-0.021467706188559532,-0.2000916749238968,0.04110945016145706
1772698506941235000,5.14523486328125,0.11756392568349838,-0.15670888125896454,-0.027380406856536865
1772698506951191600,5.155191650390625,0.16863828897476196,-0.11198720335960388,-0.07434844970703125
1772698506961148700,5.165148681640625,0.15840379893779755,-0.06861111521720886,-0.07843143492937088
1772698506971105800,5.175105712890625,0.1059480533003807,-0.032899726182222366,-0.0599760003387928
1772698506981063700,5.185063720703125,0.05432909354567528,-0.011939753778278828,-0.018948696553707123
1772698506991020800,5.195020751953125,0.02142440527677536,0.006067476235330105,0.020621083676815033
1772698507000977700,5.204977783203125,0.03830479085445404,0.03438040614128113,0.08047890663146973
1772698507010934800,5.214934814453125,0.09446579217910767,0.06136168912053108,0.1504097878932953
1772698507020891600,5.2248916015625,0.18557658791542053,0.10819809138774872,0.20380158722400665
1772698507030848800,5.234848876953125,0.28688961267471313,0.19157421588897705,0.22690798342227936
1772698507040806000,5.244805908203125,0.3976680338382721,0.27590411901474,0.2352098673582077
1772698507050762800,5.2547626953125,0.523384690284729,0.3284754157066345,0.23552492260932922
1772698507060719600,5.2647197265625,0.6635578274726868,0.3440694212913513,0.22330962121486664
1772698507070678000,5.274677978515625,0.7619792222976685,0.3044554591178894,0.1880035698413849
1772698507080635000,5.284634765625,0.7645938396453857,0.2439262717962265,0.10960637778043747
1772698507090592000,5.294592041015625,0.6860635876655579,0.1897200345993042,0.030516617000102997
1772698507100548900,5.304548828125,0.5763939023017883,0.14049288630485535,0.026627952232956886
1772698507110505700,5.314505615234375,0.45626160502433777,0.07180890440940857,0.12734657526016235
1772698507120462800,5.324462890625,0.32543379068374634,-0.029167920351028442,0.2884104549884796
1772698507130420000,5.334419921875,0.24066109955310822,-0.09840797632932663,0.4650685787200928
1772698507140377000,5.344377197265625,0.19843585789203644,-0.07419992983341217,0.6339159607887268
1772698507150334000,5.354333984375,0.15010614693164825,0.00803555827587843,0.7710713744163513
1772698507160291800,5.364291748046875,0.10966553539037704,0.1160217747092247,0.8206969499588013
1772698507170249000,5.3742490234375,0.11454684287309647,0.21289320290088654,0.7412282228469849
1772698507180205800,5.384205810546875,0.18746574223041534,0.2613932192325592,0.5823302865028381
1772698507190163000,5.394162841796875,0.3210640251636505,0.24155429005622864,0.3846571743488312
1772698507200120000,5.4041201171875,0.48630255460739136,0.15719616413116455,0.2155856043100357
1772698507210077000,5.414076904296875,0.60541832447052,0.0004084073007106781,0.10538240522146225
1772698507220033800,5.42403369140625,0.5418020486831665,-0.3094741702079773,0.0516800582408905
1772698507229991000,5.433990966796875,0.1715797483921051,-0.7599361538887024,0.017699986696243286
1772698507239949000,5.443948974609375,-0.5043891072273254,-1.0994179248809814,-0.08511631190776825
1772698507249906000,5.453906005859375,-1.3252544403076172,-1.1645324230194092,-0.2534584403038025
1772698507259862800,5.46386279296875,-2.043503522872925,-0.8905642032623291,-0.345073401927948
1772698507269820000,5.47381982421875,-2.446796178817749,-0.45506200194358826,-0.3460369408130646
1772698507279776800,5.48377685546875,-2.3427929878234863,-0.0717930942773819,-0.2759720981121063
1772698507289734000,5.49373388671875,-1.6749460697174072,0.10901769995689392,-0.15158437192440033
1772698507299691000,5.50369091796875,-0.6684741973876953,0.10212866961956024,-0.08742067217826843
1772698507309648100,5.513648193359375,0.25356975197792053,0.04748725891113281,-0.18542447686195374
1772698507319605000,5.52360498046875,0.7800074219703674,0.10297943651676178,-0.49731332063674927
1772698507329563000,5.53356298828125,0.9585263133049011,0.23654654622077942,-0.8570376634597778
1772698507339520000,5.54352001953125,0.9446048736572266,0.3254503905773163,-1.0465649366378784
1772698507349476900,5.553476806640625,0.8325473070144653,0.289501428604126,-0.9926382303237915
1772698507359434000,5.56343408203125,0.6446919441223145,0.15723907947540283,-0.7802035212516785
1772698507369390800,5.573390869140625,0.3404068946838379,0.023079145699739456,-0.5463976860046387
1772698507379348000,5.583347900390625,-0.07947724312543869,-0.0734345018863678,-0.35908931493759155
1772698507389304800,5.593304931640625,-0.5249233841896057,-0.11517129093408585,-0.20917066931724548
1772698507399262000,5.603261962890625,-0.8720816373825073,-0.1237805038690567,-0.06678632646799088
1772698507409219000,5.613218994140625,-1.01416015625,-0.11593323200941086,0.0959157645702362
1772698507419176700,5.6231767578125,-0.9789953231811523,-0.09019893407821655,0.2390742301940918
1772698507429133800,5.6331337890625,-0.7794616222381592,-0.052123185247182846,0.3329317569732666
1772698507439091000,5.643091064453125,-0.4423486590385437,0.006187567487359047,0.3456730246543884
1772698507449048000,5.653048095703125,-0.06528767198324203,0.07968095690011978,0.275921106338501
1772698507459005000,5.6630048828125,0.2818428874015808,0.1588563174009323,0.14837346971035004
1772698507468962000,5.672962158203125,0.5329211950302124,0.23034994304180145,0.008015025407075882
1772698507478919000,5.6829189453125,0.6550362706184387,0.30624350905418396,-0.07337271422147751
1772698507488875800,5.692875732421875,0.6739108562469482,0.37877151370048523,-0.04581432417035103
1772698507498834000,5.702833984375,0.6048057675361633,0.4137791693210602,0.058970242738723755
1772698507508791000,5.712791015625,0.4832378029823303,0.39081448316574097,0.18287567794322968
1772698507518748200,5.722748046875,0.32845908403396606,0.32867714762687683,0.26666727662086487
1772698507528704800,5.732704833984375,0.18092688918113708,0.2600264549255371,0.28843116760253906
1772698507538662000,5.742661865234375,0.0643656775355339,0.1805807203054428,0.23971474170684814
1772698507548619000,5.752618896484375,-0.006175069138407707,0.124189093708992,0.1289117932319641
1772698507558575900,5.762575927734375,-0.04443027824163437,0.0976574644446373,-0.022226151078939438
1772698507568533000,5.772532958984375,-0.04596106335520744,0.08494672924280167,-0.1539495587348938
1772698507578490000,5.782489990234375,-0.010531777516007423,0.06489978730678558,-0.24208873510360718
1772698507588448000,5.792447998046875,0.04413892328739166,0.04942016303539276,-0.28031787276268005
1772698507598404900,5.80240478515625,0.08946257829666138,0.04616375267505646,-0.2846578359603882
1772698507608362000,5.812362060546875,0.1309807300567627,0.06121567636728287,-0.2559031546115875
1772698507618319000,5.822319091796875,0.17710372805595398,0.0844024121761322,-0.17523178458213806
1772698507628276000,5.83227587890625,0.2271525114774704,0.11238157749176025,-0.059312108904123306
1772698507638232800,5.84223291015625,0.283183753490448,0.13190987706184387,0.06571145355701447
1772698507648190000,5.85218994140625,0.33614712953567505,0.1241888478398323,0.15576225519180298
1772698507658146800,5.862146728515625,0.3401118218898773,0.08223194628953934,0.19716279208660126
1772698507668104000,5.87210400390625,0.261650025844574,0.030346911400556564,0.2053176462650299
1772698507678062000,5.88206201171875,0.11145386844873428,0.007027463521808386,0.20007765293121338
1772698507688019000,5.89201904296875,-0.06709936261177063,0.012944741174578667,0.18170663714408875
1772698507697975800,5.901975830078125,-0.21779248118400574,0.010545426979660988,0.16897933185100555
1772698507707933000,5.911932861328125,-0.29311493039131165,-0.011989708989858627,0.16902275383472443
1772698507717890000,5.92189013671875,-0.32461002469062805,-0.030738143250346184,0.1455971896648407
1772698507727847000,5.931846923828125,-0.31244683265686035,-0.06094131991267204,0.09030544012784958
1772698507737804000,5.941803955078125,-0.24203228950500488,-0.09618547558784485,0.0035864291712641716
1772698507747761000,5.951760986328125,-0.09081241488456726,-0.10328333079814911,-0.08368828892707825
1772698507757719000,5.961718994140625,0.07454323768615723,-0.09985965490341187,-0.12331028282642365
1772698507767676000,5.971676025390625,0.17484720051288605,-0.11550918966531754,-0.1496545374393463
1772698507777633000,5.981633056640625,0.20093072950839996,-0.18317770957946777,-0.22703590989112854
1772698507787590100,5.991590087890625,0.17758625745773315,-0.34871765971183777,-0.37467488646507263
1772698507797546800,6.001546630859375,0.0902458056807518,-0.6252583265304565,-0.5224418640136719
1772698507807504000,6.01150390625,-0.12299004197120667,-0.9068250060081482,-0.5865721106529236
1772698507817461000,6.0214609375,-0.47583094239234924,-1.1181305646896362,-0.5352745652198792
1772698507827417900,6.03141796875,-0.9245588779449463,-1.1465915441513062,-0.3823094964027405
1772698507837375000,6.041375,-1.368912935256958,-1.0483744144439697,-0.13459056615829468
1772698507847332900,6.051332763671875,-1.6561626195907593,-0.8693836331367493,0.14411456882953644
1772698507857290000,6.0612900390625,-1.6929723024368286,-0.6274944543838501,0.36673176288604736
1772698507867246800,6.071246826171875,-1.4822890758514404,-0.3287668526172638,0.4104989469051361
1772698507877204000,6.081203857421875,-1.0478297472000122,-0.08441708981990814,0.27151253819465637
1772698507887161000,6.0911611328125,-0.4699203372001648,0.08466727286577225,0.03898739442229271
1772698507897118000,6.101117919921875,0.13629817962646484,0.19640550017356873,-0.19143345952033997
1772698507907074800,6.11107470703125,0.6410407423973083,0.26781362295150757,-0.35278213024139404
1772698507917032000,6.121031982421875,0.9596461653709412,0.29789039492607117,-0.4365614354610443
1772698507926990000,6.130989990234375,1.0592156648635864,0.28795626759529114,-0.4302372336387634
1772698507936947000,6.140947021484375,0.9376114010810852,0.24932077527046204,-0.3601475656032562
1772698507946904000,6.150904052734375,0.648916482925415,0.20391230285167694,-0.28633859753608704
1772698507956861000,6.16086083984375,0.2545279562473297,0.1710965484380722,-0.24035030603408813
1772698507966817800,6.17081787109375,-0.14289532601833344,0.15132363140583038,-0.2320910394191742
1772698507976775000,6.18077490234375,-0.4518832564353943,0.14951322972774506,-0.20410124957561493
1772698507986732000,6.19073193359375,-0.6345420479774475,0.14400236308574677,-0.13429607450962067
1772698507996689000,6.20068896484375,-0.6284710764884949,0.1513531357049942,0.007771805394440889
1772698508006646000,6.21064599609375,-0.4676893949508667,0.1960550993680954,0.23630911111831665
1772698508016604000,6.22060400390625,-0.24188047647476196,0.26659324765205383,0.4830624759197235
1772698508026561000,6.23056103515625,0.017906876280903816,0.34176602959632874,0.6478935480117798
1772698508036518000,6.240517822265625,0.29423248767852783,0.3890265226364136,0.6732429265975952
1772698508046475000,6.25047509765625,0.5437941551208496,0.3985297381877899,0.5770740509033203
1772698508056432000,6.26043212890625,0.7078719735145569,0.3949224352836609,0.4009282886981964
1772698508066388700,6.270388671875,0.759489893913269,0.36630064249038696,0.17193879187107086
1772698508076346000,6.28034619140625,0.7080639600753784,0.3315356373786926,-0.05756973475217819
1772698508086303000,6.290302978515625,0.5925136804580688,0.2906515896320343,-0.27330946922302246
1772698508096260000,6.300260009765625,0.4376378059387207,0.22734856605529785,-0.4076887369155884
1772698508106218000,6.310218017578125,0.2989228069782257,0.15912024676799774,-0.41638582944869995
1772698508116174800,6.3201748046875,0.18376773595809937,0.09344778954982758,-0.3233153820037842
1772698508126132000,6.330132080078125,0.0669574961066246,0.03242438659071922,-0.17534136772155762
1772698508136089000,6.340089111328125,-0.04815683141350746,-0.01505175232887268,-0.022372432053089142
1772698508146046200,6.350046142578125,-0.15040837228298187,-0.05397119000554085,0.10980771481990814
1772698508156003000,6.360003173828125,-0.23057860136032104,-0.08191905170679092,0.19367101788520813
1772698508165960200,6.369960205078125,-0.25875619053840637,-0.09326171875,0.24186758697032928
1772698508175917000,6.3799169921875,-0.22492040693759918,-0.09028708189725876,0.2370920479297638
1772698508185874000,6.3898740234375,-0.14528337121009827,-0.07905440777540207,0.1979403793811798
1772698508195832000,6.39983203125,-0.01484123058617115,-0.06273222714662552,0.11599834263324738
1772698508205789200,6.4097890625,0.15674224495887756,-0.044234972447156906,0.01407729834318161
1772698508215746000,6.41974609375,0.3359396755695343,-0.01091749593615532,-0.08611693978309631
1772698508225703000,6.429702880859375,0.49053698778152466,0.011499928310513496,-0.16301386058330536
1772698508235660000,6.439659912109375,0.5757952332496643,0.011286532506346703,-0.18718476593494415
1772698508245617200,6.4496171875,0.5940282940864563,-0.007294610142707825,-0.15394771099090576
1772698508255574000,6.459573974609375,0.576664924621582,-0.017430072650313377,-0.07074252516031265
1772698508265531100,6.46953125,0.5249215960502625,-0.04853605851531029,0.020297635346651077
1772698508275489000,6.479489013671875,0.46542075276374817,-0.08694005757570267,0.10085736215114594
1772698508285446100,6.489446044921875,0.4288068115711212,-0.07944325357675552,0.1638224720954895
1772698508295403000,6.499403076171875,0.3962233066558838,-0.061201948672533035,0.23641975224018097
1772698508305360100,6.509360107421875,0.33873337507247925,-0.03178387135267258,0.28340643644332886
1772698508315317200,6.519317138671875,0.27517569065093994,0.013260314241051674,0.28107720613479614
1772698508325274000,6.529274169921875,0.2395804077386856,0.0604693703353405,0.20378613471984863
1772698508335231000,6.53923095703125,0.23854631185531616,0.10006900131702423,0.07010842114686966
1772698508345188000,6.54918798828125,0.2864603102207184,0.09521059691905975,-0.05194664001464844
1772698508355145000,6.55914501953125,0.28449034690856934,-0.057369403541088104,-0.14399918913841248
1772698508365103000,6.56910302734375,0.14801187813282013,-0.35574090480804443,-0.31892335414886475
1772698508375060000,6.57906005859375,-0.07245713472366333,-0.7084260582923889,-0.6890889406204224
1772698508385017000,6.58901708984375,-0.34983202815055847,-0.9265605211257935,-1.0118885040283203
1772698508394974000,6.598973876953125,-0.6993998289108276,-0.9405978918075562,-1.0608969926834106
1772698508404931000,6.60893115234375,-1.0593082904815674,-0.7652654647827148,-0.7343716621398926
1772698508414888200,6.61888818359375,-1.3313783407211304,-0.4694662094116211,-0.16557544469833374
1772698508424845000,6.628844970703125,-1.4063106775283813,-0.17209362983703613,0.4173803925514221
1772698508434802200,6.63880224609375,-1.2344664335250854,0.05597001686692238,0.6874503493309021
1772698508444759000,6.648759033203125,-0.8389912843704224,0.17564767599105835,0.5761845707893372
1772698508454717200,6.65871728515625,-0.34489235281944275,0.17736537754535675,0.15991558134555817
1772698508464674000,6.668674072265625,0.10801466554403305,0.11277306824922562,-0.36579960584640503
1772698508474631200,6.678631103515625,0.42372387647628784,0.07495100051164627,-0.8345541954040527
1772698508484588000,6.688588134765625,0.5719418525695801,0.06194146350026131,-1.130105972290039
1772698508494545000,6.698544921875,0.5747160911560059,0.04455728456377983,-1.2618167400360107
1772698508504502000,6.708501953125,0.48526662588119507,-0.0007303017191588879,-1.2504291534423828
1772698508514459100,6.718459228515625,0.3368542194366455,-0.05633481591939926,-1.1277574300765991
1772698508524416000,6.728416015625,0.13996484875679016,-0.11386149376630783,-0.9041549563407898
1772698508534373000,6.738373046875,-0.10647343099117279,-0.1660408079624176,-0.6287670135498047
1772698508544331000,6.7483310546875,-0.3816402852535248,-0.1973087191581726,-0.3517090678215027
1772698508554288000,6.7582880859375,-0.6500037908554077,-0.19748727977275848,-0.12523770332336426
1772698508564245000,6.768244873046875,-0.851344883441925,-0.18529187142848969,0.019669681787490845
1772698508574202000,6.7782021484375,-0.9407427310943604,-0.1569092571735382,0.078469417989254
1772698508584159200,6.7881591796875,-0.914101243019104,-0.1079755425453186,0.11693505197763443
1772698508594116000,6.7981162109375,-0.8115674257278442,-0.06204866245388985,0.1668020784854889
1772698508604073000,6.808072998046875,-0.6588356494903564,-0.017143504694104195,0.22648565471172333
1772698508614030000,6.818030029296875,-0.45875638723373413,0.02118467353284359,0.2742176055908203
1772698508623988200,6.82798828125,-0.24499963223934174,0.07971003651618958,0.30461385846138
1772698508633945000,6.837945068359375,-0.05426479130983353,0.14620637893676758,0.3360999524593353
1772698508643902000,6.84790185546875,0.07320821285247803,0.21247753500938416,0.3852840065956116
1772698508653859000,6.857859130859375,0.14960792660713196,0.2611691951751709,0.4418388903141022
1772698508663816000,6.86781591796875,0.1897319108247757,0.29003360867500305,0.48120012879371643
1772698508673773000,6.87777294921875,0.194370836019516,0.30770865082740784,0.4682505428791046
1772698508683730200,6.887730224609375,0.17464587092399597,0.32208412885665894,0.4183492958545685
1772698508693687000,6.89768701171875,0.17431408166885376,0.33315369486808777,0.36473697423934937
1772698508703644200,6.90764404296875,0.19669581949710846,0.3342016637325287,0.3307388126850128
1772698508713602000,6.91760205078125,0.22475458681583405,0.3262125849723816,0.31842896342277527
1772698508723559200,6.92755908203125,0.24176447093486786,0.31506192684173584,0.3119710385799408
1772698508733516000,6.93751611328125,0.26987791061401367,0.293729692697525,0.28169989585876465
1772698508743473200,6.94747314453125,0.3056923747062683,0.2538065016269684,0.23103778064250946
1772698508753430000,6.957429931640625,0.34222185611724854,0.2077464610338211,0.1701309084892273
1772698508763387000,6.967386962890625,0.3801348805427551,0.1621299833059311,0.13150042295455933
1772698508773344000,6.977343994140625,0.4085148572921753,0.1128966361284256,0.15410855412483215
1772698508783301000,6.987301025390625,0.41833925247192383,0.06869827955961227,0.21564622223377228
1772698508793258000,6.997258056640625,0.4013943374156952,0.04432893171906471,0.2669440507888794
1772698508803216000,7.0072158203125,0.35242173075675964,0.01670263335108757,0.28210195899009705
1772698508813173000,7.017173095703125,0.27569255232810974,-0.002100443933159113,0.25239232182502747
1772698508823130000,7.027130126953125,0.16006742417812347,-0.0012370473705232143,0.23621413111686707
1772698508833087000,7.0370869140625,0.04173577204346657,-0.01901426911354065,0.2754877507686615
1772698508843044000,7.047044189453125,-0.018374701961874962,-0.03675225377082825,0.3706108033657074
1772698508853001200,7.057001220703125,-0.03513583913445473,-0.04008466750383377,0.4797002673149109
1772698508862958000,7.0669580078125,-0.050638098269701004,-0.028065554797649384,0.5796900391578674
1772698508872915000,7.0769150390625,-0.06321139633655548,-0.0231663566082716,0.6062418222427368
1772698508882873000,7.086873046875,-0.03910526633262634,-0.0447629950940609,0.538385272026062
1772698508892830200,7.096830322265625,0.0013721543364226818,-0.12258683145046234,0.39788877964019775
1772698508902787000,7.106787109375,0.03019341640174389,-0.2637804448604584,0.21369019150733948
1772698508912744000,7.116743896484375,-0.004818696528673172,-0.4491662383079529,-0.02118714340031147
1772698508922701000,7.126701171875,-0.1319582760334015,-0.6465011239051819,-0.22739277780056
1772698508932658000,7.136657958984375,-0.3448566794395447,-0.802297055721283,-0.3333205282688141
1772698508942615000,7.146614990234375,-0.6156091094017029,-0.8676904439926147,-0.3222401738166809
1772698508952572200,7.156572265625,-0.9055378437042236,-0.787699818611145,-0.25219181180000305
1772698508962529000,7.166529052734375,-1.131373643875122,-0.5651759505271912,-0.20321762561798096
1772698508972487000,7.17648681640625,-1.1506221294403076,-0.2862562835216522,-0.21183547377586365
1772698508982444000,7.186444091796875,-0.88975989818573,-0.005899473559111357,-0.28866130113601685
1772698508992401200,7.196401123046875,-0.38534632325172424,0.2158951610326767,-0.4698452055454254
1772698509002358000,7.20635791015625,0.2307775914669037,0.36714884638786316,-0.7215607762336731
1772698509012315100,7.216315185546875,0.8026235103607178,0.4473709762096405,-1.000657320022583
1772698509022272000,7.22627197265625,1.1978960037231445,0.45797619223594666,-1.2063356637954712
1772698509032228900,7.236228759765625,1.3257423639297485,0.41496360301971436,-1.2878828048706055
1772698509042186000,7.24618603515625,1.1758830547332764,0.33329537510871887,-1.2344986200332642
1772698509052143000,7.25614306640625,0.8071056604385376,0.22485971450805664,-1.0653769969940186
1772698509062101200,7.266101318359375,0.2995034158229828,0.13379985094070435,-0.8150774836540222
1772698509072057300,7.276057373046875,-0.2577017545700073,0.05473224073648453,-0.5147907137870789
1772698509082014200,7.28601416015625,-0.7514563798904419,-0.03412199765443802,-0.16604074835777283
1772698509091971300,7.295971435546875,-1.0773452520370483,-0.09685511142015457,0.2093018740415573
1772698509101928200,7.30592822265625,-1.2326350212097168,-0.14003561437129974,0.5880087018013
1772698509111885300,7.31588525390625,-1.2297817468643188,-0.14159820973873138,0.8718016147613525
1772698509121842400,7.325842529296875,-1.0619561672210693,-0.11898185312747955,1.0038601160049438
1772698509131799600,7.335799560546875,-0.7673722505569458,-0.08300396054983139,0.9794314503669739
1772698509141757200,7.345757080078125,-0.41687601804733276,-0.009947329759597778,0.8131239414215088
1772698509151714300,7.35571435546875,-0.0687403529882431,0.06015821546316147,0.5468846559524536
1772698509161671400,7.36567138671875,0.2339329719543457,0.12603016197681427,0.24470776319503784
1772698509171628300,7.375628173828125,0.451945960521698,0.1727837771177292,-0.04076964408159256
1772698509181585400,7.38558544921875,0.5729395151138306,0.20681683719158173,-0.25623854994773865
1772698509191542300,7.395542236328125,0.6032062768936157,0.21489158272743225,-0.369800329208374
1772698509201499400,7.40549951171875,0.558279275894165,0.18893055617809296,-0.3608561158180237
1772698509211456300,7.415456298828125,0.44614559412002563,0.15234555304050446,-0.2568937838077545
1772698509221413400,7.425413330078125,0.2940910756587982,0.10995069891214371,-0.07978717237710953
1772698509231371500,7.43537158203125,0.12416566163301468,0.058840811252593994,0.12764807045459747
1772698509241328000,7.445328125,-0.038512472063302994,0.016258997842669487,0.3024321496486664
1772698509251285200,7.45528515625,-0.17066653072834015,-0.011325586587190628,0.43305301666259766
1772698509261242400,7.465242431640625,-0.26350167393684387,-0.02457454614341259,0.5118767023086548
1772698509271199500,7.475199462890625,-0.31771454215049744,-0.024670811370015144,0.5271782875061035
1772698509281156400,7.48515625,-0.3056067228317261,0.0019810390658676624,0.4810411334037781
1772698509291113500,7.495113525390625,-0.22118748724460602,0.042193904519081116,0.3992498219013214
1772698509301070300,7.5050703125,-0.07522202283143997,0.0775526911020279,0.30891433358192444
1772698509311027200,7.515027099609375,0.13428887724876404,0.09905507415533066,0.2218821495771408
1772698509320985300,7.5249853515625,0.3760144114494324,0.11389953643083572,0.16061986982822418
1772698509330942500,7.5349423828125,0.6020888090133667,0.10938971489667892,0.11018286645412445
1772698509340899300,7.5448994140625,0.744697093963623,0.10737956315279007,0.08373581618070602
1772698509350856200,7.554856201171875,0.7672181725502014,0.11301067471504211,0.0868537425994873
1772698509360813300,7.564813232421875,0.6984010338783264,0.11402826756238937,0.12634789943695068
1772698509370770400,7.5747705078125,0.5886500477790833,0.08198833465576172,0.19710317254066467
1772698509380727300,7.584727294921875,0.48025962710380554,0.06679712980985641,0.31395095586776733
1772698509390684400,7.594684326171875,0.3853863477706909,0.054397083818912506,0.45504528284072876
1772698509400641500,7.6046416015625,0.30923619866371155,0.07127965986728668,0.5714473128318787
1772698509410599200,7.61459912109375,0.29081085324287415,0.11198344081640244,0.6139606237411499
1772698509420556300,7.624556396484375,0.3330445885658264,0.16355368494987488,0.6111656427383423
1772698509430513400,7.634513427734375,0.3914618194103241,0.19994312524795532,0.6356246471405029
1772698509440470500,7.644470458984375,0.4196585714817047,0.2311050295829773,0.660071611404419
1772698509450427400,7.654427490234375,0.36775943636894226,0.23350265622138977,0.563144862651825
1772698509460384300,7.66438427734375,0.30238839983940125,0.2132522463798523,0.25816231966018677
1772698509470341400,7.67434130859375,0.3030717670917511,0.11895987391471863,-0.1698647439479828
1772698509480298200,7.68429833984375,0.2810058891773224,-0.1922941505908966,-0.5942062139511108
1772698509490255400,7.69425537109375,0.14854371547698975,-0.5693601965904236,-1.0282247066497803
1772698509500213500,7.704213623046875,-0.09496241807937622,-0.7380675077438354,-1.3949923515319824
1772698509510170400,7.71417041015625,-0.44425836205482483,-0.5891762971878052,-1.444045901298523
1772698509520127200,7.724127197265625,-0.8852725028991699,-0.24357947707176208,-1.0402400493621826
1772698509530084400,7.73408447265625,-1.3120566606521606,0.14442650973796844,-0.33737486600875854
1772698509540041500,7.74404150390625,-1.5354220867156982,0.4280416965484619,0.36815720796585083
1772698509549998300,7.753998291015625,-1.5192646980285645,0.5504103899002075,0.6884385943412781
1772698509559955500,7.76395556640625,-1.2617084980010986,0.5324916243553162,0.5496370196342468
1772698509569912300,7.773912353515625,-0.8627017140388489,0.39315545558929443,0.0533771887421608
1772698509579870500,7.783870361328125,-0.46987664699554443,0.2325844019651413,-0.578762948513031
1772698509589827300,7.793827392578125,-0.198658749461174,0.19659355282783508,-1.1024898290634155
1772698509599784400,7.803784423828125,-0.05394710227847099,0.22726118564605713,-1.324122667312622
1772698509609741600,7.813741455078125,0.052942901849746704,0.2553400993347168,-1.2765989303588867
1772698509619698200,7.8236982421875,0.14884252846240997,0.25849995017051697,-1.03256094455719
1772698509629655300,7.8336552734375,0.20287832617759705,0.21200989186763763,-0.7116866707801819
1772698509639612400,7.8436123046875,0.18695901334285736,0.12974724173545837,-0.4014105498790741
1772698509649569300,7.8535693359375,0.0813487246632576,0.06028224900364876,-0.20087827742099762
1772698509659526400,7.8635263671875,-0.10842067748308182,0.01006967481225729,-0.11106663197278976
1772698509669484300,7.873484375,-0.32573968172073364,-0.021794503554701805,-0.10236479341983795
1772698509679441400,7.88344140625,-0.506829559803009,-0.0460154190659523,-0.08559566736221313
1772698509689398300,7.893398193359375,-0.6072766184806824,-0.0810406431555748,-0.03964269161224365
1772698509699355400,7.90335546875,-0.6218129396438599,-0.11488595604896545,0.03879619017243385
1772698509709312500,7.9133125,-0.5505741238594055,-0.13160856068134308,0.12983763217926025
1772698509719269400,7.923269287109375,-0.419708251953125,-0.1294972151517868,0.1934184730052948
1772698509729226200,7.933226318359375,-0.23932065069675446,-0.08712082356214523,0.22147946059703827
1772698509739183400,7.943183349609375,-0.043258726596832275,-0.014472189359366894,0.23123835027217865
1772698509749140200,7.95314013671875,0.14401210844516754,0.08315134048461914,0.23156395554542542
1772698509759098400,7.963098388671875,0.31853145360946655,0.16905879974365234,0.2309492975473404
1772698509769055500,7.973055419921875,0.4676325023174286,0.23729823529720306,0.21558493375778198
1772698509779012400,7.983012451171875,0.5887396931648254,0.2704135477542877,0.21105116605758667
1772698509788969200,7.99296923828125,0.6879635453224182,0.27675387263298035,0.22596697509288788
1772698509798926300,8.00292626953125,0.7503310441970825,0.24654056131839752,0.2547754645347595
1772698509808883500,8.012883544921875,0.7516964077949524,0.20942576229572296,0.2687549591064453
1772698509818840300,8.02284033203125,0.718023419380188,0.1733788102865219,0.2637823224067688
1772698509828797400,8.03279736328125,0.6796342730522156,0.13265077769756317,0.23094508051872253
1772698509838754300,8.04275439453125,0.6813226938247681,0.06780681014060974,0.20620350539684296
1772698509848712400,8.05271240234375,0.7154492139816284,-0.013972975313663483,0.22170250117778778
1772698509858669300,8.06266943359375,0.7320167422294617,-0.1065380647778511,0.25950953364372253
1772698509868626400,8.07262646484375,0.6873409152030945,-0.17826388776302338,0.2656767666339874
1772698509878583600,8.08258349609375,0.5988962650299072,-0.22655951976776123,0.2637944519519806
1772698509888540200,8.0925400390625,0.5298334956169128,-0.2390451729297638,0.331973671913147
1772698509898497300,8.102497314453124,0.4633147120475769,-0.2446649819612503,0.503077507019043
1772698509908454400,8.112454345703124,0.4129905700683594,-0.2396720051765442,0.7397542595863342
1772698509918411300,8.122411376953124,0.39048710465431213,-0.19189196825027466,0.9026920795440674
1772698509928368400,8.132368408203124,0.4416927695274353,-0.10004335641860962,0.9039639830589294
1772698509938326300,8.142326171875,0.5898973941802979,-0.010048748925328255,0.734015703201294
1772698509948283400,8.152283447265624,0.8129579424858093,0.02794184535741806,0.4714203178882599
1772698509958240300,8.162240234375,1.0680195093154907,0.02558974176645279,0.20609359443187714
1772698509968197400,8.172197265625,1.2482103109359741,-0.011932633817195892,0.011221940629184246
1772698509978154500,8.182154541015626,1.3227061033248901,-0.08366114646196365,-0.04274887964129448
1772698509988111400,8.192111328125,1.2729276418685913,-0.15323910117149353,0.034388862550258636
1772698509998068200,8.202068115234376,1.0662168264389038,-0.21849161386489868,0.12376748025417328
1772698510008025300,8.212025390625,0.7479951977729797,-0.25584399700164795,0.14574909210205078
1772698510017983500,8.2219833984375,0.40771806240081787,-0.27380967140197754,0.1190546378493309
1772698510027940400,8.2319404296875,0.09302317351102829,-0.26531782746315,0.07770615071058273
1772698510037897500,8.2418974609375,-0.19038909673690796,-0.26043811440467834,0.034037500619888306
1772698510047854300,8.251854248046875,-0.4221074879169464,-0.2626310884952545,-0.0875229611992836
1772698510057811200,8.261811279296875,-0.5993555188179016,-0.2795405685901642,-0.3034137189388275
1772698510067768300,8.271768310546875,-0.6882928013801575,-0.29059693217277527,-0.5900276303291321
1772698510077725700,8.2817255859375,-0.7038169503211975,-0.26478078961372375,-0.8852968215942383
1772698510087682600,8.2916826171875,-0.6316993832588196,-0.21257172524929047,-1.135387897491455
1772698510097639700,8.3016396484375,-0.43713200092315674,-0.05248085781931877,-1.283033847808838
1772698510107596500,8.311596435546875,-0.16495218873023987,0.12097760289907455,-1.2572615146636963
1772698510117554700,8.3215546875,0.14182958006858826,0.30197909474372864,-1.0901463031768799
1772698510127511600,8.331511474609375,0.40192028880119324,0.4330200254917145,-0.8892581462860107
1772698510137468700,8.34146875,0.5443158149719238,0.5381160378456116,-0.7425496578216553
1772698510147425500,8.351425537109375,0.5124931335449219,0.6412986516952515,-0.6364433765411377
1772698510157382400,8.36138232421875,0.3361586034297943,0.7134921550750732,-0.5080950260162354
1772698510167339500,8.371339599609374,0.10797286033630371,0.7187448143959045,-0.3293253183364868
1772698510177296600,8.381296630859374,-0.08593907952308655,0.6157076358795166,-0.11372006684541702
1772698510187253500,8.39125341796875,-0.217012420296669,0.42418819665908813,0.09721677750349045
1772698510197211400,8.40121142578125,-0.30540168285369873,0.20348645746707916,0.2223307490348816
1772698510207168500,8.41116845703125,-0.38492342829704285,0.0028699669055640697,0.2103559672832489
1772698510217125600,8.421125732421874,-0.4769103229045868,-0.10502959787845612,0.05461137369275093
1772698510227082500,8.43108251953125,-0.5633589625358582,-0.1504724770784378,-0.1913762092590332
1772698510237039600,8.44103955078125,-0.5950444340705872,-0.1842871606349945,-0.41135066747665405
1772698510246996700,8.450996826171876,-0.5253822207450867,-0.2034934014081955,-0.495616614818573
1772698510256953600,8.46095361328125,-0.3861390948295593,-0.18799300491809845,-0.41549649834632874
1772698510266910500,8.470910400390625,-0.23750174045562744,-0.1649579405784607,-0.21121783554553986
1772698510276867600,8.48086767578125,-0.10395246744155884,-0.13422319293022156,0.015162041410803795
1772698510286825700,8.49082568359375,0.0030171468388289213,-0.12788374722003937,0.19231264293193817
1772698510296782600,8.500782470703125,0.0463385209441185,-0.1286669820547104,0.2629026472568512
1772698510306739500,8.510739501953125,0.028555024415254593,-0.12021639943122864,0.21353746950626373
1772698510316696600,8.520696533203125,-0.015665698796510696,-0.09364897012710571,0.07696603983640671
1772698510326653400,8.5306533203125,-0.04510321840643883,-0.0633011981844902,-0.09038696438074112
1772698510336610600,8.540610595703125,-0.03309529274702072,-0.03926057741045952,-0.22721725702285767
1772698510346567700,8.550567626953125,0.020979654043912888,-0.02267443574965,-0.29863595962524414
1772698510356524500,8.560524658203125,0.08793126046657562,-0.017282333225011826,-0.3126271367073059
1772698510366481700,8.570481689453125,0.14756876230239868,0.025040656328201294,-0.30541327595710754
1772698510376439600,8.580439453125,0.19374078512191772,0.04843093454837799,-0.2873988449573517
1772698510386396700,8.590396728515625,0.23961614072322845,0.07567109167575836,-0.2642802894115448
1772698510396353500,8.600353515625,0.2874148190021515,0.090529665350914,-0.21600887179374695
1772698510406310700,8.610310546875,0.3299712538719177,0.09534254670143127,-0.12924817204475403
1772698510416267500,8.620267578125,0.3531479239463806,0.10299673676490784,-0.013156995177268982
1772698510426224400,8.630224365234374,0.348688006401062,0.1083487942814827,0.11733604967594147
1772698510436181500,8.640181396484374,0.33573758602142334,0.09192267805337906,0.23272043466567993
1772698510446138600,8.650138671875,0.33100780844688416,0.06054077669978142,0.29271990060806274
1772698510456095500,8.660095458984374,0.3203016221523285,0.01910145953297615,0.32294437289237976
1772698510466053400,8.670053466796874,0.29032161831855774,-0.019010480493307114,0.3809386193752289
1772698510476010500,8.680010498046874,0.27197909355163574,-0.04794412851333618,0.4947011470794678
1772698510485967600,8.689967529296876,0.2999396324157715,-0.08423881232738495,0.661919355392456
1772698510495924500,8.699924560546876,0.42379021644592285,-0.07276804000139236,0.8628447651863098
1772698510505881600,8.709881591796876,0.662935733795166,-0.029822394251823425,1.0670340061187744
1772698510515838700,8.719838623046876,0.973985493183136,0.03062843158841133,1.2138665914535522
1772698510525795600,8.729795654296876,1.2853810787200928,0.07693421840667725,1.2263133525848389
1772698510535752400,8.73975244140625,1.5046788454055786,0.07212667167186737,1.1138150691986084
1772698510545709600,8.74970947265625,1.5597418546676636,0.04847990348935127,0.9467074275016785
1772698510555667700,8.759667724609375,1.3736861944198608,-0.12266094982624054,0.7355461716651917
1772698510565624600,8.76962451171875,0.8836595416069031,-0.4409744143486023,0.41826361417770386
1772698510575581400,8.77958154296875,0.18889543414115906,-0.6800706386566162,-0.15408672392368317
1772698510585538600,8.78953857421875,-0.561903178691864,-0.7635629177093506,-0.7174382209777832
1772698510595495400,8.799495361328125,-1.2184454202651978,-0.6512957811355591,-0.940861701965332
1772698510605452500,8.80945263671875,-1.606812834739685,-0.5447608232498169,-0.7823078036308289
1772698510615409700,8.81940966796875,-1.576765775680542,-0.41746625304222107,-0.3547719419002533
1772698510625366500,8.829366455078125,-1.2111164331436157,-0.3366515636444092,0.27391329407691956
1772698510635323600,8.83932373046875,-0.7391525506973267,-0.24541456997394562,0.9115139842033386
1772698510645281500,8.849281494140625,-0.3330537974834442,-0.2486167550086975,1.2459716796875
1772698510655238700,8.85923876953125,-0.05416809394955635,-0.15136291086673737,1.0639829635620117
1772698510665195500,8.869195556640625,0.041264381259679794,-0.01080457866191864,0.40715083479881287
1772698510675152600,8.879152587890625,-0.013792477548122406,0.12880630791187286,-0.395772784948349
1772698510685109500,8.889109619140624,-0.14306654036045074,0.27433300018310547,-0.970059335231781
1772698510695066400,8.89906640625,-0.2853075861930847,0.35566380620002747,-1.1915735006332397
1772698510705023500,8.9090234375,-0.3843449056148529,0.3260231912136078,-1.212713599205017
1772698510714980600,8.918980712890624,-0.423006534576416,0.21327908337116241,-1.109899878501892
1772698510724937500,8.9289375,-0.43905743956565857,0.07013753801584244,-0.9198867678642273
1772698510734895400,8.938895263671874,-0.5102730393409729,-0.04791559651494026,-0.6575685739517212
1772698510744852500,8.9488525390625,-0.6740864515304565,-0.13276490569114685,-0.3846576511859894
1772698510754809600,8.9588095703125,-0.9006460905075073,-0.14084787666797638,-0.21628542244434357
1772698510764766500,8.968766357421876,-1.1199007034301758,-0.1029639020562172,-0.20320066809654236
1772698510774723600,8.9787236328125,-1.2629897594451904,-0.05642516165971756,-0.2901827096939087
1772698510784680700,8.9886806640625,-1.2872388362884521,0.0067558917216956615,-0.38650670647621155
1772698510794637600,8.998637451171875,-1.1744319200515747,0.043677426874637604,-0.42423489689826965
1772698510804594400,9.008594482421875,-0.9220784306526184,0.07215727865695953,-0.3380419909954071
1772698510814551600,9.018551513671875,-0.552635133266449,0.10933154076337814,-0.15101058781147003
1772698510824509700,9.028509765625,-0.1895248293876648,0.1582392454147339,0.04899441450834274
1772698510834466600,9.038466552734375,0.06826996803283691,0.20961429178714752,0.1665671169757843
1772698510844423400,9.04842333984375,0.1960372030735016,0.28704798221588135,0.19209600985050201
1772698510854380500,9.058380615234375,0.21080389618873596,0.3757075369358063,0.15274780988693237
1772698510864337400,9.06833740234375,0.16996541619300842,0.44705477356910706,0.11386299878358841
1772698510874294500,9.07829443359375,0.10895426571369171,0.4876786172389984,0.09116274863481522
1772698510884251600,9.088251708984375,0.06939540058374405,0.49926072359085083,0.11222522705793381
1772698510894208800,9.098208740234375,0.058475643396377563,0.46393945813179016,0.15553541481494904
1772698510904165600,9.10816552734375,0.061866067349910736,0.40586137771606445,0.1808001697063446
1772698510914123500,9.11812353515625,0.06714951246976852,0.34292954206466675,0.16828010976314545
1772698510924080600,9.12808056640625,0.08600074052810669,0.273716539144516,0.15191617608070374
1772698510934037500,9.13803759765625,0.12316248565912247,0.24839945137500763,0.14770784974098206
1772698510943994600,9.14799462890625,0.14638391137123108,0.22646935284137726,0.16519823670387268
1772698510953951500,9.157951416015624,0.14780230820178986,0.25480884313583374,0.15610568225383759
1772698510963908600,9.16790869140625,0.1447802037000656,0.2878079414367676,0.08613817393779755
1772698510973865500,9.177865478515624,0.17359428107738495,0.3072146475315094,-0.0795716941356659
1772698510983822600,9.187822509765626,0.2390533834695816,0.25133758783340454,-0.2779339551925659
1772698510993779700,9.19777978515625,0.3165217936038971,0.15808063745498657,-0.43001431226730347
1772698511003737300,9.2077373046875,0.3637714087963104,0.0743369311094284,-0.4912276566028595
1772698511013694500,9.217694580078126,0.3511360287666321,-0.010160379111766815,-0.4126178026199341
1772698511023651600,9.227651611328126,0.25210899114608765,-0.04158022999763489,-0.20750576257705688
1772698511033608400,9.2376083984375,0.09003674238920212,-0.022302936762571335,0.07255386561155319
1772698511043565600,9.247565673828126,-0.07625819742679596,0.026074519380927086,0.3407842814922333
1772698511053522700,9.257522705078125,-0.19163113832473755,0.057555217295885086,0.5473697185516357
1772698511063479600,9.2674794921875,-0.1653641164302826,-0.26376935839653015,1.1488118171691895
1772698511073436700,9.277436767578125,-0.0487578809261322,0.07805217802524567,1.4185715913772583
1772698511083393500,9.2873935546875,-0.000018821796402335167,0.010910747572779655,1.0557314157485962
1772698511093351700,9.2973515625,0.06317932158708572,-0.05424268916249275,0.7947302460670471
1772698511103308800,9.307308837890625,0.20630423724651337,-0.10594481229782104,0.666720986366272
1772698511113265700,9.317265625,0.3592083156108856,-0.17157387733459473,0.5521265268325806
1772698511123222500,9.327222412109375,0.5005974173545837,-0.1980818212032318,0.4821614623069763
1772698511133179600,9.3371796875,0.6951532959938049,-0.17683671414852142,0.43656522035598755
1772698511143136800,9.34713671875,0.8295971155166626,-0.18146131932735443,0.3755283057689667
1772698511153093600,9.35709375,0.8648211359977722,-0.17703834176063538,0.25265535712242126
1772698511163050800,9.36705078125,0.8732878565788269,-0.18183155357837677,0.08073011785745621
1772698511173007600,9.377007568359375,0.8727954626083374,-0.16586217284202576,-0.08776701241731644
1772698511182965800,9.3869658203125,0.8386667966842651,-0.15689712762832642,-0.21944822371006012
1772698511192922600,9.396922607421875,0.7331022620201111,-0.179474875330925,-0.2559551000595093
1772698511202879700,9.406879638671874,0.5690869688987732,-0.19892077147960663,-0.15280970931053162
1772698511212836900,9.4168369140625,0.376741498708725,-0.1664600372314453,0.005863563157618046
1772698511222793500,9.42679345703125,0.18445678055286407,-0.11204465478658676,0.14203178882598877
1772698511232750600,9.43675048828125,-0.002724835416302085,-0.029337525367736816,0.23573032021522522
1772698511242707700,9.446707763671874,-0.2325918972492218,0.06185111775994301,0.3655899167060852
1772698511252664600,9.45666455078125,-0.4264862537384033,0.07235115766525269,0.532008171081543
1772698511262621700,9.46662158203125,-0.5004283785820007,0.03985583409667015,0.6690239906311035
1772698511272579600,9.47657958984375,-0.48853418231010437,-0.025587620213627815,0.7349801063537598
1772698511282536700,9.48653662109375,-0.4190424680709839,-0.07507724314928055,0.7217207551002502
1772698511292493600,9.49649365234375,-0.32792481780052185,-0.11648966372013092,0.6676660776138306
1772698511302450700,9.50645068359375,-0.22929544746875763,-0.16053567826747894,0.592103123664856
1772698511312407800,9.51640771484375,-0.09904210269451141,-0.195089653134346,0.5013998746871948
1772698511322364700,9.52636474609375,0.0574713759124279,-0.17914065718650818,0.3974459171295166
1772698511332321500,9.536321533203125,0.18115417659282684,-0.16449648141860962,0.2657416760921478
1772698511342278700,9.546278564453125,0.2849407196044922,-0.13018491864204407,0.14196088910102844
1772698511352235800,9.55623583984375,0.37369880080223083,-0.0831013098359108,0.028438067063689232
1772698511362193700,9.566193603515625,0.42400965094566345,-0.025300348177552223,-0.09055189788341522
1772698511372150800,9.57615087890625,0.4147122800350189,0.01629716344177723,-0.2148701250553131
1772698511382107600,9.586107666015625,0.349393755197525,0.046428803354501724,-0.32450374960899353
1772698511392064500,9.596064453125,0.22605212032794952,0.07764584571123123,-0.37426862120628357
1772698511402021600,9.606021728515625,0.08988093584775925,0.13664990663528442,-0.3817165195941925
1772698511411978800,9.615978759765625,-0.04326380416750908,0.15248265862464905,-0.3527413308620453
1772698511421935900,9.625935791015625,-0.14329877495765686,0.08934291452169418,-0.29921814799308777
1772698511431892700,9.635892822265625,-0.18390265107154846,0.044224437326192856,-0.2499222308397293
1772698511441849600,9.645849609375,-0.18645930290222168,0.026033956557512283,-0.20420391857624054
1772698511451807700,9.655807861328125,-0.15855443477630615,0.01668013632297516,-0.1638716757297516
1772698511461764600,9.6657646484375,-0.1153334230184555,0.08079291880130768,-0.10533120483160019
1772698511471721700,9.6757216796875,-0.07854398339986801,0.12552548944950104,-0.03158082067966461
1772698511481678800,9.685678955078124,-0.05909785255789757,0.09669943153858185,0.06228126212954521
1772698511491635500,9.695635498046874,-0.12319054454565048,0.039695799350738525,0.17570476233959198
1772698511501592600,9.705592529296876,-0.21793919801712036,0.022990208119153976,0.26929980516433716
1772698511511549700,9.7155498046875,-0.26235488057136536,0.07191300392150879,0.24090729653835297
1772698511521506800,9.7255068359375,-0.28463566303253174,0.19872213900089264,0.08061707764863968
1772698511531463700,9.735463623046876,-0.26335594058036804,0.30881425738334656,-0.15971483290195465
1772698511541421600,9.745421630859376,-0.2712610065937042,0.29190051555633545,-0.40677905082702637
1772698511551378700,9.755378662109376,-0.21368186175823212,0.30800169706344604,-0.43525704741477966
1772698511561335600,9.76533544921875,-0.06867857277393341,0.19868066906929016,-0.38923776149749756
1772698511571292700,9.775292724609375,0.055255625396966934,-0.05857882648706436,-0.28290680050849915
1772698511581249800,9.785249755859375,0.06309328973293304,-0.06741683930158615,-0.22864075005054474
1772698511591207000,9.79520703125,-0.004883358255028725,0.003944960422813892,-0.20379291474819183
1772698511601163500,9.80516357421875,-0.1097826361656189,0.01244649849832058,-0.17312586307525635
1772698511611120600,9.81512060546875,-0.16894716024398804,-0.00004559056833386421,-0.13722725212574005
1772698511621077800,9.825077880859375,-0.16282135248184204,0.029017485678195953,-0.12798182666301727
1772698511631034600,9.83503466796875,-0.13120271265506744,0.06171844154596329,-0.13780170679092407
1772698511640992800,9.84499267578125,-0.09590031206607819,0.040708139538764954,-0.1642540991306305
1772698511650949600,9.85494970703125,-0.051676131784915924,0.015786010771989822,-0.1848328709602356
1772698511660906800,9.86490673828125,0.0006070246454328299,0.02186327613890171,-0.2016875296831131
1772698511670863600,9.874863525390625,0.042864732444286346,0.021996699273586273,-0.2110128551721573
1772698511680820700,9.88482080078125,0.05505746603012085,-0.006066151894629002,-0.22493648529052734
1772698511690777900,9.89477783203125,0.055159199982881546,-0.03132117539644241,-0.24124674499034882
1772698511700734700,9.904734619140624,0.04728773981332779,-0.04649624601006508,-0.24661588668823242
1772698511710691600,9.914691650390624,0.023962710052728653,-0.04582646116614342,-0.2511858642101288
1772698511720649700,9.924649658203125,-0.015146655961871147,-0.014214891940355301,-0.2519124448299408
1772698511730606800,9.93460693359375,-0.05793726071715355,0.020359065383672714,-0.24790917336940765
1772698511740563700,9.944563720703124,-0.10010197013616562,0.04091114178299904,-0.218776136636734
1772698511750520800,9.954520751953124,-0.12277425825595856,0.020444482564926147,-0.17765958607196808
1772698511760477700,9.964477783203124,-0.1172192320227623,0.0018106675706803799,-0.11726031452417374
1772698511770434600,9.9744345703125,-0.10334895551204681,-0.007859270088374615,-0.044925931841135025
1772698511780391700,9.9843916015625,-0.08301036804914474,-0.046224165707826614,0.028676431626081467
1772698511790348800,9.994348876953126,-0.06873103231191635,-0.07326936721801758,0.009600741788744926
1772698511800305700,10.0043056640625,-0.12929846346378326,-0.012576328590512276,-0.2933712601661682
1772698511810262800,10.0142626953125,-0.004546952899545431,0.013737833127379417,-0.5386848449707031
1772698511820220700,10.024220703125,0.013504717499017715,0.0598016157746315,-0.5474034547805786
1772698511830177800,10.034177734375,-0.17428408563137054,0.050440870225429535,-0.3999575078487396
1772698511840134700,10.044134765625,-0.14819128811359406,0.016083773225545883,-0.24404190480709076
1772698511850091800,10.054091796875,-0.06955453753471375,-0.03003019280731678,-0.11899317055940628
1772698511860049000,10.064048828125,0.03484145179390907,-0.07262932509183884,-0.03879553824663162
1772698511870005500,10.074005615234375,0.11180654168128967,-0.08699441701173782,0.017445627599954605
1772698511879962600,10.083962646484375,0.12715326249599457,-0.076765276491642,0.060618579387664795
1772698511889919700,10.093919677734375,0.07768850028514862,-0.04847158119082451,0.09816621989011765
1772698511899876600,10.103876708984375,0.0123063363134861,-0.00711069954559207,0.11013540625572205
1772698511909834500,10.11383447265625,-0.03583109751343727,0.012586838565766811,0.12041068077087402
1772698511919791600,10.12379150390625,-0.055975016206502914,0.006021508947014809,0.15854427218437195
1772698511929748700,10.133748779296875,-0.03794727846980095,-0.036547258496284485,0.22103135287761688
1772698511939705600,10.14370556640625,-0.00570574589073658,-0.08931655436754227,0.29574236273765564
1772698511949662700,10.153662841796875,0.0056632887572050095,-0.13464996218681335,0.36082789301872253
1772698511959619800,10.163619873046875,-0.012396665289998055,-0.14244472980499268,0.385325163602829
1772698511969576700,10.17357666015625,-0.042836327105760574,-0.12519969046115875,0.36542922258377075
1772698511979533600,10.183533447265624,-0.0772416889667511,-0.09721514582633972,0.3074246048927307
1772698511989490700,10.19349072265625,-0.09798052161931992,-0.05597183108329773,0.22999531030654907
1772698511999447600,10.203447509765626,-0.09933475404977798,-0.023281855508685112,0.1595253348350525
1772698512009405700,10.21340576171875,-0.08479922264814377,-0.011264873668551445,0.1237337738275528
1772698512019362800,10.22336279296875,-0.059443529695272446,-0.018746202811598778,0.11761189252138138
1772698512029319700,10.233319580078126,-0.05326632782816887,-0.0241798497736454,0.11939967423677444
1772698512039276500,10.243276611328126,-0.06460313498973846,-0.03401702269911766,0.10705136507749557
1772698512049233700,10.253233642578126,-0.08143351227045059,-0.04473598301410675,0.07648759335279465
1772698512059190800,10.263190673828126,-0.08689990639686584,-0.04771602153778076,0.032700855284929276
1772698512069147600,10.273147705078125,-0.0650492012500763,-0.04298917576670647,-0.004351438954472542
1772698512079105000,10.28310498046875,-0.022793103009462357,-0.039930038154125214,-0.037318333983421326
1772698512089062000,10.293061767578125,0.01733088120818138,-0.027533024549484253,-0.04275943711400032
1772698512099020000,10.30302001953125,0.04474468156695366,-0.005731785204261541,-0.05431484431028366
1772698512108977000,10.312976806640625,0.0406455472111702,0.01634768396615982,-0.07532372325658798
1772698512118934000,10.32293408203125,0.00806333590298891,0.030593890696763992,-0.12231726944446564
1772698512128891000,10.332890869140625,-0.03319728374481201,0.031228791922330856,-0.18152040243148804
1772698512138847700,10.34284765625,-0.046986814588308334,0.03242791071534157,-0.2619611620903015
1772698512148804900,10.352804931640625,-0.03878720849752426,0.028562862426042557,-0.3331623673439026
1772698512158762000,10.362761962890625,-0.019167177379131317,0.027656033635139465,-0.3540169596672058
1772698512168718800,10.37271875,0.02509349212050438,0.015631595626473427,-0.13664844632148743
1772698512178676000,10.382676025390625,0.08749078959226608,0.021238509565591812,0.05576367303729057
1772698512188633900,10.3926337890625,0.1179237961769104,0.056658290326595306,0.09158345311880112
1772698512198591000,10.402591064453125,0.08846234530210495,0.09335301071405411,0.0659201443195343
1772698512208547800,10.4125478515625,0.03393811360001564,0.10409273952245712,0.030387185513973236
1772698512218505000,10.4225048828125,-0.007840501144528389,0.0803716629743576,-0.03279540315270424
1772698512228462000,10.432462158203125,-0.009922027587890625,0.0619812048971653,-0.09177935868501663
1772698512238419000,10.4424189453125,-0.0034470739774405956,0.05914630368351936,-0.1477135866880417
1772698512248375800,10.452375732421874,-0.022350989282131195,0.07065408676862717,-0.2058117687702179
1772698512258333000,10.4623330078125,-0.04985375702381134,0.11018886417150497,-0.263213187456131
1772698512268290000,10.4722900390625,-0.09740795940160751,0.13857842981815338,-0.3080251216888428
1772698512278248000,10.482248046875,-0.12631893157958984,0.14409929513931274,-0.2817801237106323
