time,seconds_elapsed,z,y,x
1772537729334179300,0.074179443359375,0.2866553799211979,-0.4226256928563118,0.2478445877507329
1772537729344247300,0.084247314453125,0.16267302642166614,-0.38369653500318524,0.19377309808433055
1772537729354315300,0.094315185546875,-0.042868835389614106,-0.30846330710351466,0.24281773603204637
1772537729364382200,0.10438232421875,-0.15988427248597145,-0.2524374684989452,0.29174660211298614
1772537729374450400,0.114450439453125,-0.13769056085646153,-0.14833470446765423,0.3327048546409234
1772537729384518400,0.124518310546875,-0.181461313521862,-0.0755120448410511,0.35868835047483444
1772537729394585300,0.13458544921875,-0.1671188999146223,-0.0844002846956253,0.31032391334362325
1772537729404653300,0.1446533203125,0.03790682906806469,-0.06768412769436837,0.30244711555391546
1772537729414721500,0.154721435546875,0.40387890681028366,-0.0842173293441534,0.3451269677100703
1772537729424788200,0.164788330078125,0.6052285776287317,-0.08728256213366985,0.4677388365739956
1772537729434856200,0.174856201171875,0.6675368575036525,-0.09944996978938579,0.5308712557807564
1772537729444924200,0.184924072265625,0.6544470743060111,-0.09688450321555137,0.5233748721433803
1772537729454991000,0.1949912109375,0.493719336733222,-0.0998942064255476,0.4188394157832488
1772537729465059300,0.205059326171875,0.27359423829615115,-0.026104163071513174,0.3459263013942167
1772537729475127300,0.215127197265625,0.15552257014513016,0.15132570297718048,0.4770029605362564
1772537729485194200,0.2251943359375,0.11798574343323708,0.18511866698563098,0.6382917660579085
1772537729495262200,0.23526220703125,-0.05948796175718307,0.10085632945597171,0.6250236306186765
1772537729505330400,0.245330322265625,-0.18759879336357116,0.10078034161031246,0.3287854527074843
1772537729515397400,0.2553974609375,-0.24307576591372487,0.13883271662890911,0.0014198767352849243
1772537729525465300,0.26546533203125,-0.341605698248744,0.23408114307522773,-0.007694061633944511
1772537729535533300,0.275533203125,-0.29163199928998945,0.2958575080305338,-0.041795507069677114
1772537729545600300,0.285600341796875,-0.00037000235617160797,0.3550204756170511,0.012670900198444723
1772537729555668200,0.295668212890625,0.32806641771793366,0.2977244709461927,0.10890782622545957
1772537729565736200,0.305736083984375,0.6067524261951446,0.1763900016069412,0.12049575349278747
1772537729575803400,0.315803466796875,0.7544301280587911,0.16327859109938145,0.17570866827927528
1772537729585871000,0.32587109375,0.841742500808835,0.19561960273385046,0.14082315979376434
1772537729595939000,0.33593896484375,0.875049727126956,0.20564882931709288,0.05639803291782736
1772537729606006300,0.34600634765625,0.927482509675622,0.2474889061808586,-0.023568872440233826
1772537729616074200,0.35607421875,0.982803999403119,0.22926702079176903,-0.14691446240618825
1772537729626142200,0.36614208984375,1.0135703090667725,0.24394436544179915,-0.2675732975061983
1772537729636209200,0.376209228515625,1.1231506277263164,0.34507483566403385,-0.31360666134133935
1772537729646277000,0.386277099609375,1.2115595635414123,0.5553980865329504,-0.0659960284769535
1772537729656345000,0.396344970703125,1.0698182659894226,0.5791577323049306,0.3097993780128658
1772537729666412000,0.406412109375,0.8555015615701675,0.3610977497041225,0.4647219364382326
1772537729676480300,0.416480224609375,0.6828507464915513,0.21948913862109182,0.519217277539894
1772537729686548200,0.42654833984375,0.592637391602993,0.1362748488396406,0.27830840733647344
1772537729696615200,0.436615234375,0.6347264747917651,0.11895137359499931,-0.023527152190357444
1772537729706683100,0.44668310546875,0.8422750002503394,0.2551227620601654,-0.14849018729031085
1772537729716751000,0.456751220703125,1.1712106020182371,0.3478308563739061,0.051619493404403326
1772537729726818300,0.466818359375,1.4510954648911951,0.22281389912962912,0.383003657368198
1772537729736886300,0.47688623046875,1.5154630153834818,-0.01360357793867588,0.5507260761339217
1772537729746954200,0.486954345703125,1.2820511498719454,-0.22708675414323806,0.600720817880705
1772537729757021200,0.497021240234375,1.1638871272623539,-0.023240005812048912,0.6996911874596029
1772537729767089200,0.507089111328125,1.1039023218989372,0.27814707929491994,0.9596662849217653
1772537729777157400,0.517157470703125,0.9560755669534206,0.3098807726860046,1.3517466173887251
1772537729787224300,0.527224365234375,0.880812528437376,0.1030570543706417,1.5504546876572072
1772537729797292300,0.537292236328125,1.1985697335869072,0.08327800266742706,1.3460355462655424
1772537729807360300,0.5473603515625,1.3978887753605842,0.23336861089169977,0.9310741044268012
1772537729817427200,0.55742724609375,1.2593068186223506,-0.07701660418510436,0.682675243794173
1772537729827495200,0.5674951171875,1.11807113250494,-0.41532910610735413,0.5786429146505891
1772537729837563400,0.5775634765625,0.6506921056866646,-0.9257873961955309,0.5673669028766453
1772537729847630300,0.58763037109375,0.20702830097675323,-0.9554045358240604,0.22765198681056498
1772537729857698300,0.5976982421875,0.0746884534984827,-0.4876011461138725,-0.2877551578566432
1772537729867766000,0.60776611328125,-0.30934827324450015,-0.3756161044001579,-0.2560036365479231
1772537729877833200,0.617833251953125,-0.48269291580617424,-0.25358137783706186,0.09827478853017091
1772537729887901200,0.627901123046875,-0.43256899472177024,-0.2249409742861986,0.4910311205625534
1772537729897969200,0.63796923828125,-0.45951720740199087,-0.32778701625466344,0.6564832563087344
1772537729908036400,0.648036376953125,-0.49823885998427864,-0.4555073872387409,0.6675787969492375
1772537729918104000,0.65810400390625,-0.7277274145722389,-0.6119535019695759,0.6081691611252725
1772537729928172000,0.668172119140625,-0.9144523477107286,-0.5138257206946611,0.43223625563606616
1772537729938239000,0.678239013671875,-1.0352467188239096,-0.36679040838778015,0.2921808653444052
1772537729948307200,0.68830712890625,-1.157280860865116,-0.3712468032747507,0.2212063178025186
1772537729958375200,0.698375244140625,-1.2096031687766313,-0.4850578913718462,0.2423953824341297
1772537729968442000,0.708442138671875,-1.2061258480548858,-0.6425760192483663,0.28660438038632274
1772537729978510000,0.718510009765625,-1.221125848788023,-0.7183452537208795,0.24679054865315556
1772537729988578300,0.728578369140625,-1.214525427609682,-0.686124653595686,0.17020020705610514
1772537729998645200,0.738645263671875,-1.2991121747881174,-0.6881558671623468,0.15395634374171493
1772537730008713200,0.748713134765625,-1.5321382558524608,-0.8675269304066896,0.13435863995477557
1772537730018781200,0.75878125,-1.8139912039279937,-0.9784896433353424,0.11626841812133788
1772537730028848000,0.76884814453125,-2.0199422310620547,-0.9809323603123425,0.4244913405977189
1772537730038916000,0.778916015625,-1.9373954652786254,-0.9790420165210961,0.8831544153884052
1772537730048984300,0.788984375,-1.6012334193885325,-0.8694225348949431,1.2110206343591212
1772537730059051300,0.79905126953125,-1.3710475301861762,-0.8125392026782036,1.3110456275574862
1772537730069119200,0.809119140625,-1.3161007189899683,-0.8103355551540851,1.029745344928652
1772537730079187200,0.819187255859375,-1.2879425459980964,-0.7654594715952873,0.609275222671032
1772537730089254100,0.829254150390625,-1.348947926580906,-0.8212146765649319,0.31730215485841035
1772537730099322400,0.839322265625,-1.4604577519983053,-0.8969172755420207,0.10219400780051946
1772537730109390300,0.849390380859375,-1.589352427458763,-0.9116863901287316,-0.04199161416366696
1772537730119457300,0.859457275390625,-1.6290543232500552,-0.9522697449296712,0.05395531594082713
1772537730129525200,0.869525146484375,-1.5326993968665599,-1.016775242587924,0.27163638222664593
1772537730139593200,0.87959326171875,-1.259925242781639,-1.0651993740171193,0.3680643738463521
1772537730149660200,0.88966015625,-0.7520137145668268,-1.051055697852373,0.46095045507550236
1772537730159728400,0.899728271484375,-0.2457978843539953,-1.027273255726695,0.6337246042728424
1772537730169796400,0.90979638671875,-0.0682791709780693,-1.0315320822149514,0.6542150191158056
1772537730179863300,0.91986328125,-0.29253450108766554,-1.1035030934482812,0.4321469699174165
1772537730189931300,0.92993115234375,-0.5541933869183063,-1.1264140134364367,0.16739274841994045
1772537730199999200,0.939999267578125,-0.9442074345052242,-1.172284953251481,-0.026344693829119203
1772537730210066400,0.95006640625,-1.145091241377592,-1.1558832690268754,-0.1438134276509285
1772537730220134100,0.960134033203125,-1.0501987887620925,-0.9829454537004232,-0.17375833792909978
1772537730230202000,0.9702021484375,-0.7188613865494727,-0.7023018814146518,0.028916590143740175
1772537730240269300,0.980269287109375,-0.3333621860384941,-0.3787245918095112,0.3627583763927221
1772537730250337000,0.9903369140625,0.05041267489790916,-0.04755845451056957,0.6672110596153885
1772537730260405200,1.0004052734375,0.2493716511875391,0.24006956983506678,0.8522640409536659
1772537730270472200,1.01047216796875,0.2074655233502388,0.3975573025733232,0.8394256752338259
1772537730280540200,1.0205400390625,0.24272096112668512,0.48362931987345215,0.742581869354844
1772537730290608000,1.030608154296875,0.27277883026003835,0.4110252714335918,0.5116442119371145
1772537730300675000,1.040675048828125,0.3441968837857246,0.3830974000662565,0.13935695969872175
1772537730310743300,1.050743408203125,0.5589443808376788,0.3814759363442659,-0.09722411043345927
1772537730320811300,1.060811279296875,0.6811550484895705,0.3502747423946857,-0.2919596238091588
1772537730330878200,1.070878173828125,0.700322690296173,0.360925315746665,-0.5326252598412334
1772537730340946200,1.0809462890625,0.7385854931950568,0.40134208180904385,-0.6569456131234764
1772537730351014100,1.09101416015625,0.8675812909424304,0.42875089773833747,-0.7230768853526562
1772537730361081000,1.1010810546875,1.1310486874997616,0.4557289210349321,-0.6456571802593767
1772537730371149300,1.1111494140625,1.395188868752122,0.4674368944853544,-0.43150633392632004
1772537730381217300,1.12121728515625,1.4226643201768396,0.4684831886678934,-0.26065548094175756
1772537730391284200,1.1312841796875,1.4360019406557083,0.40869244457185266,-0.1859871203832328
1772537730401352200,1.141352294921875,1.472724528375268,0.3800052792698145,-0.20806129728630185
1772537730411420200,1.151420166015625,1.352043554508686,0.22976678700745104,-0.21553543255925178
1772537730421487400,1.1614873046875,1.1249328349679708,0.04119067304432392,-0.29968364218994975
1772537730431555000,1.17155517578125,0.8677870426476001,-0.0672293696641922,-0.2804095443341881
1772537730441623000,1.181623046875,0.6719423989862203,-0.14352350479364395,-0.16566329427883028
1772537730451690000,1.19168994140625,0.4252162938714027,-0.2052303116440773,-0.15588555823862552
1772537730461758000,1.201758056640625,0.15702186879217625,-0.26972236529886723,-0.27845168826468286
1772537730471826200,1.211826171875,0.0661702160000801,-0.31550504230856896,-0.29981274846233424
1772537730481893000,1.22189306640625,0.060789692005515095,-0.25099896012842654,-0.33931999846436084
1772537730491961000,1.231961181640625,0.045973231145739556,-0.2827431749135256,-0.3603098872620612
1772537730502029000,1.242029052734375,0.02096446209549904,-0.27593817107379437,-0.4621786816962063
1772537730512096000,1.252095947265625,0.0894113908559084,-0.2529968559473753,-0.5613944043383002
1772537730522164000,1.2621640625,0.21918284915089606,-0.29332594372630116,-0.5097025763500481
1772537730532232000,1.27223193359375,0.46712885144948957,-0.30376199754476546,-0.39353864151649176
1772537730542299100,1.282299072265625,0.7086871985375881,-0.2809685664564371,-0.272656007597968
1772537730552366800,1.292366943359375,0.8451835811734199,-0.2760702730208635,-0.29592750452682376
1772537730562434800,1.302434814453125,0.9301654651492833,-0.2598147192686796,-0.44234775367528195
1772537730572502000,1.312501953125,1.0532739584237336,-0.3231213625311851,-0.5390440408423542
1772537730582570000,1.322570068359375,1.2081062082171439,-0.3889110547810793,-0.668607920801267
1772537730592638000,1.332637939453125,1.312018418112397,-0.3779255503863096,-0.6556166295420378
1772537730602705000,1.342704833984375,1.3148586099743842,-0.3528974921137094,-0.5236335596121847
1772537730612772900,1.35277294921875,1.1657540901780128,-0.305597980800271,-0.4732386395666748
1772537730622840800,1.3628408203125,0.9249807559877633,-0.21322247944176195,-0.4395240745566785
1772537730632907800,1.37290771484375,0.7444833190619945,-0.10355915867388248,-0.3255789848163724
1772537730642976000,1.38297607421875,0.5425742607951164,-0.03766834413707256,-0.3087068335358053
1772537730653044000,1.3930439453125,0.3184603849828243,0.013251695761084556,-0.33828583311103283
1772537730663111000,1.40311083984375,0.24393852022290227,0.0512169770181179,-0.13492825653627513
1772537730673179000,1.413178955078125,0.3064753481566906,0.10651625491380691,0.2037587047215551
1772537730683246800,1.423246826171875,0.4486451002538204,0.15767185713350773,0.4441672972526401
1772537730693314000,1.43331396484375,0.45007074914276596,0.14594400993883608,0.4906783616021275
1772537730703382000,1.443382080078125,0.21600772624611853,0.04493219766020774,0.13900719641298054
1772537730713450000,1.453449951171875,0.1004430724799633,-0.0030716625303030013,-0.19244937519989908
1772537730723517000,1.463516845703125,0.17537877873778343,-0.059684361112117765,-0.11739468220490962
1772537730733585000,1.4735849609375,0.44534021348953245,-0.04104512709379196,0.16708949115704744
1772537730743653000,1.483653076171875,0.6842986072123051,-0.0005476970106363296,0.3996310035748407
1772537730753720000,1.493719970703125,0.7193845336407423,-0.03978723598718643,0.344572694828175
1772537730763788000,1.5037880859375,0.6865139451742172,-0.07875906393826007,0.21843864318747072
1772537730773856000,1.51385595703125,0.6567080049753189,-0.1539566360026598,0.24353045087866484
1772537730783923000,1.5239228515625,0.6907949834942817,-0.19545067590773105,0.4166537788398564
1772537730793991000,1.533990966796875,0.6319990956544875,-0.27034780372083184,0.5034847978137433
1772537730804059100,1.54405908203125,0.46602118246853347,-0.3990735523551702,0.3613635975660756
1772537730814126000,1.5541259765625,0.3133990099400282,-0.560980855101347,0.23196294534485787
1772537730824194000,1.564194091796875,0.1238186873704195,-0.6977496249377727,0.10271291710808872
1772537730834262000,1.574261962890625,-0.23573007932603357,-0.7923375416487455,-0.1050755545862019
1772537730844329000,1.584328857421875,-0.6631243017584085,-0.8639917420178651,-0.34850550423245874
1772537730854397200,1.594397216796875,-1.0167717354565857,-0.890935863044858,-0.527815010015294
1772537730864465000,1.60446484375,-1.313178694063425,-0.8672422682464123,-0.5882660446509719
1772537730874532000,1.614531982421875,-1.4574357738286257,-0.772836137843132,-0.5290773946339264
1772537730884599800,1.624599853515625,-1.5806190859049558,-0.4913093529820442,-0.5832965126100927
1772537730894667800,1.634667724609375,-1.6062766742527483,-0.21077508628964423,-0.5223066949225962
1772537730904735000,1.64473486328125,-1.5128396811425684,0.09304711700975894,-0.34531434350833295
1772537730914803000,1.654802978515625,-1.257793491449952,0.4177192161142826,-0.18010266545452178
1772537730924871000,1.664870849609375,-0.8866589163780212,0.7000830363214016,-0.0025446429815143344
1772537730934937900,1.674937744140625,-0.49389995399713515,0.9933055196732282,0.15674206547010688
1772537730945005800,1.685005859375,-0.06008242051899433,1.2239128491580487,0.3502665590882301
1772537730955074000,1.695073974609375,0.3406856607943773,1.4063532368451357,0.5918315551128238
1772537730965141000,1.70514111328125,0.673293229073286,1.4826567243248223,0.7881723117280751
1772537730975209000,1.715208984375,0.8499766606688499,1.476822026821971,0.9856799932308494
1772537730985277000,1.72527685546875,0.8787024044156074,1.344266490766406,1.1075608444064855
1772537730995344000,1.73534375,0.8154220646381378,1.1332669480711222,0.9929317179247736
1772537731005411800,1.745411865234375,0.6052350073695183,0.8866483949840068,0.8310371285296976
1772537731015480000,1.75547998046875,0.3684621409922838,0.6057002867937088,0.6950836205989122
1772537731025547000,1.765547119140625,0.10910101071000099,0.33754385563731193,0.4601593046978116
1772537731035615000,1.775614990234375,-0.19046119705736636,0.07550912223160267,0.15597301732636987
1772537731045683000,1.785682861328125,-0.4910702835291624,-0.16025953553915023,-0.10520429553240537
1772537731055750000,1.79575,-0.7972691528320313,-0.3726794664263725,-0.2885253385115415
1772537731065818000,1.805818115234375,-1.1674123787790536,-0.5540250446140765,-0.5125795200258493
1772537731075886000,1.815885986328125,-1.4888164159983395,-0.6635679538726806,-0.7791383797924966
1772537731085953000,1.825953125,-1.6394138047009705,-0.6768401078999042,-0.9347998469516634
1772537731096021000,1.83602099609375,-1.5825877556294201,-0.5541945559620857,-0.8848327238641679
1772537731106089000,1.8460888671875,-1.333649235162139,-0.24668109692931173,-0.8198007911790162
1772537731116156000,1.856156005859375,-0.9739981771349906,-0.10227671764791012,-0.39041166860237714
1772537731126224100,1.86622412109375,-0.6064134034991264,0.10941782157421111,-0.11833952530696987
1772537731136292000,1.8762919921875,-0.3099941699326038,0.2734533685207367,-0.02276866197325289
1772537731146359000,1.886359130859375,-0.005469955843687057,0.4216641543477773,0.22599552484042942
1772537731156427000,1.896427001953125,0.30952362981140613,0.5545318250924348,0.6157607852980495
1772537731166494700,1.90649462890625,0.5428700288712978,0.6741741035610437,0.9122972155034541
1772537731176562200,1.916562255859375,0.6696639326602221,0.7080921552538871,1.106774297138676
1772537731186630000,1.9266298828125,0.5621767868876457,0.6105845517039299,1.0183350392505526
1772537731196697900,1.93669775390625,0.2895779893696308,0.4854372460782528,0.7486930457115173
1772537731206765000,1.94676513671875,0.09689736269712447,0.3765530929893255,0.6004000614937395
1772537731216832800,1.956832763671875,-0.005990180325508117,0.2778571564376354,0.6062592358507216
1772537731226901000,1.96690087890625,-0.09287234496474266,0.2037006178587675,0.5672124429672956
1772537731236968000,1.976968017578125,-0.13100070782899856,0.16786533436775206,0.44287828035540877
1772537731247036000,1.987035888671875,-0.1456733763039112,0.10182020605206489,0.29629063875079154
1772537731257104000,1.997103759765625,-0.15922434727251528,0.061196519240736956,0.08048523014374077
1772537731267170800,2.0071708984375,-0.1794528963088989,0.015411504143476485,-0.07971490335837006
1772537731277238800,2.01723876953125,-0.18436989444494245,0.005610241097211838,-0.16476503026485442
1772537731287307000,2.02730712890625,-0.14543606041669846,0.03017126637995243,-0.16678711067698895
1772537731297374000,2.0373740234375,-0.12549509615004062,0.07044716266691685,-0.13164696984328328
1772537731307442000,2.04744189453125,-0.09407353744804858,0.12755787389874457,-0.06676299426145851
1772537731317510000,2.057510009765625,-0.08184533951580523,0.19483049818277356,0.07619973484426737
1772537731327576800,2.067576904296875,-0.12241934196650982,0.2633832254052162,0.21487923367284237
1772537731337645000,2.07764501953125,-0.2842857281804085,0.25144670389592644,0.187600473864004
1772537731347713000,2.087713134765625,-0.4656511801123619,0.24325930578708646,0.11952617780826985
1772537731357780000,2.097780029296875,-0.5091226575702429,0.21395780797898767,0.16464783362597227
1772537731367848000,2.107847900390625,-0.46286768687367436,0.18292028015851974,0.16091741492599249
1772537731377916000,2.117916015625,-0.38232758473753925,0.18809446792602538,0.19882373253740368
1772537731387983000,2.127983154296875,-0.26724574605226514,0.15765841313004492,0.2297521739602089
1772537731398051000,2.138051025390625,-0.19881810651421547,0.12953297336399555,0.11768657782357185
1772537731408119000,2.148119140625,-0.11530395700335502,0.10208908612132071,0.011981785423122346
1772537731418186000,2.15818603515625,0.019258827221393583,0.03828267664313316,-0.04133373477682471
1772537731428254700,2.168254638671875,0.2663058348536491,-0.0017418752312660217,0.04428454740643501
1772537731438322400,2.178322509765625,0.45903439232110976,-0.005806055930256843,0.17612002555914222
1772537731448389600,2.1883896484375,0.5722434228718281,-0.019429507613182066,0.18616496116816997
1772537731458457600,2.19845751953125,0.5458791475594044,-0.11783493678569792,0.03474405418820679
1772537731468524800,2.20852490234375,0.4240186085194349,-0.22510522493720053,-0.098282095053792
1772537731478592500,2.218592529296875,0.1778407849371433,-0.32155250577926636,-0.320391718371585
1772537731488660500,2.228660400390625,-0.2150602162629366,-0.33321079486906524,-0.5694225932974368
1772537731498727700,2.238727783203125,-0.6199748958617448,-0.2619575765162706,-0.7396458159029483
1772537731508795600,2.248795654296875,-1.012635074043274,-0.1042810432076454,-0.8342569673590362
1772537731518863600,2.258863525390625,-1.256530924168229,0.14076222338676453,-0.7104672868873924
1772537731528930600,2.2689306640625,-1.183378009673953,0.37560909013748167,-0.3733504975557327
1772537731538998500,2.27899853515625,-0.9275035524636507,0.5679647226393223,0.006326134281605482
1772537731549066500,2.28906640625,-0.6767962687581777,0.6917173590362071,0.2206008992552757
1772537731559133400,2.299133544921875,-0.4049930055320263,0.6912298677802086,0.2452773676112294
1772537731569201700,2.30920166015625,-0.21912673504948615,0.6477420237094164,0.05520714263282716
1772537731579269600,2.31926953125,-0.1366927819907665,0.5977694937944412,-0.19230821316353974
1772537731589336600,2.329336669921875,-0.1670493418097496,0.5228372946679591,-0.5168106547895819
1772537731599404500,2.339404541015625,-0.18609131141006946,0.5172171166986227,-0.8116312209878116
1772537731609472500,2.349472412109375,-0.1407552091240883,0.5172866748034953,-0.9242103561371564
1772537731619539700,2.359539794921875,0.09825345348119735,0.5686755012571811,-0.8584894182745367
1772537731629607700,2.369607666015625,0.46106502136588096,0.6656161185741424,-0.6760922121420502
1772537731639675600,2.379675537109375,0.74078037289083,0.7618225763976574,-0.46878348678871984
1772537731649742600,2.38974267578125,0.9328805693268776,0.8450263447850942,-0.23977518999837338
1772537731659810600,2.399810546875,0.9885907661110163,0.883816970950365,-0.0649503188163042
1772537731669878800,2.409878662109375,0.9445108013659715,0.9007949937582016,0.06909706323221325
1772537731679945700,2.41994580078125,0.8211176459312438,0.8825830452412367,0.25823877518884836
1772537731690013700,2.430013671875,0.6237918238013982,0.787071583944559,0.21237200009226798
1772537731700081700,2.44008154296875,0.3631283787488937,0.6493506279498338,-0.028920827927440402
1772537731710148600,2.450148681640625,0.1510287658572197,0.5055599966526031,-0.08448562489151955
1772537731720216600,2.460216552734375,0.02081190188229084,0.4180594078540802,-0.03624159926958382
1772537731730284800,2.470284912109375,-0.13955810829401016,0.3416495373904705,-0.046710970835760236
1772537731740351700,2.480351806640625,-0.4097369851887226,0.26067045931518074,-0.08943988629803061
1772537731750419700,2.490419677734375,-0.817101980549097,0.1257961249232292,-0.17373970629386604
1772537731760487700,2.50048779296875,-1.2496312277823687,-0.003712298521399498,-0.3755491035785526
1772537731770554600,2.5105546875,-1.5137608876407145,-0.11227905622422694,-0.4648653634969145
1772537731780622800,2.520622802734375,-1.4795985057979821,-0.1616553738117218,-0.3380687562942505
1772537731790690600,2.530690673828125,-1.2267851897239683,-0.1803168196618557,-0.10961743579953909
1772537731800757800,2.5407578125,-0.9252841228485107,-0.154970781481266,0.10361308081820607
1772537731810825500,2.550825439453125,-0.7146388004183769,-0.11276947008967399,0.13891403823681175
1772537731820893400,2.5608935546875,-0.6318237390875816,-0.07198503975868224,0.05149769365563989
1772537731830960600,2.570960693359375,-0.6277560512572526,-0.07069441542625426,-0.169509448312968
1772537731841028600,2.581028564453125,-0.5534791011691094,-0.050958033820986744,-0.3720029554042965
1772537731851096600,2.5910966796875,-0.37104280513525006,-0.03471300146281719,-0.3561192306391895
1772537731861163500,2.60116357421875,-0.17664485315084458,-0.029821137768030165,-0.2716132205467671
1772537731871231500,2.6112314453125,-0.001672317126393318,-0.01837619916796684,-0.1088844453498721
1772537731881299700,2.6212998046875,0.01101765309870243,0.03315057445168495,-0.0015801087982952593
1772537731891366700,2.63136669921875,-0.13899579823613167,0.08879472026228905,0.007407353647053241
1772537731901434600,2.6414345703125,-0.29437983669340606,0.10621814875006676,0.03290646349750459
1772537731911502600,2.651502685546875,-0.30671909378468987,0.1454652865111828,0.06051036360748112
1772537731921569500,2.661569580078125,-0.20055647461414336,0.18390695310831068,0.15691037124171853
1772537731931637500,2.671637451171875,0.010344868403673171,0.20309680674672126,0.234968812629953
1772537731941705700,2.681705810546875,0.18803543121516703,0.21167583452165126,0.26961444794498385
1772537731951772700,2.691772705078125,0.23338439298272132,0.20277824231684208,0.2533393127094954
1772537731961840600,2.701840576171875,0.20485329502522945,0.20767595123052596,0.18315679232813417
1772537731971908600,2.71190869140625,0.21648469610810278,0.25873744542598726,0.19363763513639567
1772537731981975600,2.7219755859375,0.20494038878679274,0.30014731417894364,0.26880583497583865
1772537731992043800,2.732043701171875,0.14028174639344215,0.3386860114097595,0.317079890409857
1772537732002111700,2.74211181640625,0.011952888122200965,0.3591682429462671,0.3768096250336617
1772537732012178700,2.7521787109375,-0.18527298076450824,0.3568447684347629,0.4040077208217233
1772537732022246700,2.76224658203125,-0.38225919567644595,0.3294190013706684,0.38132242628298696
1772537732032314600,2.772314697265625,-0.5658195273041725,0.27509645955264567,0.39669783619977533
1772537732042381600,2.782381591796875,-0.6323626682698726,0.26308745732903477,0.4392582632273435
1772537732052449800,2.79244970703125,-0.4670885194391012,0.2984931172311306,0.5434236441660673
1772537732062517800,2.802517822265625,-0.22888182086646555,0.3158902422338724,0.7525266325250267
1772537732072584700,2.812584716796875,-0.05035948340594768,0.2717734526097774,0.8731229968480765
1772537732082652700,2.822652587890625,-0.005389876344799995,0.2541167998880148,0.8592764769989997
1772537732092720600,2.832720703125,-0.24896891560554502,0.1948299136608839,0.72049834010154
1772537732102787800,2.842787841796875,-0.5179097751379013,0.1071831943899393,0.5050840497039258
1772537732112855600,2.85285546875,-0.6619114188373089,0.03286006707251072,0.4526334392376244
1772537732122923500,2.862923583984375,-0.7782645926326512,0.0008458031743764876,0.535591050844267
1772537732132990700,2.87299072265625,-0.8274784131348133,0.014333645778894424,0.6540192042827606
1772537732143058400,2.883058349609375,-0.8171428970813751,0.032338673546910286,0.8528568192150443
1772537732153126700,2.893126708984375,-0.727231155487895,0.02619359492063522,1.0575297892373055
1772537732163193600,2.903193603515625,-0.5820493620932102,0.0590729512155056,1.2937399802304803
1772537732173261600,2.913261474609375,-0.4028092317521572,0.07856558719277382,1.4470888595983384
1772537732183329500,2.92332958984375,-0.2692740370094776,0.1198404313892126,1.4628347102627157
1772537732193396500,2.933396484375,-0.40263504422903057,0.12286825477778911,1.2540734480135143
1772537732203464700,2.943464599609375,-0.7756319060415029,0.05918225680887699,0.8165915468089282
1772537732213532700,2.95353271484375,-1.1190285793602466,0.08087678674459457,0.45381081245392557
1772537732223599600,2.963599609375,-1.27467565266788,0.10205635289549828,0.2216848950996995
1772537732233667600,2.97366748046875,-1.220486381840706,0.2184568729639053,0.058631052666902536
1772537732243735600,2.983735595703125,-1.0458230578958987,0.3070055095106363,-0.0248351660490036
1772537732253802500,2.993802490234375,-0.6945657342046498,0.39460605155229567,0.09531389289796352
1772537732263870700,3.00387060546875,-0.2860533223748207,0.658824558737874,0.38377164606601
1772537732273938700,3.013938720703125,-0.021971008789539337,0.7999404178678989,1.0952484753221272
1772537732284005600,3.024005615234375,0.006268997266888618,1.0425620102733373,1.512130802220851
1772537732294073600,3.034073486328125,-0.2108423063069582,0.8546727095305919,1.319765671238303
1772537732304141600,3.0441416015625,-0.6351251187205315,0.7816857992529869,0.5277803040280938
1772537732314208800,3.054208740234375,-0.8144482511699199,0.7576268782734871,0.16830869422107933
1772537732324276700,3.06427685546875,-0.8276677982270717,0.5309574727594852,0.45884792983829975
1772537732334344700,3.0743447265625,-0.5879267296940088,0.44617257266044613,0.6870438142672181
1772537732344411600,3.08441162109375,-0.5613046802282333,0.25921032363474367,0.5414611849866807
1772537732354479600,3.094479736328125,-0.7778717939227819,0.1593155326873064,0.27414661148190494
1772537732364547800,3.1045478515625,-0.8376514321029186,0.32360242404639716,0.38687867217063904
1772537732374614800,3.11461474609375,-0.4884229838907718,0.4908943424403667,0.8867799124091863
1772537732384682800,3.124682861328125,0.2816717462897301,0.41708559438586235,0.945533714672923
1772537732394750700,3.134750732421875,0.7836620677620172,0.15927461615502833,0.2486211250811815
1772537732404817700,3.144817626953125,0.07632745287716389,-0.11569734023511409,0.9397700365796685
1772537732414885600,3.1548857421875,-0.5172130250453949,-0.10531623147428035,1.5324088894873857
1772537732424953000,3.164953125,-1.1573907509803771,-0.200624279153347,0.5999024141699075
1772537732435020300,3.175020263671875,-1.6041040063887833,-0.10163549713492392,-0.6134963474974036
1772537732445088300,3.185088134765625,-2.1364719304680824,-0.18036650402247906,-1.3468524156063795
1772537732455156000,3.195156005859375,-2.5860674633145333,-0.2004670427650213,-1.995009742118418
1772537732465223200,3.20522314453125,-2.70983471275866,-0.0009738134682178497,-2.4258327699556945
1772537732475291100,3.215291015625,-2.4574539428830144,0.28396774827241894,-2.231082059010863
1772537732485359000,3.225359130859375,-1.8591402592092752,0.4219324498951435,-1.1870283488750457
1772537732495426300,3.23542626953125,-0.9469541028648615,0.18446984768807886,-0.09991291112601756
1772537732505494000,3.245493896484375,0.0455833550453186,0.1522305428624153,0.7917886755943297
1772537732515562000,3.25556201171875,0.5927163020581007,0.337506446236372,1.1669058905616403
1772537732525629000,3.26562890625,0.817206609967351,0.6592828238993883,0.9923597632557153
1772537732535697000,3.27569677734375,0.9359165760219097,1.03470545155406,0.7842951049685478
1772537732545765000,3.28576513671875,0.7970540487766266,1.0991729552894831,0.6973167864784598
1772537732555832000,3.29583203125,0.5478823040753603,0.8914473196983337,0.6758788616523146
1772537732565900000,3.305900146484375,0.3506587732762098,0.7092103456288575,0.5991551029339433
1772537732575968000,3.315968017578125,0.2401034721046686,0.5772106898903846,0.3732350544825196
1772537732586035000,3.326034912109375,0.23781156177520751,0.567998624908924,0.19507117507085203
1772537732596103200,3.336103271484375,0.26359832946062084,0.6408025798350572,0.14018544641211628
1772537732606171100,3.346171142578125,0.302828516086936,0.690087712007761,0.09103431588262319
1772537732616238000,3.356238037109375,0.41411388509869573,0.7735077534943818,0.117167120526731
1772537732626306000,3.36630615234375,0.5275146388292312,0.7961153066217899,0.17960969430580734
1772537732636374000,3.3763740234375,0.648800008329749,0.7975725196927785,0.18274623876586554
1772537732646441000,3.38644091796875,0.7697673979222774,0.8267261334627867,0.1694479273840785
1772537732656509200,3.39650927734375,0.8348504032075404,0.7832236763447523,0.1967167503207922
1772537732666577200,3.4065771484375,0.8430120823532342,0.5896972464978695,0.22406024592891335
1772537732676644000,3.41664404296875,0.7213958734631538,0.371421575319767,0.1229161855727434
1772537732686712000,3.426712158203125,0.5134732539951801,0.2837012062907219,-0.0638533173598349
1772537732696780300,3.4367802734375,0.2588783152014017,0.20763912635147572,-0.24219576820880173
1772537732706847200,3.44684716796875,-0.07351531806588173,0.074814710226655,-0.3787573250353336
1772537732716915200,3.456915283203125,-0.389372242552042,0.009264671951532364,-0.43940147109031674
1772537732726983200,3.466983154296875,-0.5223579867184162,0.002921440404653549,-0.3887218158192932
1772537732737050000,3.477050048828125,-0.5367687893867492,-0.02030044522881508,-0.22241452454850077
1772537732747118000,3.4871181640625,-0.4615688792347908,-0.07204992168843746,-0.035689299149066205
1772537732757186000,3.49718603515625,-0.35120530124306676,-0.11284136628210543,0.09229366829395294
1772537732767253200,3.507253173828125,-0.2844844656229019,-0.17070143457651138,0.0928024945989251
1772537732777321200,3.5173212890625,-0.18612579820156097,-0.19320202019810676,0.028237229577451943
1772537732787389000,3.527388916015625,-0.05688450126051903,-0.23034955533146856,0.0066571198016405105
1772537732797456100,3.5374560546875,-0.014592004454135894,-0.35365795509219167,-0.01976633835211396
1772537732807524000,3.547524169921875,0.06712181763648986,-0.403135979488492,-0.055397477573156356
1772537732817592000,3.557592041015625,0.19454408245682714,-0.3825689922779798,-0.05371741553172469
1772537732827659000,3.567658935546875,0.2137964799374342,-0.4218938714504242,-0.05105594123750925
1772537732837727000,3.57772705078125,0.26506664844751354,-0.47400049078464507,-0.05318243187218904
1772537732847795000,3.587794921875,0.2984749970525503,-0.5009674081653356,-0.07198299393206835
1772537732857862000,3.59786181640625,0.2276291904568672,-0.5337625933080912,-0.13409545897394418
1772537732867930000,3.60793017578125,0.1589455303311348,-0.5291249966353178,-0.21072014123201369
1772537732877998000,3.617998046875,0.2528168232053518,-0.5099707988321781,-0.1609507326737046
1772537732888065000,3.62806494140625,0.35813363920152186,-0.6001163491815328,-0.009399842638522386
1772537732898133000,3.638133056640625,0.3360784592598676,-0.6863900265336036,0.07016381568089126
1772537732908201000,3.648200927734375,0.3922515973806381,-0.5831956095188856,0.029262773232907054
1772537732918268200,3.65826806640625,0.46331367707550525,-0.46231531368792056,0.012865326792001723
1772537732928336100,3.668336181640625,0.4529799145877361,-0.39666356860399243,0.07008242100775242
1772537732938404000,3.678404052734375,0.38925709173977374,-0.280340205425024,0.15176862443909048
1772537732948471000,3.688470947265625,0.2296159803599119,-0.15031272654235361,0.17498247289657592
1772537732958539000,3.6985390625,-0.062243982467055314,-0.13311316993832586,0.1400140353679657
1772537732968607200,3.708607177734375,-0.5194084892630577,-0.14355097732245922,0.025946049900352954
1772537732978674200,3.718674072265625,-0.9345411960154771,-0.05823708491325378,-0.14988704847618936
1772537732988742100,3.7287421875,-1.1288514697164296,0.04543430196344852,-0.1488186885923147
1772537732998810000,3.73881005859375,-1.216024726256728,0.035781507477164264,0.06734042882323264
1772537733008877000,3.748876953125,-1.2497598225980997,-0.02733867330253124,0.24447642649188636
1772537733018945000,3.758945068359375,-1.3475140943855046,-0.0850321528583765,0.2007404528789222
1772537733029013200,3.76901318359375,-1.512245806902647,-0.11633914526998997,0.03964680460318923
1772537733039080200,3.779080078125,-1.729157203990221,-0.16420856542587278,-0.23258798190802335
1772537733049148200,3.789148193359375,-1.8796002789139747,-0.1557376742005348,-0.5532847476407885
1772537733059216100,3.799216064453125,-1.8675392542421816,-0.1478255859017372,-0.8539894034415483
1772537733069283000,3.809282958984375,-1.6692320198595523,-0.10823065761625766,-1.093315899824351
1772537733079351300,3.819351318359375,-1.2745651780307292,0.10721066691875457,-1.1262703671820462
1772537733089419000,3.8294189453125,-0.7714473138332366,0.3927437648117542,-0.951114875806123
1772537733099486200,3.839486328125,-0.30209727920293805,0.6180582485854625,-0.5946310496382415
1772537733109554200,3.84955419921875,0.05509527975618839,0.8325643380969763,-0.2252892032019794
1772537733119622000,3.859621826171875,0.3285691065430641,1.0261661712676287,-0.0012862404182553292
1772537733129689000,3.869689208984375,0.4566454513579607,1.1710416751921175,0.06312851021662354
1772537733139757000,3.879757080078125,0.48806058031916616,1.2544430119782686,0.0763937961116433
1772537733149825000,3.889824951171875,0.5269558359026909,1.2552104892194271,0.08166910616606474
1772537733159892000,3.89989208984375,0.7151222000211477,1.1564315505594014,0.2396045826718211
1772537733169960000,3.9099599609375,0.957135889661312,0.9158528621584177,0.5148381126075983
1772537733180028200,3.920028076171875,1.179637069579959,0.6277227335095406,0.8000510386355221
1772537733190095000,3.93009521484375,1.3499334304869175,0.39960780536234375,1.0105513996370137
1772537733200163000,3.9401630859375,1.3637602957874535,0.24554011020064354,1.1858068442560732
1772537733210231000,3.95023095703125,1.1828396650135515,0.09627075523138046,1.3232904843635855
1772537733220298000,3.960298095703125,0.8597837689340114,0.10142974542975425,1.2513609741844236
1772537733230366000,3.970365966796875,0.5645265648841857,0.1609972021639347,1.2286207345880567
1772537733240434200,3.98043408203125,0.1019546460866928,0.1945329765409231,1.6422418677337467
1772537733250501000,3.990501220703125,-0.4806050036162138,0.2064718361377716,0.946909240809828
1772537733260569000,4.000569091796875,-0.8483107732832431,0.1199883154273033,-0.004096475533396006
1772537733270637000,4.010636962890625,-1.2193489022433757,0.13291034084260464,-0.7354647308260202
1772537733280704000,4.0207041015625,-1.5674614981681108,0.13342939628064632,-1.1712781142964959
1772537733290772200,4.030772216796875,-1.7704291255772113,0.297350961458683,-1.2318874812990426
1772537733300840200,4.040840087890625,-1.9649697009027003,0.09593874679803847,-1.1523952807806432
1772537733310907100,4.0509072265625,-1.9472347222477195,-0.07605331211090087,-0.9327851461283863
1772537733320975000,4.06097509765625,-1.3883873720437288,0.14177519982159137,-0.5466556848898529
1772537733331043000,4.07104296875,-0.7031652202457189,0.2270937684059143,-0.0023345804274082184
1772537733341110000,4.081110107421875,-0.058172787505388256,0.2189157226473093,0.6032382805943489
1772537733351178200,4.09117822265625,0.48448330635428427,0.3519488130867481,1.079556692932546
1772537733361246200,4.10124609375,0.8806208052575588,0.46926060278117654,1.3242059917733073
1772537733371313200,4.111313232421875,1.092168044963479,0.5973474689900875,1.365022278547287
1772537733381381000,4.121381103515625,1.2347510540366171,0.6327005219221115,1.0652286001116036
1772537733391449000,4.131448974609375,1.1074801803857088,0.4426549199283123,0.6156222536101937
1772537733401516300,4.141516357421875,0.8803156848311424,0.3270563638925552,0.18480945490598677
1772537733411584300,4.151584228515625,0.6345932038009167,0.2670955239266157,-0.19454671280533073
1772537733421652000,4.16165185546875,0.325562910464406,0.1901367874085903,-0.507164216978848
1772537733431719200,4.17171923828125,0.24477087939381598,0.2395066752552986,-0.628809067441523
1772537733441787100,4.181787109375,0.410443087631464,0.4178010491788387,-0.4345797500222921
1772537733451855000,4.191855224609375,0.5519640204310416,0.5307710102766752,-0.11893559150397777
1772537733461922000,4.201922119140625,0.5364905569672584,0.4947288060367107,0.09965309114605188
1772537733471990000,4.211989990234375,0.47525253667235373,0.5094201792120934,0.18739976366013286
1772537733482058000,4.22205810546875,0.43362756386399265,0.5638619634956121,0.14234686222970486
1772537733492125000,4.232125,0.3773556415438652,0.5026613526016473,0.05695829714909196
1772537733502193200,4.242193115234375,0.3347825742304325,0.3193266464233398,-0.02494257194623351
1772537733512261000,4.25226123046875,0.30570085665285585,0.02908990088403225,-0.07221110359951853
1772537733522328000,4.262328125,0.23531214617490767,-0.18438684557974339,-0.07827464142218232
1772537733532396000,4.27239599609375,0.18707097009718418,-0.2757061158835888,-0.11125278191640972
1772537733542464000,4.282464111328125,0.06529810934066772,-0.36841654828488823,-0.27664032799378035
1772537733552531200,4.29253125,-0.04903437228202819,-0.45977322798967357,-0.5279103601485491
1772537733562599200,4.30259912109375,-0.05776479122638702,-0.4334551299065351,-0.6089052203148603
1772537733572667100,4.312667236328125,-0.004345920249819756,-0.31737843496501444,-0.4579648633934557
1772537733582734000,4.322734130859375,0.10566986721754074,-0.24488135403096675,-0.2567706753976643
1772537733592802000,4.332802001953125,0.2910767034947872,-0.17880699962079524,0.008039806331694125
1772537733602870300,4.342870361328125,0.47577334567606444,-0.2327846735239029,0.28618717788755893
1772537733612937200,4.352937255859375,0.5792664533764124,-0.3314303411930799,0.47028643869757647
1772537733623005200,4.363005126953125,0.569992429074645,-0.3176549138188362,0.4708798745460808
1772537733633073200,4.3730732421875,0.6050631579339504,-0.16003741722106932,0.34855464060381053
1772537733643140000,4.38314013671875,0.7190905191302299,0.0010065466940402984,0.2426499417170882
1772537733653208000,4.3932080078125,0.8219073350042104,-0.0033966567009687423,0.31834479577913877
1772537733663276300,4.4032763671875,0.9944576123178005,-0.050581017202138895,0.47904009238705036
1772537733673343200,4.41334326171875,1.2315496276468039,-0.14285539627373217,0.6038144730471074
1772537733683411200,4.4234111328125,1.4905746578425167,-0.3729670511960983,0.7195591595552862
1772537733693479200,4.433479248046875,1.577391940551996,-0.7351344759583472,0.8655581145517528
1772537733703546000,4.443546142578125,1.4602683669060468,-1.045057918742299,0.9338369932688773
1772537733713614300,4.4536142578125,1.237422319072485,-1.217468495324254,0.8136592927493155
1772537733723682000,4.46368212890625,0.845284118938446,-1.194092295911908,0.6577662818565965
1772537733733749200,4.473749267578125,0.3666419398277998,-1.1269389140933752,0.6886778452098369
1772537733743817200,4.483817138671875,-0.04978665195405483,-1.255309273418784,0.6892813640609383
1772537733753885000,4.493885009765625,-0.41536300837695594,-1.2545306902617215,0.6213625508278608
1772537733763952000,4.5039521484375,-0.7652800233751536,-1.0319874247670173,0.3698151630364358
1772537733774020000,4.51402001953125,-0.9643085577696561,-0.7254431030273437,0.007266191610693931
1772537733784088000,4.524088134765625,-1.138694233816862,-0.40345688200592994,-0.32795155916661023
1772537733794155000,4.534155029296875,-1.2540116348236798,-0.22396365368664264,-0.5901742163598537
1772537733804223000,4.544222900390625,-1.3435124575287103,-0.1375865159600973,-0.8057901668094098
1772537733814291200,4.554291259765625,-1.310207569298148,0.14754443087279795,-0.7959674225836991
1772537733824358100,4.564358154296875,-1.1759504900217055,0.36903029626905914,-0.6593108809500933
1772537733834426000,4.574426025390625,-0.9705898299962281,0.33214521146416665,-0.44250060614943504
1772537733844494000,4.584494140625,-0.630170711183548,0.4280050478070974,-0.030738837134838104
1772537733854561000,4.59456103515625,-0.2168763257741928,0.5561702399492263,0.3876531636744737
1772537733864629000,4.60462890625,0.0614998861014843,0.5850099654644727,0.6709985422648489
1772537733874697200,4.614697265625,0.2208715328902006,0.4600765948504209,0.6853964854516088
1772537733884764200,4.62476416015625,0.353217225587368,0.7871230218708515,0.8039983149565756
1772537733894832000,4.63483203125,0.5041933844745159,0.9167916043132543,0.8612450736582279
1772537733904900000,4.644900146484375,0.6417658719092607,0.6284171455144881,0.8391822949320077
1772537733914967000,4.654967041015625,0.7237655252039432,0.4601420613020658,1.0132163810625672
1772537733925035300,4.66503515625,0.7377110484480858,0.3479389929234981,1.121603398284316
1772537733935103200,4.675103271484375,0.717458534014225,0.2420382395595312,1.04617070228979
1772537733945170200,4.685170166015625,0.6477952152013778,0.14579378781318664,0.9294503026172518
1772537733955238100,4.695238037109375,0.511660651615262,0.05808335565626621,0.7966051359653472
1772537733965306000,4.70530615234375,0.21982056253254412,0.05343991376459598,0.6398499552853405
1772537733975373000,4.715373046875,-0.194715931892395,0.11644728181958199,0.5439952335089445
1772537733985441300,4.725441162109375,-0.6624550241947174,0.1778326016306877,0.5609980984970927
1772537733995509200,4.73550927734375,-1.1450684450238942,0.19050620524287223,0.6061139821611344
1772537734005576200,4.745576171875,-1.5401169796466827,0.12296236280202864,0.5040839327506721
1772537734015644200,4.75564404296875,-1.7643869228035212,0.26017887640595433,0.45173546748459337
1772537734025712000,4.765712158203125,-1.7751678445369004,0.6101596042901277,0.5430518151789904
1772537734035779300,4.775779296875,-1.664391009569168,0.5131599502623081,0.4664249409638345
1772537734045847300,4.785847412109375,-1.5022984133839605,0.47430093503594395,0.5114693668268621
1772537734055915000,4.7959150390625,-1.3079086447060106,0.5439391194075346,0.5420929070189595
1772537734065982200,4.805982177734375,-1.1295528959840535,0.569708935958147,0.5124734293028712
1772537734076050000,4.8160498046875,-0.9539934999823569,0.5821358713328838,0.6035249885812402
1772537734086118100,4.8261181640625,-0.8106599648028612,0.5703080708950757,0.7410784790545701
1772537734096185000,4.83618505859375,-0.6882943988502025,0.6038678106695413,0.7978637577243148
1772537734106253000,4.846253173828125,-0.47986675246953964,0.6525082151979208,0.8009471837576478
1772537734116321000,4.856321044921875,-0.25022329958081246,0.6371247681051493,0.8346976237986237
1772537734126388000,4.866387939453125,-0.05765022493600845,0.6067512571513652,0.9283862535823136
1772537734136456000,4.8764560546875,-0.004966097974777222,0.5245043510973453,0.9425790295857935
1772537734146524200,4.886524169921875,-0.05756780734956264,0.5236287373065949,0.8088731544513255
1772537734156591000,4.896591064453125,-0.06614800416827202,0.5851350531488657,0.7191730097819119
1772537734166659000,4.9066591796875,-0.06809446206092834,0.5157254168361425,0.8313016246847807
1772537734176727000,4.91672705078125,-0.09975333665013313,0.37371874634623525,1.017241398794949
1772537734186794000,4.9267939453125,-0.15933189930021763,0.29529344440698624,1.1121947147522122
1772537734196862200,4.9368623046875,-0.21446049680411813,0.30827567557692526,1.134796714921668
1772537734206930200,4.94693017578125,-0.28234160837531086,0.3073030311524868,1.196945566451177
1772537734216997000,4.9569970703125,-0.43204818571805953,0.27633856856822964,1.236955139952153
1772537734227065000,4.967065185546875,-0.7040010865479708,0.18753858760893344,1.0835587681807577
1772537734237133000,4.977133056640625,-0.9833008430093526,0.13940145642757415,0.7424088508754968
1772537734247200000,4.987199951171875,-1.135047986268997,0.3089303400933742,0.5742688642848283
1772537734257268200,4.997268310546875,-1.1525824739158153,0.17171733362078664,0.4501172916982323
1772537734267336200,5.007336181640625,-1.0781062018632888,0.011194763231277466,0.49501609854549167
1772537734277403100,5.017403076171875,-0.9467290619373321,-0.014735212317109107,0.5985659779343754
1772537734287471000,5.02747119140625,-0.8326683829933405,-0.030039748954772946,0.6033220133550464
1772537734297539300,5.037539306640625,-0.7079957091420889,-0.0329132585644722,0.6619545273266733
1772537734307606300,5.047606201171875,-0.6438625519275665,-0.0715600923448801,0.6382041608396917
1772537734317674200,5.05767431640625,-0.6214408767610788,-0.07117313885390758,0.49219132344834504
1772537734327742200,5.0677421875,-0.5710018983781338,-0.002907411879301071,0.40254575851038094
1772537734337809200,5.07780908203125,-0.44781040299534797,0.06935176864564419,0.41808775716573
1772537734347877000,5.087877197265625,-0.2683323722451925,0.13300620243251324,0.5840531031310559
1772537734357945000,5.097945068359375,-0.0547246928781271,0.22413374955654142,0.8272267764613032
1772537734368012300,5.10801220703125,0.13037293131947517,0.26470073774456976,1.0340599201921372
1772537734378080300,5.118080322265625,0.2878817068457603,0.19017887298464775,1.165628344906494
1772537734388148000,5.12814794921875,0.3893547068953514,0.09322598070800305,1.3744634761095047
1772537734398215200,5.138215087890625,0.34602585277855397,-0.009541735327243804,1.5206711054205893
1772537734408283100,5.148283203125,0.23215163631737232,-0.018127192842960358,1.5044278266280888
1772537734418351000,5.15835107421875,0.06233925953507423,0.025471125864982604,1.5746642691537738
1772537734428418000,5.16841796875,-0.2268488537341356,0.005034487035870552,1.684102256733179
1772537734438486000,5.178486083984375,-0.6267693783074617,-0.017946575579047202,1.6355045223027467
1772537734448554000,5.188553955078125,-0.997819197705388,0.0701005411863327,1.4244398054167628
1772537734458621000,5.198620849609375,-1.3589870900362728,0.19892273593246937,1.2109906045470387
1772537734468689000,5.20868896484375,-1.683061807769537,0.3032242374062538,1.0276217038381845
1772537734478756900,5.2187568359375,-1.9113561841368674,0.4044821334004402,0.9549443709664046
1772537734488823800,5.22882373046875,-1.994192872777581,0.44333004271090026,1.0961967159576713
1772537734498892000,5.23889208984375,-2.0613567759901286,0.3466711649447679,1.3316650756075978
1772537734508960000,5.2489599609375,-2.1947312272131443,0.18117723588347434,1.4182013494186103
1772537734519028000,5.259028076171875,-2.354068387210369,0.019809446841478347,1.2011121115460992
1772537734529095000,5.269094970703125,-2.458589084392786,-0.09211305103003978,0.8340016043584794
1772537734539163100,5.2791630859375,-2.411547347232699,-0.10152560701966284,0.4992608234431594
1772537734549231000,5.289231201171875,-2.267815168124437,-0.06142156016826629,0.22775091714039444
1772537734559298000,5.299298095703125,-2.0433517482221126,0.004727028521895408,0.019152298106998204
1772537734569366000,5.309365966796875,-1.81377434630692,0.11604922241270542,-0.15706775376051663
1772537734579434000,5.31943408203125,-1.598302626633644,0.2902233015358448,-0.3933081937614828
1772537734589501000,5.3295009765625,-1.295882691347599,0.5548936441421508,-0.5553405111268163
1772537734599568000,5.33956787109375,-0.9188964676380157,0.770965667796135,-0.5512904320184141
1772537734609636000,5.349635986328125,-0.4494856427311897,0.9436620755821465,-0.4281900489851832
1772537734619703000,5.359703125,0.06373509780764579,1.117405362072587,-0.2623876384966075
1772537734629771000,5.36977099609375,0.5234527962177992,1.2606313452243805,-0.041921033145487306
1772537734639839000,5.3798388671875,0.8826841675281524,1.355549516803026,0.18196831319592893
1772537734649906000,5.389906005859375,1.1787462582200765,1.4154945746779442,0.3954210211969912
1772537734659974100,5.39997412109375,1.3528858505517243,1.4282166936069727,0.6132459529329091
1772537734670042000,5.4100419921875,1.3823773179739713,1.41632284219563,0.7383942084066569
1772537734680109000,5.420109130859375,1.2381804439634083,1.3742045329123735,0.7535308411315083
1772537734690177000,5.430177001953125,1.0057581740111112,1.3162158698022364,0.6966570073954761
1772537734700245000,5.440244873046875,0.7284183194458485,1.2182856569260359,0.7009853919886052
1772537734710312000,5.45031201171875,0.36284430111050603,1.0687029982239007,0.7316547440838068
1772537734720380200,5.460380126953125,-0.006528524985909462,0.9744389066398144,0.7815690410055219
1772537734730448100,5.4704482421875,-0.4387941528469324,0.901032894167304,0.8574788529925048
1772537734740515000,5.48051513671875,-0.9711147306531667,0.7884750210016965,0.8584281896065921
1772537734750583000,5.4905830078125,-1.5392781907349824,0.7454191386073827,0.7183309329345822
1772537734760651000,5.500651123046875,-2.1095184570908545,0.719045510944724,0.4574706501357257
1772537734770718200,5.51071826171875,-2.552723412117362,0.6834136410713195,0.0536999529402703
1772537734780786000,5.520785888671875,-2.7197598944455383,0.6792050834655762,-0.38276078852303325
1772537734790854000,5.53085400390625,-2.543015088051557,0.6935474970728158,-0.6577866670574992
1772537734800921000,5.540921142578125,-2.0828888088405133,0.6743377696901559,-0.6101314376415684
1772537734810988800,5.55098876953125,-1.4639578690737485,0.6158341427952051,-0.35714214394614097
1772537734821057000,5.56105712890625,-0.7741027967780828,0.5806161144196986,-0.0028068375816568732
1772537734831124000,5.5711240234375,-0.16555530385971068,0.5607441237360239,0.23264223284590987
1772537734841192000,5.58119189453125,0.3074234426617622,0.5882336036860942,0.26241817976534365
1772537734851260000,5.591260009765625,0.5702531258374453,0.6058358958721161,0.2188360815398395
1772537734861326800,5.601326904296875,0.6931161199182272,0.6296767901867628,0.192718985921517
1772537734871395000,5.61139501953125,0.8037123376220464,0.5962853927165269,0.21053075613975525
1772537734881463000,5.621463134765625,0.866073224467039,0.5013216284304857,0.26352058804929257
1772537734891530000,5.631530029296875,0.919052534982562,0.46027591681480406,0.3170366357900202
1772537734901598000,5.641597900390625,0.8467150285243987,0.44293665947914124,0.3757626732639968
1772537734911666000,5.651666015625,0.6917775647908448,0.3914455416947603,0.45940549065582453
1772537734921732900,5.66173291015625,0.5020031809538602,0.3628267654538154,0.5262405272401869
1772537734931801000,5.671801025390625,0.21877719095945358,0.36607553811669347,0.5748108622070401
1772537734941869000,5.681869140625,-0.10058043512403965,0.3510574172049761,0.6154093415118753
1772537734951936000,5.69193603515625,-0.4572971932649612,0.2647124281823635,0.6279701323993504
1772537734962004000,5.70200390625,-0.8141372855246066,0.19372808989882467,0.5149027022764087
1772537734972072200,5.712072265625,-1.0455828193992376,0.19219605802595613,0.32965091043040157
1772537734982139100,5.72213916015625,-1.1312298892855643,0.17647241919338702,0.15224683641009032
1772537734992207000,5.73220703125,-1.1153098510980606,0.13683131367862222,0.018915493676438928
1772537735002275000,5.742275146484375,-1.1740209832638502,0.11949380990862846,-0.14030724616087972
1772537735012342000,5.752342041015625,-1.257222998085618,0.12832593566179273,-0.3267844150833785
1772537735022410000,5.762409912109375,-1.3483049525022506,0.13346797472536562,-0.48639907684773204
1772537735032478200,5.772478271484375,-1.383584355676174,0.15410744265019893,-0.6398392877608537
1772537735042545200,5.782545166015625,-1.2728045980989933,0.20186755721271038,-0.7561693729415535
1772537735052613000,5.792613037109375,-1.038131334349513,0.2690092485934496,-0.7909069973889737
1772537735062680800,5.802680908203125,-0.7032879698425532,0.32415187462270256,-0.6814134802300482
1772537735072748000,5.812748046875,-0.3362766121804714,0.340011122533679,-0.48641266698166724
1772537735082816000,5.82281591796875,0.00535305146574974,0.3553916470170021,-0.3220464267760515
1772537735092884000,5.832884033203125,0.31983868759870526,0.3483171785861254,-0.21131101979725062
1772537735102951200,5.842951171875,0.6360591847002506,0.3789098852485418,-0.11093231779038905
1772537735113019000,5.853018798828125,0.8390648060321807,0.3736801679015159,-0.012493278609216212
1772537735123086800,5.8630869140625,0.9466688561826944,0.38138825806081295,0.06882474909685551
1772537735133153800,5.87315380859375,0.9724807583093643,0.3993751656502485,0.13782397797778248
1772537735143222000,5.883221923828125,0.8142156114578246,0.3602303192198276,0.12365436365418135
1772537735153290000,5.8932900390625,0.5852396825671196,0.37521278429627414,0.02162431424371898
1772537735163357000,5.90335693359375,0.4401888220757246,0.3974614409834146,-0.0463347579345107
1772537735173425000,5.9134248046875,0.36585108171105385,0.3579910158604383,-0.05524236007668078
1772537735183492900,5.923492919921875,0.26175182481110093,0.2745364875823259,-0.09665420159101486
1772537735193560000,5.93356005859375,0.23047464301586149,0.22931378254294393,-0.13804609629586337
1772537735203628000,5.9436279296875,0.2936649664223194,0.18098025200664997,-0.011928338202834128
1772537735213696000,5.953696044921875,0.4037777845233679,0.10187222850024699,0.1955319244503975
1772537735223763000,5.963762939453125,0.49667467940747734,0.0302946004986763,0.3599360124483704
1772537735233831000,5.973830810546875,0.5901672020971774,-0.03162555684149265,0.45716757553592324
1772537735243899100,5.983899169921875,0.6158347273170948,-0.12455986112654209,0.4990251880563795
1772537735253966000,5.993966064453125,0.6073889705330133,-0.18789982213675974,0.4639548245232552
1772537735264034000,6.004033935546875,0.5213830042064189,-0.26433774965107437,0.2937366434190422
1772537735274102000,6.01410205078125,0.29102292748093606,-0.36391046903729435,-0.032055764952301974
1772537735284169000,6.0241689453125,-0.12504384525120257,-0.4314391139090061,-0.49503290354982016
1772537735294237000,6.03423681640625,-0.4421738584131002,-0.36889118005931376,-0.8371992313560098
1772537735304305200,6.04430517578125,-0.5377426028549671,-0.2675099499464035,-0.9036420537523925
1772537735314372000,6.0543720703125,-0.48385202271342276,-0.23431378278732298,-0.655876960978657
1772537735324440000,6.064440185546875,-0.24806056858897207,-0.20699381418526172,-0.11391608284153043
1772537735334508000,6.074508056640625,0.10057634347081183,-0.26333295652270317,0.4860709408719092
1772537735344575000,6.084574951171875,0.42343291758596896,-0.3300187208294868,0.9107787737645209
1772537735354643200,6.094643310546875,0.5765700538992882,-0.4749140984982252,1.1050017345082015
1772537735364711200,6.104711181640625,0.5576818135559558,-0.6997720706760883,1.0147888910762966
1772537735374778000,6.114778076171875,0.4550625660806894,-0.8219763085871934,0.7963884975399822
1772537735384846000,6.12484619140625,0.21335633495450018,-0.8799597110003232,0.5123218189377338
1772537735394913800,6.134913818359375,-0.2435503976881504,-0.8554045309364795,0.12237462604194879
1772537735404981000,6.14498095703125,-0.7337912446558476,-0.6714671826899051,-0.25471622708588837
1772537735415049000,6.155049072265625,-1.1175444782823323,-0.4727788400352001,-0.5931764669157564
1772537735425117000,6.165116943359375,-1.2531436198174952,-0.2471224109560251,-0.8214663132384419
1772537735435184600,6.1751845703125,-1.1416560062319039,-0.04343640614449978,-0.8184770682945847
1772537735445252600,6.185252685546875,-0.9240122032165526,0.10625438910722732,-0.5050923791408538
1772537735455320600,6.195320556640625,-0.6192302149742841,0.22658172723054884,0.06212901431787759
1772537735465388500,6.205388427734375,-0.32339024260044097,0.22054595419764517,0.6718406921774148
1772537735475455500,6.21545556640625,-0.06872106952667235,0.2625374222308397,1.1319207941591738
1772537735485523700,6.225523681640625,0.07112286997139454,0.3591027764946222,1.3770717589117585
1772537735495591700,6.235591796875,-0.02468786653280258,0.42237785557508467,1.3871061000615357
1772537735505658600,6.24565869140625,-0.22543431076109408,0.5034668237656355,1.1754793653786182
1772537735515726600,6.2557265625,-0.366266676774621,0.5575567258715629,0.7494213599860667
1772537735525793500,6.26579345703125,-0.3591863631248474,0.6014280163019895,0.30853359586074947
1772537735535861800,6.27586181640625,-0.21349369759857653,0.627844898584485,0.06853303614128381
1772537735545929700,6.2859296875,0.06802022778093815,0.5809983917355537,0.03428060139492154
1772537735555997700,6.295997802734375,0.37971068023741245,0.4938075995385647,0.11300357110649346
1772537735566064600,6.306064697265625,0.6244716227591037,0.4823416181504726,0.1909279377862811
1772537735576132600,6.316132568359375,0.7374649647325277,0.4770733223587274,0.20523433023206888
1772537735586200800,6.326200927734375,0.6333055020779371,0.4431692991912365,0.15704199826475232
1772537735596267800,6.336267822265625,0.3888093479722738,0.441853540417552,0.1447241127550602
1772537735606335700,6.346335693359375,0.07282324414849281,0.4222136049240827,0.04403499309215694
1772537735616403500,6.356403564453125,-0.25729952157735825,0.42239714479744433,-0.1270402067001909
1772537735626470700,6.366470703125,-0.5994038169980048,0.43180853174328804,-0.24789408944826571
1772537735636538600,6.37653857421875,-0.926046339392662,0.4926391402810812,-0.3435858026826754
1772537735646606600,6.386606689453125,-1.1755220354765652,0.6246569161981343,-0.3855347102157771
1772537735656673800,6.396673828125,-1.3717536326289177,0.7193214052766561,-0.32346188306454565
1772537735666741500,6.406741455078125,-1.4327578441679476,0.7683733132153749,-0.18014940893938763
1772537735676809500,6.4168095703125,-1.3280161977112293,0.7437707868784665,0.06573001621821895
1772537735686876400,6.42687646484375,-1.131784600558877,0.6183206989139318,0.3301744228478521
1772537735696944600,6.436944580078125,-0.8430272799223661,0.39506373219192026,0.49289764508679507
1772537735707012600,6.4470126953125,-0.42080899882316586,0.19669687657654283,0.5516603613093495
1772537735717079600,6.45707958984375,-0.011532032361626624,0.06131693075001239,0.5966126519095152
1772537735727147500,6.4671474609375,0.2182534593462944,-0.04211830928325653,0.5359791733790189
1772537735737215500,6.477215576171875,0.41622225555479525,-0.06323065541684628,0.3457784904213622
1772537735747282700,6.48728271484375,0.629116818216443,-0.10008300699591637,0.2028784512883052
1772537735757350700,6.4973505859375,0.7815864305317402,-0.1433206756979227,0.1942669460158795
1772537735767418600,6.507418701171875,0.9209089765042066,-0.09852525615990161,0.2882131672898307
1772537735777485600,6.517485595703125,1.024084104296565,-0.029897710135579108,0.5283658488310873
1772537735787553500,6.527553466796875,1.0728536881625652,0.022133505874872207,0.8484660369101912
1772537735797621800,6.537621826171875,1.0731213991880417,0.036433249384164805,1.1892099306978285
1772537735807688700,6.547688720703125,1.0098930818587541,0.05165244582593441,1.3853613022208213
1772537735817756700,6.557756591796875,0.9044131842553615,0.09664017306566237,1.4846208640046417
1772537735827824600,6.56782470703125,0.7046528284549712,0.008787117567658424,1.4215936222054064
1772537735837891600,6.5778916015625,0.4952303258180618,-0.11042319922447204,1.0990206142719834
1772537735847959600,6.58795947265625,0.30610242319107056,-0.18794775293171403,0.7108180000212043
1772537735858027800,6.59802783203125,0.1748568006902933,-0.19016133732795715,0.4275925214834511
1772537735868094700,6.6080947265625,0.044590252354741094,-0.1618073495030403,0.29509098063744604
1772537735878162700,6.61816259765625,-0.01925415104627609,-0.09080372199714183,0.2529295628648251
1772537735888230700,6.628230712890625,-0.044644612890481945,0.004353519034385681,0.30125984199810774
1772537735898297600,6.638297607421875,-0.06843406927883625,0.14706921457648275,0.44497371826469895
1772537735908365800,6.64836572265625,-0.13351473647654055,0.27519758183956144,0.5995964534932747
1772537735918433800,6.658433837890625,-0.2642968331187963,0.2919131543189287,0.671035659404844
1772537735928500700,6.668500732421875,-0.4320061001420021,0.263661457824707,0.6335827115841209
1772537735938568700,6.678568603515625,-0.6162947460442781,0.23291677547097206,0.5888034394633025
1772537735948636400,6.688636474609375,-0.6889274360567331,0.15768705470263958,0.5562426841309294
1772537735958703600,6.69870361328125,-0.724726479190588,0.0375274743616581,0.5059109655147418
1772537735968771600,6.708771484375,-0.8234872976720332,-0.07099953585267066,0.35200032407827675
1772537735978839600,6.718839599609375,-0.8857727811932563,-0.15902502530813217,0.09296031550914048
1772537735988906500,6.728906494140625,-0.8240531148612499,-0.2519809569031,-0.09660396924111991
1772537735998974500,6.738974365234375,-0.6577472848951816,-0.3285007174819708,-0.1655815708121285
1772537736009042700,6.749042724609375,-0.3329945217698812,-0.38882103841006754,-0.0650589302899316
1772537736019109600,6.759109619140625,-0.02776128262877464,-0.4587251802414655,0.1184983691304922
1772537736029177600,6.769177490234375,0.21238544409573076,-0.48451370149254797,0.27865206967499107
1772537736039245600,6.77924560546875,0.47488545692563056,-0.5261433504760265,0.43597595362104474
1772537736049312500,6.7893125,0.7264040570139885,-0.5945815114080906,0.5971147196801379
1772537736059380500,6.79938037109375,0.8519424077838659,-0.7118465393513441,0.7553856021527201
1772537736069448700,6.80944873046875,0.7806091099321841,-0.7971516639322042,0.7165627542182803
1772537736079515600,6.819515625,0.39189737711548805,-0.7441676772415637,0.42684762140028176
1772537736089583600,6.82958349609375,-0.12610475248098374,-0.6510889960497618,0.11588606774024665
1772537736099651600,6.839651611328125,-0.6480313620448113,-0.63497840372622,-0.00124371645078063
1772537736109718500,6.849718505859375,-1.063312537357211,-0.6397311512112617,-0.0670572645002976
1772537736119786800,6.859786865234375,-1.3035662315875292,-0.5473147333204746,-0.13138342353627086
1772537736129854700,6.869854736328125,-1.5035364307463168,-0.3508540035873651,-0.14277133471947162
1772537736139921700,6.879921630859375,-1.6252561000108718,-0.156309921130538,-0.11049692204780875
1772537736149989600,6.88998974609375,-1.7310229978621006,-0.00913198548257351,0.15860365809090435
1772537736160057600,6.9000576171875,-1.8074603408545256,0.048616439130902286,0.6100183691885323
1772537736170124500,6.91012451171875,-1.8095605280041693,0.16312135471105574,0.8470265786916017
1772537736180192800,6.92019287109375,-1.4745628497183323,0.4973340200990438,0.5710641499593854
1772537736190260700,6.9302607421875,-1.1405547669917344,0.8631465233653783,0.1830113194428384
1772537736200327700,6.94032763671875,-0.9439081592977047,1.0174287380605935,-0.14379472295045853
1772537736210395600,6.950395751953125,-0.8301853340059518,1.0170236643910406,-0.16182956133484838
1772537736220463600,6.960463623046875,-0.5902361756801605,1.014070659804344,-0.16039960159696637
1772537736230530800,6.97053076171875,-0.11877660154998301,1.138757946702838,-0.21219496302492916
1772537736240598800,6.980598876953125,0.3968821797907352,1.206250351217389,-0.248080296202749
1772537736250666500,6.99066650390625,0.8628805659055709,1.1730413245767355,-0.32508404090628024
1772537736260733700,7.000733642578125,1.3282991063058376,1.20250005877316,-0.4728223138507455
1772537736270801700,7.0108017578125,1.6978928816765546,1.2804244254529475,-0.5728435076568276
1772537736280869600,7.02086962890625,1.908706546410918,1.3350170163840054,-0.41420404760017987
1772537736290936800,7.030936767578125,1.8827806625157593,1.3529717752695083,-0.06347703139334916
1772537736301004500,7.041004638671875,1.6052315491139888,1.2846657162845134,0.3616979806195944
1772537736311072500,7.051072509765625,1.2836661838531493,1.0450684401363133,0.5639631588477642
1772537736321139500,7.061139404296875,1.0755559328585862,0.8506769178926944,0.6832985633242875
1772537736331207400,7.07120751953125,0.9059598291754722,0.6539116522550582,0.7677787813883274
1772537736341275600,7.081275634765625,0.7917740625470876,0.4814858781039715,0.9070007165305316
1772537736351342600,7.091342529296875,0.6975795290678739,0.3525245671480894,1.1640633606120943
1772537736361410600,7.10141064453125,0.5755085621476173,0.1312906306862831,1.3107478136546908
1772537736371478500,7.111478515625,0.19360300221443175,-0.09168868813812732,1.1982204086925834
1772537736381545500,7.12154541015625,-0.3676771280944347,-0.19007482808828352,0.9250947377562523
1772537736391613700,7.13161376953125,-0.9627326867550611,-0.20147826563417912,0.6069247140221298
1772537736401681700,7.141681640625,-1.4807038366913794,-0.2764636562526226,0.3384484032616019
1772537736411748600,7.15174853515625,-1.7857997131884098,-0.3905839564293623,0.07070347551554441
1772537736421816600,7.161816650390625,-1.7676275121599434,-0.48064825823605056,-0.21000001026391982
1772537736431884500,7.171884521484375,-1.4391595279037952,-0.5193564668148756,-0.43041970773339266
1772537736441951500,7.181951416015625,-1.0634610059171914,-0.5425064562559128,-0.45134924464598297
1772537736452019700,7.192019775390625,-0.6593389380007982,-0.5519067372858524,-0.24516762362644076
1772537736462087700,7.202087646484375,-0.32202304590046404,-0.5500421124577521,-0.016307137808948755
1772537736472154600,7.212154541015625,-0.15239771612286568,-0.7459492999613284,-0.12255889656767248
1772537736482222600,7.22222265625,0.025377017840743064,-0.7767296381503344,-0.3082926267117262
1772537736492290600,7.23229052734375,0.2776478976011276,-0.5285585949242114,-0.33287849417477844
1772537736502357500,7.242357421875,0.5208920058190822,-0.41516251736879345,-0.26499840551689263
1772537736512425700,7.25242578125,0.7354127083778381,-0.3556523437798023,-0.07579451504424214
1772537736522493700,7.26249365234375,0.8575865511506795,-0.18074410516321657,0.23253055263236164
1772537736532561700,7.272561767578125,0.7744780598312616,-0.07857552406489848,0.4965918234296143
1772537736542628600,7.282628662109375,0.633566783362627,-0.042322891944646834,0.6288032222226262
1772537736552696800,7.29269677734375,0.6553869855046272,0.08180676107108592,0.6978966321930289
1772537736562764500,7.3027646484375,0.8385837445169687,0.14527531689703463,0.7543754752621055
1772537736572831700,7.312831787109375,0.913037804737687,0.01816051059067249,0.8277413018546999
1772537736582899500,7.3228994140625,0.8356067745327949,0.007288403442502022,0.8410223698407411
1772537736592967400,7.332967529296875,0.6913076091915369,0.11385142010748386,0.7482070157602428
1772537736603034600,7.34303466796875,0.4376525815963745,0.12319558703601359,0.5364385345190763
1772537736613102600,7.3531025390625,0.12642623952031135,0.07713993830382823,0.32049072176665067
1772537736623170600,7.363170654296875,-0.09615268180966377,0.07983633778095245,0.14199907170534132
1772537736633237500,7.373237548828125,-0.19609014285504817,0.05644903245270252,0.024645634826272723
1772537736643305500,7.383305419921875,-0.2965706247359514,0.009926350730657577,-0.02507131289243698
1772537736653373400,7.39337353515625,-0.3050081982135773,-0.02116436858177185,-0.021291940484195946
1772537736663440600,7.403440673828125,-0.25190087740421296,-0.0327560221761465,0.02879617863446474
1772537736673508600,7.413508544921875,-0.18254443258345127,-0.07333411628007888,0.09664061145707964
1772537736683576600,7.42357666015625,-0.16580898635983465,-0.11208674852252005,0.10144947304353118
1772537736693643500,7.4336435546875,-0.16736147649884223,-0.14509703772068022,0.059625032140314574
1772537736703711500,7.44371142578125,-0.2534989602506161,-0.207120070913434,-0.004297112672030925
1772537736713779700,7.45377978515625,-0.35758185053765773,-0.2457756725221872,-0.13676394753083587
1772537736723846700,7.4638466796875,-0.381733125975728,-0.18655308370292187,-0.2183116192743182
1772537736733914600,7.47391455078125,-0.33014380851387976,-0.16680559618175028,-0.1632661700092256
1772537736743982600,7.483982666015625,-0.25270693309009074,-0.153777187782526,-0.03886237622722983
1772537736754049500,7.494049560546875,-0.20798224070072172,-0.0805050308227539,0.04358297500833869
1772537736764117500,7.504117431640625,-0.20500468619465828,0.03134323276877403,0.06890504779145121
1772537736774185700,7.514185791015625,-0.12920505658388137,0.13705869269371032,0.10101444262713194
1772537736784252700,7.524252685546875,0.21304303122162818,0.2155775181353092,0.20327406300976872
1772537736794320600,7.534320556640625,0.5206085127025842,0.06371171693205833,0.3528643204964697
1772537736804388600,7.544388671875,0.6816589063584804,-0.2133779622644186,0.5050187293827534
1772537736814455600,7.55445556640625,0.7751204493880272,-0.33124212514460083,0.6168831403914838
1772537736824523800,7.564523681640625,0.5748486369341611,-0.37181145142018796,0.5619470697849989
1772537736834591700,7.574591796875,0.1586965240061283,-0.42152620718181133,0.4125638061124831
1772537736844658700,7.58465869140625,-0.3185913178861141,-0.5880073937147855,0.19548655093871056
1772537736854726700,7.5947265625,-0.7108125201284885,-0.739312638425827,-0.000592559065669775
1772537736864794400,7.60479443359375,-1.0308955378770828,-0.7716016276121139,-0.23041911343634128
1772537736874861600,7.614861572265625,-1.2218576701939106,-0.5886053596079349,-0.4694399048708379
1772537736884929500,7.624929443359375,-1.2924971405625343,-0.3102916915744543,-0.6305610987406224
1772537736894997500,7.63499755859375,-1.3091133443206548,-0.030471126109361646,-0.6736024411529302
1772537736905064700,7.645064697265625,-1.2618676090210676,0.23785773900449275,-0.5705643106784671
1772537736915132400,7.65513232421875,-1.1599112093687056,0.49533729332387444,-0.42048064365163446
1772537736925200600,7.66520068359375,-0.8922551289498806,0.7649690577298403,-0.2538987732231617
1772537736935267600,7.675267578125,-0.4390110104680061,0.9464800556123256,0.0307286810670048
1772537736945335600,7.68533544921875,0.036084289816021915,0.9920908831864594,0.3858139655485749
1772537736955403500,7.695403564453125,0.46438919735252854,0.9993944841980934,0.684730422758311
1772537736965470500,7.705470458984375,0.7763935380637645,1.0193448008149861,0.7974921479329466
1772537736975538400,7.715538330078125,0.8475485567390918,1.0085346529871224,0.7303086632370949
1772537736985606700,7.725606689453125,0.8022697375982999,0.9742425072848796,0.5995291238781064
1772537736995673600,7.735673583984375,0.7382546538054943,0.880374137020111,0.5859446159660816
1772537737005741600,7.745741455078125,0.6063906071454286,0.7644593546420335,0.6195023829791695
1772537737015809500,7.7558095703125,0.5619938315361738,0.7963198892831802,0.7363646022751927
1772537737025876500,7.76587646484375,0.5478104078829288,0.6465186193943023,0.8413914954140782
1772537737035944700,7.77594482421875,0.5071253462731838,0.5903273610949515,0.9915040962744504
1772537737046012700,7.7860126953125,0.3412842112094164,0.6476742191702127,1.0917952661283314
1772537737056079600,7.79607958984375,-0.1690928303360939,0.6672913583099842,0.9636447600986808
1772537737066147600,7.806147705078125,-0.6603881547927856,0.771750680693984,0.8074157221846282
1772537737076215600,7.816215576171875,-0.9753437465250492,0.7753548426657915,0.8674259542502463
1772537737086282500,7.826282470703125,-1.0604968954145908,0.6852221517980098,0.9964653719436377
1772537737096350700,7.836350830078125,-1.068432364588976,0.5709738413274288,1.1879589077234267
1772537737106418700,7.846418701171875,-1.0873176823228596,0.5109475349098443,1.3176830197453497
1772537737116485600,7.856485595703125,-1.166632042056322,0.4583674528449774,1.2899068318083882
1772537737126553600,7.8665537109375,-1.296742523047328,0.44644612890481944,1.214786051307246
1772537737136621600,7.87662158203125,-1.341276661300659,0.4972475108593702,1.2207683405872434
1772537737146688800,7.886688720703125,-1.1995628362774848,0.5158697937428951,1.2984659858390688
1772537737156756700,7.8967568359375,-0.9175468065947294,0.43874213039875026,1.3612854301065205
1772537737166824700,7.90682470703125,-0.6882184110045433,0.2405570610910654,1.4504101129755378
1772537737176891600,7.9168916015625,-0.4842974283933639,0.11088204890787601,1.408502816094458
1772537737186959600,7.926959716796875,-0.48499300944209095,0.06723112322986126,1.3683720273666082
1772537737197027600,7.937027587890625,-0.665906041431427,0.050506198400259016,1.3465934724092483
1772537737207094800,7.9470947265625,-0.7759136455923319,0.10958090318143367,1.2098740216072648
1772537737217162500,7.95716259765625,-0.7945961342304945,0.15012275692820548,0.9907315775319934
1772537737227230500,7.96723046875,-0.8136731751441955,0.1517728622227907,0.8487315559785813
1772537737237297400,7.97729736328125,-0.8250900566935538,0.212763629758358,0.7364869134806096
1772537737247365400,7.987365478515625,-0.8355453997343778,0.37006256192624565,0.6228933405917138
1772537737257433600,7.99743359375,-0.8469114278793335,0.5336328294485807,0.622370120435208
1772537737267500500,8.00750048828125,-0.7286871995151043,0.7311036130070686,0.6241385183472186
1772537737277568500,8.017568603515626,-0.5444219344884157,0.8864286147534847,0.5803264107581227
1772537737287636500,8.027636474609375,-0.41019232774078845,0.8656482770532369,0.5324187774837017
1772537737297703400,8.037703369140624,-0.38341888710558414,0.6981921080082655,0.5166434084638953
1772537737307771600,8.047771728515626,-0.2570949389159679,0.554507275173068,0.5851233627110719
1772537737317839600,8.057839599609375,-0.07521276963353156,0.44032618471980095,0.7419061620503664
1772537737327906600,8.067906494140624,0.16937398536503315,0.3428957380592823,0.8376660451501607
1772537737337974500,8.077974609375,0.2953811226904392,0.24172610487043855,0.873038241174072
1772537737348042500,8.08804248046875,0.4421913940697908,0.10892448509931564,0.8619678349748253
1772537737358109400,8.098109375,0.6469605179429054,-0.016828969725966453,0.8967923339881002
1772537737368177700,8.108177734375,0.8265461007207632,-0.12595569939911364,0.8885581741280854
1772537737378245600,8.11824560546875,0.9881997209668159,-0.22278584207892416,0.8296392444305122
1772537737388313600,8.128313720703124,1.1656792713761328,-0.2450578796416521,0.7682261598296463
1772537737398380500,8.138380615234375,1.2900082463562488,-0.35570611979365346,0.8563396198295057
1772537737408448800,8.14844873046875,1.4231833756148815,-0.5007482124567032,0.9541535128496587
1772537737418516700,8.158516845703126,1.5207517694413661,-0.5433341392517089,0.8729017553128302
1772537737428583700,8.168583740234375,1.6188333734869955,-0.4747399109750986,0.6836372206941247
1772537737438651600,8.178651611328124,1.581141063952446,-0.2790472430050373,0.4245512540914118
1772537737448719600,8.1887197265625,1.25052379270792,-0.2655348504811525,0.026993805387616157
1772537737458786600,8.19878662109375,0.5817968486368655,-0.29596798266768454,-0.3601613456368446
1772537737468854500,8.2088544921875,-0.2825543743431568,-0.3544453060775995,-0.7397918002448975
1772537737478922500,8.218922607421876,-1.0203303047209977,-0.28207331282794473,-0.9679011754341423
1772537737488989700,8.22898974609375,-1.3986802179992197,-0.12778116126060485,-0.9897140710525214
1772537737499057400,8.239057373046874,-1.4844769254893064,-0.07703297079801559,-0.7823807957798242
1772537737509125400,8.24912548828125,-1.4209808971345423,-0.12852525762617587,-0.37169703126028175
1772537737519192600,8.259192626953125,-1.1307347992449999,-0.066714990401268,0.006857903070747852
1772537737529260300,8.26926025390625,-0.7281728202521801,0.04598199897408485,0.2366983398362994
1772537737539328500,8.27932861328125,-0.4249830696374178,0.03896715177595615,0.3395541725464165
1772537737549395500,8.2893955078125,-0.17967384558320043,-0.015581600013375281,0.36981998534202576
1772537737559463400,8.29946337890625,0.05545008454322815,-0.04460077374875545,0.3446976729147136
1772537737569531400,8.309531494140625,0.23882570725381372,-0.08923486524522305,0.33764600083753465
1772537737579598300,8.319598388671874,0.3436532784283161,-0.12210428466796874,0.3470286000803113
1772537737589666600,8.32966650390625,0.32174189087152477,-0.1798895341604948,0.29676453987285495
1772537737599734500,8.339734619140625,0.2323743391573429,-0.21131518451571463,0.13426950036659835
1772537737609801500,8.349801513671874,0.15370996776521206,-0.25029694933891294,0.011389993542432784
1772537737619869400,8.359869384765625,0.08265548685491085,-0.31375206116139887,-0.06644231093972922
1772537737629937400,8.3699375,-0.006336217284202575,-0.3628115678846836,-0.05054273101836443
1772537737640004400,8.38000439453125,0.01532324133813381,-0.40302082867622374,-0.005255290179699659
1772537737650072600,8.390072509765625,0.06886018573641776,-0.43801615421175955,0.09643471362143755
1772537737660140500,8.400140625,0.042397710746526714,-0.5037678525388241,0.18844868819117544
1772537737670207500,8.41020751953125,-0.04210018910467624,-0.60096098331213,0.3064057900518179
1772537737680275500,8.420275390625,-0.14967092150747774,-0.625379385253787,0.40588995437175035
1772537737690343700,8.43034375,-0.2632049462288618,-0.6395639779508113,0.49629517857059835
1772537737700410600,8.44041064453125,-0.4916746791630983,-0.6472960335075855,0.539654281695187
1772537737710478600,8.450478515625,-0.9681669867634772,-0.5971662672042847,0.2902165795341134
1772537737720546600,8.460546630859374,-1.546058060133457,-0.46698915071785446,-0.18335311861783266
1772537737730613500,8.470613525390625,-2.023373374554515,-0.3200906165331602,-0.6006419804908335
1772537737740681500,8.480681396484375,-2.411867080706358,-0.1835655923247337,-0.9830557822071015
1772537737750749700,8.490749755859374,-2.537873633509874,-0.012353870138525963,-1.2037959438025951
1772537737760816600,8.500816650390625,-2.3753286173820496,0.16269932990670202,-1.2761679370522498
1772537737770884600,8.510884521484375,-1.9606120902150868,0.30899171489179134,-1.2918209948666393
1772537737780952600,8.52095263671875,-1.3485352541267872,0.43439854823648927,-1.2220878256879746
1772537737791019500,8.53101953125,-0.683994655829668,0.5318798483014107,-1.1051030759908258
1772537737801087700,8.541087646484375,-0.05785831472873688,0.6198743580967188,-0.9856849616669118
1772537737811155500,8.551155517578126,0.5479512776583433,0.7555985873162746,-0.8367940846212207
1772537737821222700,8.56122265625,1.0780495032399893,0.8655021465808153,-0.5893348429262638
1772537737831290400,8.571290283203124,1.471435657608509,0.9626081835925578,-0.35586152955107386
1772537737841358300,8.5813583984375,1.6784733109354972,1.0576461821585894,-0.2855279833264649
1772537737851425500,8.591425537109375,1.6837299162894486,1.1209405504614114,-0.30501148614920676
1772537737861493500,8.601493408203124,1.6464935338288544,1.1360445960909127,-0.25361381880193945
1772537737871561500,8.6115615234375,1.6311545103996992,1.0627227547705174,-0.17999767071008682
1772537737881628400,8.62162841796875,1.4677929171919821,0.9511953936964272,-0.06444317301176489
1772537737891696400,8.6316962890625,1.2413269252955912,0.8198924880504608,0.02284479594938457
1772537737901764400,8.641764404296875,1.0379361040383577,0.6923498117208481,-0.003449628997221589
1772537737911831600,8.65183154296875,0.8415642216324806,0.5397492665022612,-0.10203238749802113
1772537737921899500,8.6618994140625,0.6395774219542741,0.37416765915751454,-0.15163586490489542
1772537737931967500,8.671967529296875,0.40472880163788794,0.2171340999275446,-0.17574490863643585
1772537737942034400,8.682034423828124,0.1625040995955467,0.09035773179531097,-0.18752054049558936
1772537737952102400,8.692102294921876,-0.06912965032756328,0.012103694769740103,-0.22096096473932264
1772537737962170600,8.702170654296875,-0.3369119874745607,-0.0704097532659769,-0.262937454399094
1772537737972237600,8.712237548828124,-0.718946726745367,-0.1514718334496021,-0.40934981250204144
1772537737982305500,8.722305419921875,-1.2007459085822105,-0.15156711051762103,-0.7448123318206519
1772537737992373500,8.73237353515625,-1.5465502275645733,-0.07587737102210522,-0.9639617901585995
1772537738002440400,8.7424404296875,-1.7169184846639631,-0.03120996177792549,-1.053696494684741
1772537738012508400,8.75250830078125,-1.7081980025917292,0.0015285247415304183,-0.9972633173882961
1772537738022576600,8.76257666015625,-1.4651479556411504,0.02913257098197937,-0.8392940116781741
1772537738032643600,8.7726435546875,-1.1130565192133188,0.02684241421818733,-0.6215857651244848
1772537738042711600,8.782711669921875,-0.691184275072813,0.03669453066885471,-0.4082034920111298
1772537738052779500,8.792779541015625,-0.27403905945420265,0.05478197602331638,-0.23351379151605067
1772537738062846500,8.802846435546876,0.12788403711318969,0.053555064576864236,-0.05632840174771845
1772537738072914700,8.812914794921875,0.5155091437369584,0.04312544049918651,0.1008610056310892
1772537738082982700,8.822982666015625,0.7838391778945922,0.02501987496614456,0.20395554246790706
1772537738093049600,8.833049560546876,0.9319418271720409,0.017635025411844252,0.22692279575318097
1772537738103117600,8.84311767578125,1.0420020383030175,0.028338790255784986,0.2557317608039826
1772537738113185300,8.853185302734374,1.1085101079553366,0.00833762023448944,0.30447606409825384
1772537738123253500,8.86325341796875,1.0813169806033371,0.02173778455555439,0.4524466114286333
1772537738133320400,8.873320556640625,1.0060621253937483,0.05164893869459629,0.5415095541730522
1772537738143388400,8.883388427734374,0.8872218109577894,0.04495207140445709,0.5308178450930864
1772537738153456400,8.893456298828125,0.7250438745766877,-0.0014098667979240416,0.4045617014426738
1772537738163523300,8.9035234375,0.5782979006052017,-0.02972819878757,0.2623942874331027
1772537738173591600,8.913591552734376,0.5011491944730282,-0.07075462118089199,0.21790471897386013
1772537738183659500,8.923659423828125,0.5010924958497286,-0.12584171763062477,0.2729749373540282
1772537738193726500,8.9337265625,0.5388794979304075,-0.14487901105582712,0.422199138007313
1772537738203794400,8.94379443359375,0.5812240171849727,-0.17588789730370044,0.518095799229294
1772537738213862400,8.9538623046875,0.5785147582262754,-0.2167629285275936,0.5498376759268343
1772537738223929300,8.963929443359374,0.4829524435251951,-0.2513093412518501,0.4272416622191667
1772537738233997600,8.97399755859375,0.44416181735992427,-0.285112826654315,0.26286972292512656
1772537738244065500,8.9840654296875,0.49194297471046444,-0.3380629110753536,0.19387370891459285
1772537738254132500,8.994132568359374,0.5668681595742702,-0.3625356735527515,0.1741581509016454
1772537738264200400,9.004200439453125,0.5845224742084741,-0.37831191935539243,0.1818992665477097
1772537738274268400,9.014268310546875,0.532192567512393,-0.31342998960018154,0.24685484606102107
1772537738284335600,9.024335693359374,0.4788520224690437,-0.2267360410094261,0.2800895916648209
1772537738294403600,9.034403564453125,0.39776363880038257,-0.23600071296095845,0.3230490279473364
1772537738304471600,9.044471435546875,0.32210078731179237,-0.31902327956259247,0.3170459881402552
1772537738314538500,9.05453857421875,0.3959504518985748,-0.385479911288619,0.2984479629151523
1772537738324606500,9.0646064453125,0.4336433459550142,-0.4311953682810068,0.42241161171421404
1772537738334674700,9.0746748046875,0.4188257160514593,-0.4289052115172147,0.5405342794001102
1772537738344741600,9.08474169921875,0.39861061101853845,-0.44594285555779933,0.5473813688158988
1772537738354809600,9.0948095703125,0.33225627062320706,-0.42615971220135684,0.5943823355741799
1772537738364877600,9.104877685546874,0.3115945908665657,-0.3651590077936649,0.590835602878034
1772537738374944500,9.114944580078125,0.2654728911608457,-0.3140741327226162,0.5955695725973695
1772537738385012500,9.125012451171875,0.1187514671087265,-0.2863426607102155,0.5375437192820012
1772537738395080400,9.13508056640625,-0.10749357551336287,-0.26453181091845035,0.34366431127898395
1772537738405147600,9.145147705078125,-0.26829437832236286,-0.26055998467803,0.08275960481651126
1772537738415215600,9.155215576171875,-0.41727205686867236,-0.2804226230114698,-0.08561360600814223
1772537738425283300,9.165283447265624,-0.47748716385662554,-0.2479331428170204,-0.06655125120691954
1772537738435350500,9.1753505859375,-0.36581601039767264,-0.22499475030004976,0.11916582006327807
1772537738445418500,9.18541845703125,-0.15505553715527057,-0.27040800947546956,0.3513184792939573
1772537738455486500,9.195486572265626,0.06828618524074553,-0.35127953552305696,0.5056543969377875
1772537738465553400,9.205553466796875,0.21017887396216392,-0.43095805239379403,0.5095465090055018
1772537738475621400,9.215621337890624,0.1591886914372444,-0.469901238772273,0.3805240424469113
1772537738485689300,9.225689453125,-0.019265256962180136,-0.5123498029232025,0.09843246330991387
1772537738495756300,9.23575634765625,-0.27076164521873,-0.5542822342455387,-0.15943835534937678
1772537738505824500,9.245824462890624,-0.5623457137137651,-0.5616536397963762,-0.3587085164800286
1772537738515892500,9.255892578125,-0.8120581411629915,-0.5045253929078579,-0.539521887487173
1772537738525959400,9.26595947265625,-0.9348287807852029,-0.3384013492494821,-0.7769521948598325
1772537738536027400,9.27602734375,-0.9424503617048263,-0.1804372311711311,-0.9923618090823292
1772537738546095600,9.286095703125,-0.9303981048613786,-0.031738954088091846,-1.0758350420609115
1772537738556162600,9.29616259765625,-0.8526590316206216,0.17250994530320166,-1.0105857402980327
1772537738566230500,9.30623046875,-0.6322498555451631,0.36192484817802906,-0.7694766713473945
1772537738576298500,9.316298583984375,-0.38435879830420017,0.46943537482619285,-0.3394070191606879
1772537738586365400,9.326365478515624,-0.15632511869966983,0.5741986485928297,0.10779445815607905
1772537738596433400,9.336433349609376,0.10822247430980204,0.67951488006711,0.4524261531624943
1772537738606501600,9.346501708984375,0.28522914651036263,0.7164408814042806,0.6508159512620418
1772537738616568600,9.356568603515624,0.3549333818554878,0.761978059220314,0.7070748679701239
1772537738626636500,9.366636474609376,0.368458049339056,0.7807190000474452,0.6826978940173983
1772537738636704500,9.37670458984375,0.3054933513820171,0.7193143910139799,0.6166160869531333
1772537738646771500,9.386771484375,0.13634206885695457,0.6176408999562263,0.5460298080764711
1772537738656839700,9.396839599609375,-0.058923898133635515,0.5430471390038728,0.4567302070319652
1772537738666907600,9.40690771484375,-0.2420727263510227,0.4913870943933725,0.327270810360834
1772537738676974600,9.416974609375,-0.30788872208595275,0.4583621921479702,0.24893954338058827
1772537738687042600,9.42704248046875,-0.2533212655961513,0.4347621208518743,0.3048267772320658
1772537738697110500,9.437110595703125,-0.14454641810059546,0.3996943146020174,0.461123254359141
1772537738707178500,9.447178466796874,-0.10879238315224647,0.3393313235759735,0.598340937006846
1772537738717245700,9.45724560546875,-0.13475158479511737,0.3461369119375944,0.6211348064865917
1772537738727313400,9.4673134765625,-0.20833529192209244,0.3970090210407972,0.5635837310761213
1772537738737381400,9.47738134765625,-0.3118815911144018,0.4391203160613775,0.501098194938153
1772537738747448300,9.4874482421875,-0.43612522589862346,0.45454526420831676,0.5047182851314544
1772537738757516500,9.4975166015625,-0.5167132588297129,0.46533962994515893,0.5038845377210527
1772537738767584500,9.50758447265625,-0.581102436631918,0.46317514538764953,0.5181143577992916
1772537738777651500,9.5176513671875,-0.6485866578400135,0.49573418368697164,0.5409111498884857
1772537738787719400,9.527719482421874,-0.6417781468689441,0.5246136566907167,0.5583133894577622
1772537738797787400,9.537787353515625,-0.6761170543223619,0.5304582910656929,0.5413543636113405
1772537738807854300,9.547854248046875,-0.7306418407142162,0.5703560016900301,0.5551362207263708
1772537738817922600,9.557922607421874,-0.7289969961166382,0.5951520047724247,0.6119290981806814
1772537738827990500,9.567990478515625,-0.6882254252672195,0.4788432546406984,0.6724653999470174
1772537738838057500,9.578057373046875,-0.6842752263367176,0.34568215390741824,0.6758598646908998
1772537738848125400,9.58812548828125,-0.6567167728036641,0.3649900809675455,0.6274535611793398
1772537738858193400,9.598193359375,-0.5679466024607419,0.39678690272271633,0.5824091353163123
1772537738868260600,9.608260498046874,-0.5199433267921209,0.36881226960420604,0.4984658006079495
1772537738878328600,9.61832861328125,-0.4935930800050497,0.35495734725296496,0.4176660246223211
1772537738888396500,9.628396484375,-0.4568056103557348,0.3484340829640627,0.3299240282833576
1772537738898463500,9.63846337890625,-0.41796413078606126,0.38019466436207294,0.24940774541422722
1772537738908531500,9.648531494140625,-0.4191735065758228,0.4886509474277496,0.2705595467753708
1772537738918599700,9.658599609375,-0.36086101833879947,0.5691068784117699,0.39986733308136463
1772537738928666600,9.66866650390625,-0.29690029508173466,0.5536930361807346,0.6423349039688706
1772537738938734600,9.678734619140625,-0.2284218021392822,0.5778729531913995,0.8681206585161387
1772537738948802600,9.688802490234375,-0.11336685146093368,0.6390414153814316,1.0032207644879818
1772537738958869500,9.698869384765626,-0.011165537136793136,0.6785194392889737,1.105546728105098
1772537738968937500,9.7089375,0.06526303802728653,0.6240542741298675,1.1508286159858108
1772537738979005700,9.719005615234375,0.07161971357762813,0.5600152249395847,1.1235498561769723
1772537738989072600,9.72907275390625,0.02142740343213081,0.4931839146822691,1.0037531177990138
1772537738999140600,9.739140625,-0.082718615218997,0.4332458710700273,0.7977307789944111
1772537739009208300,9.749208251953124,-0.17238836475014685,0.36158056478500367,0.5892623622119426
1772537739019275500,9.759275634765626,-0.21125848589241503,0.2418067688912153,0.5178543916888535
1772537739029343500,9.769343505859375,-0.3127040134131908,0.13495441389083862,0.5220880837358534
1772537739039411500,9.779411376953124,-0.403949049437046,0.12560089461207388,0.5079230725221335
1772537739049478700,9.789478759765625,-0.4733277060896158,0.15915478916764259,0.5062601077459752
1772537739059546400,9.79954638671875,-0.5755857190370559,0.16372750391066074,0.5021978267431259
1772537739069614300,9.8096142578125,-0.7062275304257869,0.12178045954108238,0.4705573645934462
1772537739079681300,9.819681396484375,-0.8599491886287927,0.07160451600849628,0.35063480787873264
1772537739089749500,9.82974951171875,-0.996371921506524,0.056874564388394354,0.1939098762065172
1772537739099817500,9.8398173828125,-1.0757283668160438,0.05235094948410988,0.03236044698730111
1772537739109884400,9.849884521484375,-1.0626800846725701,0.056606268841028214,-0.09074044750258325
1772537739119952400,9.859952392578125,-1.0057669418394566,0.05923778638839721,-0.1620947881422937
1772537739130020600,9.8700205078125,-0.8864975883364677,0.047564884251356125,-0.21459946688339113
1772537739140087600,9.880087646484375,-0.7385574361443519,0.005883212819695473,-0.18457842262908816
1772537739150155500,9.890155517578124,-0.6052946286022662,0.00113806411921978,-0.05839300612732768
1772537739160223500,9.900223388671876,-0.45921267149746414,0.01944061352908611,0.1168625846222043
1772537739170290400,9.91029052734375,-0.375539532032609,0.02639233236312866,0.19927447197958825
1772537739180358400,9.9203583984375,-0.37482173915207384,0.05261749146580696,0.14622121944501995
1772537739190426600,9.930426513671875,-0.4085959984600544,0.10373100810945034,0.03171191995069384
1772537739200494600,9.94049462890625,-0.42372459400892254,0.17208908954262733,-0.08084989873766898
1772537739210561500,9.9505615234375,-0.39684593943357466,0.23509938020706175,-0.14263503152132034
1772537739220629500,9.96062939453125,-0.3329237946212292,0.3019914807409048,-0.113718733638525
1772537739230696400,9.970696533203125,-0.26621698752641676,0.30181612417399883,-0.03390015070997179
1772537739240764700,9.9807646484375,-0.16353811881840227,0.3597954349339008,-0.0055332303382456295
1772537739250832600,9.99083251953125,-0.013519991308450698,0.4477069426208734,0.03982091906107962
1772537739260900600,10.000900634765625,0.14312778347432611,0.44842064384818076,0.11260426959060132
1772537739270967600,10.010967529296876,0.3201718650758266,0.410111079198122,0.17621464504003523
1772537739281035500,10.021035400390625,0.495500374931097,0.3917290348112583,0.24808416866026817
1772537739291103500,10.031103515625,0.627376696550846,0.35974224344193934,0.33440475389398633
1772537739301170700,10.041170654296875,0.6928840647280216,0.2832698291361332,0.37988800956569607
1772537739311238400,10.05123828125,0.7116185758143663,0.18330723364949225,0.36090471135005353
1772537739321306400,10.061306396484374,0.5789414592057466,0.09553191956281662,0.30123569393754
1772537739331373600,10.07137353515625,0.4030769427776336,0.05669160903692245,0.20242760224826634
1772537739341441300,10.081441162109375,0.28421207842230795,0.019118541967868805,0.18150420281551777
1772537739351509500,10.091509521484374,0.2168272259354591,-0.05901800615787506,0.22177220805697143
1772537739361576400,10.101576416015625,0.19216975454092025,-0.19436463423669337,0.22473690308146177
1772537739371644400,10.11164453125,0.1438356394827366,-0.32325171091258526,0.20002996652200816
1772537739381712400,10.12171240234375,0.1198141279041767,-0.41460663705170153,0.21956359209679066
1772537739391779300,10.131779296875,0.10967910285890102,-0.5308189410716295,0.214415050227195
1772537739401847600,10.14184765625,0.027680034086108207,-0.6191454593002795,0.1959958156351
1772537739411915500,10.15191552734375,-0.09289923297166824,-0.642360330671072,0.11464710052981972
1772537739421982500,10.161982421875,-0.2322872453957796,-0.6739771196842194,-0.0479002536855638
1772537739432050400,10.172050537109374,-0.4317968413054943,-0.7181564531505108,-0.19069895133599638
1772537739442118100,10.1821181640625,-0.6654846011489629,-0.674153060773015,-0.30524478344842787
1772537739452185000,10.19218505859375,-0.8868243360728025,-0.5540285517454147,-0.3718400929927826
1772537739462253300,10.20225341796875,-1.028388523492217,-0.4233557606965303,-0.3116729167997837
1772537739472321300,10.2123212890625,-1.0924041918069123,-0.2851864764124155,-0.17628559138439595
1772537739482388200,10.22238818359375,-1.0528080944776534,-0.12533669071793554,-0.010704349365830422
1772537739492456200,10.232456298828126,-0.9753203656494617,-0.029853870993852612,0.16157412526905535
1772537739502524200,10.242524169921875,-0.885029269349575,0.026772856113314626,0.327176190879941
1772537739512591000,10.252591064453124,-0.7303846510827541,0.0885480520248413,0.4678878531232476
1772537739522659300,10.262659423828126,-0.6162164201110601,0.11689736367464065,0.5761296897206455
1772537739532727300,10.272727294921875,-0.5339262594372034,0.14856851322352885,0.514166716152057
1772537739542794200,10.282794189453124,-0.47209611846804617,0.1926297732681036,0.25260040397569533
1772537739552862200,10.2928623046875,-0.44699499495923517,0.1972346367150545,-0.0472008732445538
1772537739562930200,10.30293017578125,-0.4795990414440632,0.181196525105834,-0.31019407641887664
1772537739572997400,10.312997314453124,-0.45599838562607764,0.22159634003341197,-0.4976045076034963
1772537739583065300,10.3230654296875,-0.29114041638076305,0.2725251477599144,-0.5757746657378972
1772537739593133300,10.33313330078125,-0.04175882832109928,0.3202642195343971,-0.5636222364556044
1772537739603200300,10.3432001953125,0.2613748081922531,0.45269349886178967,-0.5081093158092349
1772537739613268200,10.353268310546875,0.4925286656439304,0.5135439811438322,-0.48284810636788605
1772537739623336200,10.363336181640625,0.6091770229935646,0.5166518840312957,-0.47162543221637604
1772537739633403400,10.3734033203125,0.6630155806869268,0.5820592989653348,-0.40095300942622125
1772537739643471400,10.383471435546875,0.684472210213542,0.6385200218558311,-0.2697544409375638
1772537739653539000,10.3935390625,0.6875619929224253,0.6583078413873911,-0.18322203958407043
1772537739663606300,10.403606201171876,0.6807260094225406,0.6992723044604062,-0.14877916029952465
1772537739673674000,10.413674072265625,0.6420137091904878,0.7209089667290449,-0.10276333212107419
1772537739683742200,10.4237421875,0.5719651904523372,0.701749508228898,-0.022649346442520618
1772537739693810200,10.43381005859375,0.42710137696564193,0.6895435221284627,0.03326550606824458
1772537739703877000,10.443877197265625,0.285612592869997,0.7114636775135994,0.07636785795278847
1772537739713945000,10.453945068359374,0.1362099669098854,0.6718219874769449,0.05736600116714835
1772537739724013300,10.464013427734375,-0.03812134860157966,0.6086480306833982,0.007913476538285613
1772537739734080300,10.474080322265625,-0.2651286077678203,0.5596124893575907,-0.05958762273937463
1772537739744148200,10.484148193359376,-0.4327987118244171,0.5211345824033021,-0.10149886514320969
1772537739754216200,10.49421630859375,-0.5570353323459625,0.39630642572939395,-0.12615268327593804
1772537739764283100,10.504283203125,-0.7049310608744621,0.3662830433875322,-0.18115348968170583
1772537739774351000,10.51435107421875,-0.8060042479515075,0.4221107290714979,-0.26831973195932807
1772537739784419300,10.52441943359375,-0.8399100246846676,0.4648609065175056,-0.32810441164076326
1772537739794486300,10.534486328125,-0.8080296162992715,0.5216565604507922,-0.3543430878121406
1772537739804554200,10.54455419921875,-0.6270511178582906,0.5495318248480558,-0.3010255583181977
1772537739814622200,10.554622314453125,-0.30593115827739237,0.5147171165764332,-0.1596381887704134
1772537739824689200,10.564689208984374,0.0019447043269872665,0.43514498268961904,-0.057477571782842275
1772537739834757400,10.57475732421875,0.29237668017745017,0.4107213200509548,-0.05655505011044442
1772537739844825300,10.584825439453125,0.5548135646432638,0.3827840963333845,-0.002598199799656868
1772537739854892300,10.594892333984374,0.7309341016590595,0.29222528900802136,0.07934051708802581
1772537739864960300,10.604960205078125,0.8582827167212963,0.22665420794486998,0.19580643054284155
1772537739875028200,10.6150283203125,0.9606891982287168,0.18305822732448576,0.3011070260565728
1772537739885095200,10.62509521484375,1.0258639734506607,0.10980009889006614,0.3346943114250898
1772537739895163400,10.635163330078125,1.0243436320155859,0.07210837387740611,0.3570504470746964
1772537739905231400,10.6452314453125,1.0088333436727523,0.04569149159491062,0.36230142640545965
1772537739915298300,10.65529833984375,0.931143370270729,-0.044785482665896416,0.38772403695359825
1772537739925366300,10.6653662109375,0.8313596384823322,-0.10952478908002376,0.39790465470626946
1772537739935434000,10.67543408203125,0.6994301253706217,-0.15860826120078564,0.34123554976209997
1772537739945501400,10.68550146484375,0.5535357997924089,-0.2531359721571207,0.19516257968135178
1772537739955569200,10.695569091796875,0.2901414684712887,-0.3048831105291843,0.04070866168104112
1772537739965637000,10.70563720703125,-0.0769932233095169,-0.2998065379172563,-0.1572125690586865
1772537739975704300,10.715704345703125,-0.32584815714657306,-0.27387422428131103,-0.30368630196005103
1772537739985772000,10.72577197265625,-0.4195692278951406,-0.2782154683560133,-0.2857259901165962
1772537739995840300,10.73584033203125,-0.3746101422280073,-0.3101087362229824,-0.13235380293838678
1772537740005907200,10.7459072265625,-0.22956571147739885,-0.32088848891258237,0.05649915520474314
1772537740015975200,10.75597509765625,-0.048943771389126776,-0.3047054158747196,0.21549933833256363
1772537740026043100,10.766043212890626,0.17469021195173262,-0.32573475989997386,0.3693650081161409
1772537740036110000,10.776110107421875,0.3643617199361324,-0.360574602612853,0.5189014895889907
1772537740046178000,10.786177978515624,0.5018254862993955,-0.3874240310937166,0.6205330412011594
1772537740056246300,10.796246337890626,0.5232055434584617,-0.4323310943126678,0.650912689634785
1772537740066313200,10.806313232421875,0.44674189698100086,-0.48272038833498954,0.5938512974373996
1772537740076381200,10.816381103515624,0.322334596067667,-0.5042991829365492,0.4454182471618056
1772537740086449200,10.82644921875,0.20731647026836872,-0.5316822799026966,0.2802835798669606
1772537740096516000,10.83651611328125,0.060683309021592136,-0.5489128161668777,0.07578399365022778
1772537740106584300,10.846584228515624,-0.03052197951376438,-0.5411906974822283,-0.08957944089919329
1772537740116652300,10.85665234375,-0.05175649072229862,-0.5245213022321462,-0.09787176068723201
1772537740126719200,10.86671923828125,0.020489245799183844,-0.49131987437605856,0.03214139740914106
1772537740136787200,10.876787109375,0.16928221542835234,-0.44895665042102334,0.19213482935801146
1772537740146855200,10.886855224609375,0.2988707183718681,-0.4279354897022247,0.3514931052085012
1772537740156923400,10.89692333984375,0.38622868382930753,-0.4099398142844438,0.4495834040172398
1772537740166990300,10.906990234375,0.49988838075697417,-0.41721185111403464,0.5029751677911728
1772537740177058300,10.917058349609375,0.5646113205581903,-0.4346779496997595,0.5601678582180291
1772537740187126300,10.927126220703125,0.5527127929717301,-0.44809038898050785,0.5811510980792344
1772537740197193200,10.937193115234376,0.43838674108982084,-0.4815402386397123,0.48120413855314254
1772537740207261400,10.947261474609375,0.20387714346945285,-0.5134375981599092,0.2855618855960667
1772537740217329200,10.9573291015625,-0.08140577905476093,-0.4966986448049545,0.013453355813026428
1772537740227396400,10.967396240234375,-0.2630032861769199,-0.4507254136592149,-0.17829795412011443
1772537740237464000,10.977464111328125,-0.34799101537168026,-0.3879769888013601,-0.22632395307719705
1772537740247532000,10.987531982421874,-0.3258896582007408,-0.30575112553536893,-0.17488427321910857
1772537740257599200,10.99759912109375,-0.20646832900643347,-0.26037118410766125,-0.09509652382023633
1772537740267667200,11.007667236328125,-0.051149172478914255,-0.2896300118178129,0.04794365443587303
1772537740277735200,11.017735107421874,0.08174304818511009,-0.3644628422230482,0.20631964125074445
1772537740287802000,11.027802001953125,0.16915654322206974,-0.3823965583205223,0.267189193559438
1772537740297870000,11.0378701171875,0.16275193687677383,-0.30118308696746826,0.31707974427938457
1772537740307938000,11.04793798828125,0.11856909627914428,-0.32206337791085243,0.3065236442778259
1772537740318005200,11.058005126953125,-0.004698971471190453,-0.37990181889533997,0.26342852585166693
1772537740328073200,11.0680732421875,-0.1615676955282688,-0.42684360281229017,0.09531528113745152
1772537740338141200,11.07814111328125,-0.4173392768859863,-0.44880525925159453,-0.1248732379246503
1772537740348208000,11.0882080078125,-0.8948001372575759,-0.38613223771750926,-0.351414706210047
1772537740358276000,11.098276123046874,-1.3769827654540538,-0.15108721804618835,-0.6708188748490065
1772537740368344300,11.10834423828125,-1.7539491154193878,0.011654197436571121,-0.713230394925177
1772537740378411300,11.118411376953125,-1.924846364828944,0.13403905261158944,-0.6776118959899992
1772537740388479200,11.128479248046874,-1.853526510980725,0.3873661634266376,-0.7724654778998344
1772537740398547200,11.138547119140625,-1.6225497636616228,0.5237707761257887,-0.8674857946787029
1772537740408614100,11.1486142578125,-1.1898410682082174,0.6212421393185854,-0.8267395774662494
1772537740418682000,11.15868212890625,-0.6738479403465986,0.7658446715205908,-0.7053176490392535
1772537740428750300,11.168750244140625,-0.23255144928991794,0.8797206415474415,-0.5343365938037633
1772537740438817000,11.178817138671874,0.1720902585864067,1.0931406893879174,-0.3351340910818428
1772537740448885200,11.18888525390625,0.482333434844017,1.2105664608508349,-0.16258322924636304
