time,seconds_elapsed,z,y,x
1772537729334179300,0.074179443359375,-0.31923630833625793,-0.5691390633583069,-0.11427810043096542
1772537729344247300,0.084247314453125,-0.3542230427265167,-0.5934299826622009,-0.05292153358459473
1772537729354315300,0.094315185546875,-0.3695918023586273,-0.6346181035041809,0.04066669940948486
1772537729364382200,0.10438232421875,-0.38860994577407837,-0.6699388027191162,0.1454879194498062
1772537729374450400,0.114450439453125,-0.4053507149219513,-0.6895979046821594,0.26007288694381714
1772537729384518400,0.124518310546875,-0.41814374923706055,-0.6599350571632385,0.376383513212204
1772537729394585300,0.13458544921875,-0.4271257221698761,-0.6273683309555054,0.47747910022735596
1772537729404653300,0.1446533203125,-0.4494864344596863,-0.576740562915802,0.4848536550998688
1772537729414721500,0.154721435546875,-0.44925281405448914,-0.5160883665084839,0.43953579664230347
1772537729424788200,0.164788330078125,-0.4309651553630829,-0.45132213830947876,0.3783099949359894
1772537729434856200,0.174856201171875,-0.405283659696579,-0.40563085675239563,0.33155667781829834
1772537729444924200,0.184924072265625,-0.3979026973247528,-0.3915046453475952,0.32845062017440796
1772537729454991000,0.1949912109375,-0.4124372899532318,-0.4366741478443146,0.3819408118724823
1772537729465059300,0.205059326171875,-0.41315048933029175,-0.5355584025382996,0.4833641052246094
1772537729475127300,0.215127197265625,-0.38172170519828796,-0.6285815238952637,0.573240339756012
1772537729485194200,0.2251943359375,-0.3281032145023346,-0.6850208044052124,0.6571837067604065
1772537729495262200,0.23526220703125,-0.2868488132953644,-0.6765827536582947,0.7501094937324524
1772537729505330400,0.245330322265625,-0.2793525755405426,-0.6449939012527466,0.8201391696929932
1772537729515397400,0.2553974609375,-0.27916598320007324,-0.5741963386535645,0.890232264995575
1772537729525465300,0.26546533203125,-0.2678110897541046,-0.4777526259422302,0.9880176782608032
1772537729535533300,0.275533203125,-0.2472018450498581,-0.4100852608680725,1.0600680112838745
1772537729545600300,0.285600341796875,-0.21650731563568115,-0.34532812237739563,1.1003203392028809
1772537729555668200,0.295668212890625,-0.18487316370010376,-0.3038133978843689,1.0880804061889648
1772537729565736200,0.305736083984375,-0.16221526265144348,-0.3113482892513275,1.0335197448730469
1772537729575803400,0.315803466796875,-0.14355717599391937,-0.32530835270881653,0.9668590426445007
1772537729585871000,0.32587109375,-0.12613104283809662,-0.3291795253753662,0.8806580901145935
1772537729595939000,0.33593896484375,-0.1223830059170723,-0.2974400818347931,0.7826828360557556
1772537729606006300,0.34600634765625,-0.123348668217659,-0.2429150491952896,0.6769526600837708
1772537729616074200,0.35607421875,-0.13802209496498108,-0.1922118067741394,0.585063099861145
1772537729626142200,0.36614208984375,-0.169990673661232,-0.14879722893238068,0.5114272236824036
1772537729636209200,0.376209228515625,-0.1889011263847351,-0.14068745076656342,0.4457775056362152
1772537729646277000,0.386277099609375,-0.16763977706432343,-0.1716405749320984,0.4270552098751068
1772537729656345000,0.396344970703125,-0.1297343224287033,-0.2794407904148102,0.45246604084968567
1772537729666412000,0.406412109375,-0.099870964884758,-0.43649807572364807,0.49061769247055054
1772537729676480300,0.416480224609375,-0.11061786860227585,-0.5646101832389832,0.5092235803604126
1772537729686548200,0.42654833984375,-0.1438322812318802,-0.6349506378173828,0.4828875660896301
1772537729696615200,0.436615234375,-0.1864977478981018,-0.5867424011230469,0.43952226638793945
1772537729706683100,0.44668310546875,-0.21027976274490356,-0.4669739603996277,0.3546161651611328
1772537729716751000,0.456751220703125,-0.17578518390655518,-0.357339084148407,0.22420606017112732
1772537729726818300,0.466818359375,-0.12834256887435913,-0.2764256000518799,0.0757225826382637
1772537729736886300,0.47688623046875,-0.10395849496126175,-0.20933279395103455,-0.06081573665142059
1772537729746954200,0.486954345703125,-0.08342419564723969,-0.21245668828487396,-0.1572866141796112
1772537729757021200,0.497021240234375,-0.043769288808107376,-0.28590503334999084,-0.17400173842906952
1772537729767089200,0.507089111328125,-0.013908328488469124,-0.4534152150154114,-0.13449054956436157
1772537729777157400,0.517157470703125,0.011441093869507313,-0.7028495073318481,-0.06980185955762863
1772537729787224300,0.527224365234375,0.027293292805552483,-0.9492102861404419,-0.05610308796167374
1772537729797292300,0.537292236328125,-0.0024848340544849634,-1.1215832233428955,-0.1224701851606369
1772537729807360300,0.5473603515625,-0.006747223436832428,-1.1418695449829102,-0.2486230581998825
1772537729817427200,0.55742724609375,0.014140814542770386,-1.034620761871338,-0.40979328751564026
1772537729827495200,0.5674951171875,0.05923585221171379,-0.8919017314910889,-0.574160635471344
1772537729837563400,0.5775634765625,0.07022905349731445,-0.7473443150520325,-0.7046180367469788
1772537729847630300,0.58763037109375,-0.02848421037197113,-0.6587367057800293,-0.8146374821662903
1772537729857698300,0.5976982421875,-0.13844072818756104,-0.5834429860115051,-0.8759175539016724
1772537729867766000,0.60776611328125,-0.21444281935691833,-0.4392610490322113,-0.8862226605415344
1772537729877833200,0.617833251953125,-0.23589476943016052,-0.3458752930164337,-0.8684750199317932
1772537729887901200,0.627901123046875,-0.22727757692337036,-0.30682963132858276,-0.8196105360984802
1772537729897969200,0.63796923828125,-0.22094637155532837,-0.3451883792877197,-0.7426813840866089
1772537729908036400,0.648036376953125,-0.23468855023384094,-0.44910547137260437,-0.6597926616668701
1772537729918104000,0.65810400390625,-0.27804359793663025,-0.543211042881012,-0.563152015209198
1772537729928172000,0.668172119140625,-0.31823068857192993,-0.5836545825004578,-0.4631524682044983
1772537729938239000,0.678239013671875,-0.35016950964927673,-0.5554613471031189,-0.3862908184528351
1772537729948307200,0.68830712890625,-0.36889657378196716,-0.45688074827194214,-0.3429414629936218
1772537729958375200,0.698375244140625,-0.37378057837486267,-0.32906532287597656,-0.3499414920806885
1772537729968442000,0.708442138671875,-0.369234561920166,-0.16948096454143524,-0.391666054725647
1772537729978510000,0.718510009765625,-0.3643419146537781,0.00715012289583683,-0.4293951392173767
1772537729988578300,0.728578369140625,-0.36797258257865906,0.14134202897548676,-0.45000723004341125
1772537729998645200,0.738645263671875,-0.3803313970565796,0.18949198722839355,-0.4417525827884674
1772537730008713200,0.748713134765625,-0.4376913607120514,0.12078537046909332,-0.36719632148742676
1772537730018781200,0.75878125,-0.4900973439216614,0.016385842114686966,-0.24276499450206757
1772537730028848000,0.76884814453125,-0.4921730160713196,-0.09678678214550018,-0.1115635558962822
1772537730038916000,0.778916015625,-0.444949746131897,-0.18773294985294342,-0.025920052081346512
1772537730048984300,0.788984375,-0.35524624586105347,-0.2255181521177292,0.02127329260110855
1772537730059051300,0.79905126953125,-0.24907496571540833,-0.18659773468971252,0.03813962638378143
1772537730069119200,0.809119140625,-0.17374692857265472,-0.11551503837108612,0.03410440683364868
1772537730079187200,0.819187255859375,-0.14499810338020325,-0.044787872582674026,0.035150229930877686
1772537730089254100,0.829254150390625,-0.1427312195301056,0.01952906884253025,0.04575520381331444
1772537730099322400,0.839322265625,-0.16005028784275055,0.10684388130903244,0.10536255687475204
1772537730109390300,0.849390380859375,-0.18610985577106476,0.14034752547740936,0.1995127648115158
1772537730119457300,0.859457275390625,-0.21428845822811127,0.103154756128788,0.3081584870815277
1772537730129525200,0.869525146484375,-0.2432924211025238,0.029405968263745308,0.41396084427833557
1772537730139593200,0.87959326171875,-0.2710326015949249,-0.09175258129835129,0.47520771622657776
1772537730149660200,0.88966015625,-0.2733871042728424,-0.19047649204730988,0.4643678367137909
1772537730159728400,0.899728271484375,-0.24646741151809692,-0.24094505608081818,0.3966960310935974
1772537730169796400,0.90979638671875,-0.22509580850601196,-0.2544020116329193,0.3107725977897644
1772537730179863300,0.91986328125,-0.2396634966135025,-0.23962414264678955,0.24619996547698975
1772537730189931300,0.92993115234375,-0.26240527629852295,-0.19749534130096436,0.22926093637943268
1772537730199999200,0.939999267578125,-0.30618050694465637,-0.1872004121541977,0.2764648199081421
1772537730210066400,0.95006640625,-0.37527117133140564,-0.20545931160449982,0.34025710821151733
1772537730220134100,0.960134033203125,-0.44170770049095154,-0.1760960966348648,0.38034701347351074
1772537730230202000,0.9702021484375,-0.4597998857498169,-0.0947599709033966,0.37800583243370056
1772537730240269300,0.980269287109375,-0.43603554368019104,0.009185883216559887,0.3478812277317047
1772537730250337000,0.9903369140625,-0.38169026374816895,0.10679366439580917,0.31283989548683167
1772537730260405200,1.0004052734375,-0.32141315937042236,0.17168480157852173,0.3190338909626007
1772537730270472200,1.01047216796875,-0.26430273056030273,0.19369156658649445,0.3747096657752991
1772537730280540200,1.0205400390625,-0.2181394398212433,0.14632168412208557,0.44307440519332886
1772537730290608000,1.030608154296875,-0.20838721096515656,0.08644502609968185,0.5116750001907349
1772537730300675000,1.040675048828125,-0.22596991062164307,0.03900039196014404,0.549487829208374
1772537730310743300,1.050743408203125,-0.24512682855129242,-0.013687589205801487,0.5463554263114929
1772537730320811300,1.060811279296875,-0.27597683668136597,-0.021611375734210014,0.5348951816558838
1772537730330878200,1.070878173828125,-0.30238500237464905,0.006610408425331116,0.5000991225242615
1772537730340946200,1.0809462890625,-0.32436347007751465,0.06714363396167755,0.4520399570465088
1772537730351014100,1.09101416015625,-0.3439880609512329,0.12720616161823273,0.3800067901611328
1772537730361081000,1.1010810546875,-0.34297284483909607,0.13545623421669006,0.29103460907936096
1772537730371149300,1.1111494140625,-0.32947248220443726,0.10132249444723129,0.2017074078321457
1772537730381217300,1.12121728515625,-0.296426922082901,0.05455026775598526,0.1214599609375
1772537730391284200,1.1312841796875,-0.2641552686691284,0.013293905183672905,0.03800368309020996
1772537730401352200,1.141352294921875,-0.22972050309181213,-0.025876032188534737,-0.03880505636334419
1772537730411420200,1.151420166015625,-0.20989327132701874,-0.06934387981891632,-0.10943182557821274
1772537730421487400,1.1614873046875,-0.19939441978931427,-0.09612186998128891,-0.15819256007671356
1772537730431555000,1.17155517578125,-0.1665232926607132,-0.07968510687351227,-0.1948094218969345
1772537730441623000,1.181623046875,-0.11524029821157455,-0.06595739722251892,-0.22207488119602203
1772537730451690000,1.19168994140625,-0.06388229876756668,-0.04921357333660126,-0.20920196175575256
1772537730461758000,1.201758056640625,-0.020256059244275093,-0.04854503646492958,-0.1598936766386032
1772537730471826200,1.211826171875,0.0100043760612607,-0.05692600458860397,-0.09694932401180267
1772537730481893000,1.22189306640625,0.031690388917922974,-0.059385187923908234,-0.02908548340201378
1772537730491961000,1.231961181640625,0.04449699819087982,-0.05160769447684288,0.04023873060941696
1772537730502029000,1.242029052734375,0.0359957329928875,-0.00891121942549944,0.10705965012311935
1772537730512096000,1.252095947265625,0.016505390405654907,0.038628868758678436,0.15879128873348236
1772537730522164000,1.2621640625,0.0008390954462811351,0.06054926663637161,0.19270358979701996
1772537730532232000,1.27223193359375,-0.008795688860118389,0.04779539257287979,0.20727667212486267
1772537730542299100,1.282299072265625,-0.009787820279598236,-0.004222826566547155,0.21415039896965027
1772537730552366800,1.292366943359375,-0.02346687950193882,-0.06605743616819382,0.19828303158283234
1772537730562434800,1.302434814453125,-0.0520247220993042,-0.11874765902757645,0.17308932542800903
1772537730572502000,1.312501953125,-0.08952868729829788,-0.1459110975265503,0.11072634905576706
1772537730582570000,1.322570068359375,-0.13587544858455658,-0.15135197341442108,0.017614595592021942
1772537730592638000,1.332637939453125,-0.16381093859672546,-0.13565529882907867,-0.09507094323635101
1772537730602705000,1.342704833984375,-0.17736071348190308,-0.11565296351909637,-0.21323145925998688
1772537730612772900,1.35277294921875,-0.19313009083271027,-0.09148690849542618,-0.29230549931526184
1772537730622840800,1.3628408203125,-0.20159591734409332,-0.06427725404500961,-0.33444076776504517
1772537730632907800,1.37290771484375,-0.20401246845722198,-0.048053011298179626,-0.3408230245113373
1772537730642976000,1.38297607421875,-0.21849916875362396,-0.01996135711669922,-0.3158031404018402
1772537730653044000,1.3930439453125,-0.23142588138580322,0.0330512635409832,-0.26215827465057373
1772537730663111000,1.40311083984375,-0.21314865350723267,0.07907575368881226,-0.21239778399467468
1772537730673179000,1.413178955078125,-0.16266311705112457,0.11671500653028488,-0.16690008342266083
1772537730683246800,1.423246826171875,-0.08983816206455231,0.14586353302001953,-0.14010606706142426
1772537730693314000,1.43331396484375,-0.042657867074012756,0.19189387559890747,-0.10312408208847046
1772537730703382000,1.443382080078125,-0.04395895451307297,0.2630854547023773,-0.040315911173820496
1772537730713450000,1.453449951171875,-0.060609038919210434,0.3101312518119812,0.020212681964039803
1772537730723517000,1.463516845703125,-0.060728736221790314,0.34311679005622864,0.06691958755254745
1772537730733585000,1.4735849609375,-0.017334124073386192,0.34572508931159973,0.0717146098613739
1772537730743653000,1.483653076171875,0.03487052768468857,0.3338409960269928,0.0592077299952507
1772537730753720000,1.493719970703125,0.06682419776916504,0.33298078179359436,0.049714092165231705
1772537730763788000,1.5037880859375,0.08518926799297333,0.3085256814956665,0.057797033339738846
1772537730773856000,1.51385595703125,0.10616219788789749,0.2490442544221878,0.06126127392053604
1772537730783923000,1.5239228515625,0.156828835606575,0.17856210470199585,0.0449046716094017
1772537730793991000,1.533990966796875,0.2052200734615326,0.12494387477636337,0.021572183817625046
1772537730804059100,1.54405908203125,0.23712654411792755,0.06223861128091812,-0.0064353179186582565
1772537730814126000,1.5541259765625,0.25257447361946106,-0.012205793522298336,-0.04898650571703911
1772537730824194000,1.564194091796875,0.26132580637931824,-0.08476394414901733,-0.09222261607646942
1772537730834262000,1.574261962890625,0.2528982162475586,-0.131374329328537,-0.12275629490613937
1772537730844329000,1.584328857421875,0.22691626846790314,-0.13523119688034058,-0.15051229298114777
1772537730854397200,1.594397216796875,0.1958230584859848,-0.09308348596096039,-0.16898983716964722
1772537730864465000,1.60446484375,0.17571961879730225,-0.011977901682257652,-0.18457788228988647
1772537730874532000,1.614531982421875,0.1555539071559906,0.11249079555273056,-0.20019492506980896
1772537730884599800,1.624599853515625,0.13647571206092834,0.26829952001571655,-0.18634530901908875
1772537730894667800,1.634667724609375,0.12866653501987457,0.39689531922340393,-0.14374086260795593
1772537730904735000,1.64473486328125,0.13026979565620422,0.4927792251110077,-0.07155628502368927
1772537730914803000,1.654802978515625,0.14014266431331635,0.5489141345024109,0.01430615782737732
1772537730924871000,1.664870849609375,0.16694952547550201,0.5824881792068481,0.1049787849187851
1772537730934937900,1.674937744140625,0.2019312083721161,0.6068009734153748,0.1850331425666809
1772537730945005800,1.685005859375,0.2544540762901306,0.6230416893959045,0.24809379875659943
1772537730955074000,1.695073974609375,0.3239990770816803,0.6082696914672852,0.28296947479248047
1772537730965141000,1.70514111328125,0.3971553444862366,0.5657720565795898,0.30031317472457886
1772537730975209000,1.715208984375,0.4808068573474884,0.48092615604400635,0.3072139620780945
1772537730985277000,1.72527685546875,0.5608890652656555,0.3882600665092468,0.2940870225429535
1772537730995344000,1.73534375,0.6140758395195007,0.3008175492286682,0.2671099901199341
1772537731005411800,1.745411865234375,0.6654671430587769,0.22033897042274475,0.24620895087718964
1772537731015480000,1.75547998046875,0.6992160677909851,0.13378331065177917,0.22184422612190247
1772537731025547000,1.765547119140625,0.7115603685379028,0.06008484587073326,0.18565039336681366
1772537731035615000,1.775614990234375,0.6998720169067383,-0.0068150912411510944,0.1561228632926941
1772537731045683000,1.785682861328125,0.667961835861206,-0.06024046242237091,0.11938101053237915
1772537731055750000,1.79575,0.6210174560546875,-0.10360924154520035,0.08694957196712494
1772537731065818000,1.805818115234375,0.5499241948127747,-0.10056169331073761,0.06742209196090698
1772537731075886000,1.815885986328125,0.45929765701293945,-0.04543798789381981,0.047743454575538635
1772537731085953000,1.825953125,0.36852678656578064,0.04964975640177727,0.025962159037590027
1772537731096021000,1.83602099609375,0.27028170228004456,0.1754620224237442,0.004291485529392958
1772537731106089000,1.8460888671875,0.19954398274421692,0.3061518967151642,-0.03085482493042946
1772537731116156000,1.856156005859375,0.15834088623523712,0.3966194689273834,-0.06204656511545181
1772537731126224100,1.86622412109375,0.10967318713665009,0.45313283801078796,-0.08538423478603363
1772537731136292000,1.8762919921875,0.07141714543104172,0.4884317219257355,-0.08791929483413696
1772537731146359000,1.886359130859375,0.05609934777021408,0.4736119508743286,-0.0915861651301384
1772537731156427000,1.896427001953125,0.06613919883966446,0.42651820182800293,-0.0808592215180397
1772537731166494700,1.90649462890625,0.10067317634820938,0.36752942204475403,-0.0796298235654831
1772537731176562200,1.916562255859375,0.13996624946594238,0.29555001854896545,-0.07901516556739807
1772537731186630000,1.9266298828125,0.15489442646503448,0.23831184208393097,-0.05527951568365097
1772537731196697900,1.93669775390625,0.150969460606575,0.20627668499946594,-0.01676807552576065
1772537731206765000,1.94676513671875,0.15262950956821442,0.1941138207912445,0.011306394822895527
1772537731216832800,1.956832763671875,0.16390453279018402,0.182477667927742,0.03241700679063797
1772537731226901000,1.96690087890625,0.17382551729679108,0.18510322272777557,0.04833529144525528
1772537731236968000,1.976968017578125,0.1810983419418335,0.16973145306110382,0.06719394028186798
1772537731247036000,1.987035888671875,0.16862231492996216,0.14594362676143646,0.07620895653963089
1772537731257104000,1.997103759765625,0.13932009041309357,0.12242259085178375,0.07959836721420288
1772537731267170800,2.0071708984375,0.10148337483406067,0.12013274431228638,0.0778360664844513
1772537731277238800,2.01723876953125,0.06629741936922073,0.14246921241283417,0.06611203402280807
1772537731287307000,2.02730712890625,0.039416734129190445,0.17689427733421326,0.04170902445912361
1772537731297374000,2.0373740234375,0.012206151150166988,0.21807366609573364,0.020110255107283592
1772537731307442000,2.04744189453125,-0.008458618074655533,0.24587614834308624,0.002642556093633175
1772537731317510000,2.057510009765625,-0.009990734048187733,0.2550581991672516,0.00889645703136921
1772537731327576800,2.067576904296875,-0.007963213138282299,0.251199334859848,0.03258324787020683
1772537731337645000,2.07764501953125,-0.016090115532279015,0.2477167248725891,0.08715088665485382
1772537731347713000,2.087713134765625,-0.012885856442153454,0.24892760813236237,0.15983377397060394
1772537731357780000,2.097780029296875,-0.00793477427214384,0.23638305068016052,0.2294810265302658
1772537731367848000,2.107847900390625,0.0046663242392241955,0.223526731133461,0.29125654697418213
1772537731377916000,2.117916015625,0.02204851061105728,0.20739597082138062,0.3385404348373413
1772537731387983000,2.127983154296875,0.0361756794154644,0.1886466145515442,0.373125284910202
1772537731398051000,2.138051025390625,0.03557806462049484,0.16765904426574707,0.40240487456321716
1772537731408119000,2.148119140625,0.03259536996483803,0.14321984350681305,0.4205089807510376
1772537731418186000,2.15818603515625,0.02009129710495472,0.11611765623092651,0.41284945607185364
1772537731428254700,2.168254638671875,0.03415605053305626,0.06774349510669708,0.36537036299705505
1772537731438322400,2.178322509765625,0.06411155313253403,0.005150683224201202,0.2894202172756195
1772537731448389600,2.1883896484375,0.08975943922996521,-0.06464772671461105,0.19482916593551636
1772537731458457600,2.19845751953125,0.09885040670633316,-0.14490342140197754,0.09118986129760742
1772537731468524800,2.20852490234375,0.09412159770727158,-0.2294449657201767,-0.009999776259064674
1772537731478592500,2.218592529296875,0.06563802063465118,-0.2882632613182068,-0.0943538099527359
1772537731488660500,2.228660400390625,0.030868100002408028,-0.2845420837402344,-0.1458190679550171
1772537731498727700,2.238727783203125,-0.011435947380959988,-0.21588926017284393,-0.1654668003320694
1772537731508795600,2.248795654296875,-0.04155677184462547,-0.10310244560241699,-0.13989555835723877
1772537731518863600,2.258863525390625,-0.04550863802433014,0.01804208941757679,-0.07310108840465546
1772537731528930600,2.2689306640625,-0.008353613317012787,0.08585333079099655,0.00845205970108509
1772537731538998500,2.27899853515625,0.053711891174316406,0.09047392010688782,0.0988197773694992
1772537731549066500,2.28906640625,0.11764005571603775,0.053626105189323425,0.1828894317150116
1772537731559133400,2.299133544921875,0.1597917675971985,-0.008646054193377495,0.24703113734722137
1772537731569201700,2.30920166015625,0.1764906942844391,-0.05291937291622162,0.29678210616111755
1772537731579269600,2.31926953125,0.16503964364528656,-0.0736965537071228,0.33048468828201294
1772537731589336600,2.329336669921875,0.12421829253435135,-0.0532342866063118,0.3589594066143036
1772537731599404500,2.339404541015625,0.0718861073255539,0.006000538356602192,0.3708365857601166
1772537731609472500,2.349472412109375,0.03079695627093315,0.09131596982479095,0.3635668456554413
1772537731619539700,2.359539794921875,-0.002960208337754011,0.17412351071834564,0.31795835494995117
1772537731629607700,2.369607666015625,-0.01758572831749916,0.2404778003692627,0.24271328747272491
1772537731639675600,2.379675537109375,-0.015245608054101467,0.271954745054245,0.1680305302143097
1772537731649742600,2.38974267578125,0.0036807842552661896,0.2570432126522064,0.10664989054203033
1772537731659810600,2.399810546875,0.024337060749530792,0.19512365758419037,0.056587256491184235
1772537731669878800,2.409878662109375,0.05485503003001213,0.103302501142025,0.02339233085513115
1772537731679945700,2.41994580078125,0.09796947985887527,0.010244994424283504,-0.0043157292529940605
1772537731690013700,2.430013671875,0.11464850604534149,-0.0543958842754364,-0.02774038165807724
1772537731700081700,2.44008154296875,0.11709301918745041,-0.08421263843774796,-0.053096070885658264
1772537731710148600,2.450148681640625,0.1331055611371994,-0.08601297438144684,-0.09703269600868225
1772537731720216600,2.460216552734375,0.1603502333164215,-0.05099107325077057,-0.1559506207704544
1772537731730284800,2.470284912109375,0.19217313826084137,0.008633066900074482,-0.2148510068655014
1772537731740351700,2.480351806640625,0.22236032783985138,0.04789498448371887,-0.2358047515153885
1772537731750419700,2.490419677734375,0.24260741472244263,0.07166831940412521,-0.20512552559375763
1772537731760487700,2.50048779296875,0.2491835653781891,0.10408484935760498,-0.1345280557870865
1772537731770554600,2.5105546875,0.2569923996925354,0.13791632652282715,-0.05406994745135307
1772537731780622800,2.520622802734375,0.28311482071876526,0.1607036590576172,0.0022151616867631674
1772537731790690600,2.530690673828125,0.3315282464027405,0.18790127336978912,0.023746242746710777
1772537731800757800,2.5407578125,0.39152178168296814,0.21523542702198029,0.01617487519979477
1772537731810825500,2.550825439453125,0.4360426068305969,0.24062570929527283,0.010984603315591812
1772537731820893400,2.5608935546875,0.4619370400905609,0.26095786690711975,0.025966748595237732
1772537731830960600,2.570960693359375,0.45448288321495056,0.2885562479496002,0.05590379238128662
1772537731841028600,2.581028564453125,0.43906158208847046,0.32829245924949646,0.08073191344738007
1772537731851096600,2.5910966796875,0.4247381389141083,0.36115139722824097,0.09447750449180603
1772537731861163500,2.60116357421875,0.4196091592311859,0.3812825083732605,0.08785954862833023
1772537731871231500,2.6112314453125,0.4312935173511505,0.39274266362190247,0.07104708254337311
1772537731881299700,2.6212998046875,0.45529070496559143,0.42442893981933594,0.07231926918029785
1772537731891366700,2.63136669921875,0.47533467411994934,0.44486671686172485,0.10911129415035248
1772537731901434600,2.6414345703125,0.48867496848106384,0.44067251682281494,0.16133320331573486
1772537731911502600,2.651502685546875,0.5058605074882507,0.4448062777519226,0.21606890857219696
1772537731921569500,2.661569580078125,0.5319762825965881,0.46454402804374695,0.2487964928150177
1772537731931637500,2.671637451171875,0.5563601851463318,0.4878655970096588,0.2437005341053009
1772537731941705700,2.681705810546875,0.5773141980171204,0.5109086036682129,0.2168438881635666
1772537731951772700,2.691772705078125,0.5875017642974854,0.5502245426177979,0.17844022810459137
1772537731961840600,2.701840576171875,0.5912198424339294,0.6025689244270325,0.14392432570457458
1772537731971908600,2.71190869140625,0.6061621904373169,0.6622642874717712,0.09751709550619125
1772537731981975600,2.7219755859375,0.6238812208175659,0.7236756682395935,0.06254419684410095
1772537731992043800,2.732043701171875,0.6462386250495911,0.783297598361969,0.04868250712752342
1772537732002111700,2.74211181640625,0.6796085834503174,0.8226077556610107,0.06529690325260162
1772537732012178700,2.7521787109375,0.7040736079216003,0.8511150479316711,0.11371384561061859
1772537732022246700,2.76224658203125,0.7240502238273621,0.8668676614761353,0.1797269582748413
1772537732032314600,2.772314697265625,0.7483943700790405,0.8862442970275879,0.25750958919525146
1772537732042381600,2.782381591796875,0.7828364968299866,0.9387496113777161,0.3221450448036194
1772537732052449800,2.79244970703125,0.8362315893173218,1.0026882886886597,0.34192559123039246
1772537732062517800,2.802517822265625,0.9026862978935242,1.06080162525177,0.3307669460773468
1772537732072584700,2.812584716796875,0.9666777849197388,1.1283262968063354,0.28640881180763245
1772537732082652700,2.822652587890625,1.032873511314392,1.2066270112991333,0.24960952997207642
1772537732092720600,2.832720703125,1.0799388885498047,1.2937520742416382,0.2498692125082016
1772537732102787800,2.842787841796875,1.1081207990646362,1.367722511291504,0.27486032247543335
1772537732112855600,2.85285546875,1.1246448755264282,1.407966136932373,0.31883299350738525
1772537732122923500,2.862923583984375,1.1577712297439575,1.4509284496307373,0.3768851161003113
1772537732132990700,2.87299072265625,1.2044371366500854,1.4934161901474,0.4382227659225464
1772537732143058400,2.883058349609375,1.27432119846344,1.5372753143310547,0.4860725700855255
1772537732153126700,2.893126708984375,1.3582805395126343,1.586879849433899,0.5010710954666138
1772537732163193600,2.903193603515625,1.4645198583602905,1.6436909437179565,0.4913495182991028
1772537732173261600,2.913261474609375,1.5800637006759644,1.6762113571166992,0.458601713180542
1772537732183329500,2.92332958984375,1.6888660192489624,1.6784074306488037,0.42202186584472656
1772537732193396500,2.933396484375,1.7704906463623047,1.659961462020874,0.42353925108909607
1772537732203464700,2.943464599609375,1.809727430343628,1.6448333263397217,0.4724434018135071
1772537732213532700,2.95353271484375,1.8286304473876953,1.6371443271636963,0.5454933047294617
1772537732223599600,2.963599609375,1.8252639770507812,1.6679816246032715,0.6083857417106628
1772537732233667600,2.97366748046875,1.8170418739318848,1.7351773977279663,0.6499063968658447
1772537732243735600,2.983735595703125,1.829292893409729,1.8358911275863647,0.6624975800514221
1772537732253802500,2.993802490234375,1.843039870262146,1.9024803638458252,0.6256217956542969
1772537732263870700,3.00387060546875,1.908193588256836,1.9457095861434937,0.5535667538642883
1772537732273938700,3.013938720703125,2.042569398880005,1.941101312637329,0.48586153984069824
1772537732284005600,3.024005615234375,2.180558443069458,1.8758180141448975,0.46878933906555176
1772537732294073600,3.034073486328125,2.234159231185913,1.770310878753662,0.5194177031517029
1772537732304141600,3.0441416015625,2.1708080768585205,1.6617401838302612,0.615337073802948
1772537732314208800,3.054208740234375,2.1302449703216553,1.5501850843429565,0.7206383347511292
1772537732324276700,3.06427685546875,2.1244688034057617,1.471395492553711,0.7619823217391968
1772537732334344700,3.0743447265625,2.112375259399414,1.4220302104949951,0.7419837117195129
1772537732344411600,3.08441162109375,2.0614097118377686,1.406963586807251,0.6885854601860046
1772537732354479600,3.094479736328125,2.0156164169311523,1.4351718425750732,0.6482357978820801
1772537732364547800,3.1045478515625,2.030078172683716,1.5012127161026,0.5639704465866089
1772537732374614800,3.11461474609375,2.090406656265259,1.6574981212615967,0.3362573981285095
1772537732384682800,3.124682861328125,2.104698896408081,1.8028470277786255,-0.04621460661292076
1772537732394750700,3.134750732421875,2.0873003005981445,1.713321328163147,-0.4256771206855774
1772537732404817700,3.144817626953125,2.1278679370880127,1.591960072517395,-0.70620197057724
1772537732414885600,3.1548857421875,2.13653826713562,1.4335083961486816,-0.8812702894210815
1772537732424953000,3.164953125,2.1129021644592285,1.1416877508163452,-0.9635545015335083
1772537732435020300,3.175020263671875,2.024876832962036,0.9445688724517822,-0.984681248664856
1772537732445088300,3.185088134765625,1.7083666324615479,1.2544937133789062,-0.7720502018928528
1772537732455156000,3.195156005859375,1.273403525352478,1.5287978649139404,-0.48416176438331604
1772537732465223200,3.20522314453125,0.8091131448745728,1.6919420957565308,-0.17857123911380768
1772537732475291100,3.215291015625,0.48551902174949646,1.8428199291229248,0.12762568891048431
1772537732485359000,3.225359130859375,0.3436444401741028,1.8453792333602905,0.3956882953643799
1772537732495426300,3.23542626953125,0.32179224491119385,1.665732741355896,0.5746402740478516
1772537732505494000,3.245493896484375,0.33066776394844055,1.3627986907958984,0.6464915871620178
1772537732515562000,3.25556201171875,0.3196171522140503,1.1032299995422363,0.6445561051368713
1772537732525629000,3.26562890625,0.3143174648284912,0.9719110727310181,0.5616047382354736
1772537732535697000,3.27569677734375,0.350244402885437,0.9977981448173523,0.44473588466644287
1772537732545765000,3.28576513671875,0.40709754824638367,1.0949629545211792,0.3294263184070587
1772537732555832000,3.29583203125,0.48273685574531555,1.2121179103851318,0.24568520486354828
1772537732565900000,3.305900146484375,0.5292205214500427,1.2699639797210693,0.20267808437347412
1772537732575968000,3.315968017578125,0.5418001413345337,1.2311644554138184,0.21034657955169678
1772537732586035000,3.326034912109375,0.5356990694999695,1.1400763988494873,0.262297660112381
1772537732596103200,3.336103271484375,0.5140395760536194,0.9970954060554504,0.3086831867694855
1772537732606171100,3.346171142578125,0.48845216631889343,0.8514090180397034,0.33600589632987976
1772537732616238000,3.356238037109375,0.47229307889938354,0.7597826719284058,0.32983753085136414
1772537732626306000,3.36630615234375,0.4768609404563904,0.7502996921539307,0.2961152493953705
1772537732636374000,3.3763740234375,0.49629756808280945,0.7876210808753967,0.23280853033065796
1772537732646441000,3.38644091796875,0.5241541862487793,0.8168731927871704,0.15830740332603455
1772537732656509200,3.39650927734375,0.5489022731781006,0.8153075575828552,0.07960723340511322
1772537732666577200,3.4065771484375,0.5680863857269287,0.8091005086898804,0.006949278526008129
1772537732676644000,3.41664404296875,0.5687650442123413,0.8059752583503723,-0.04024699702858925
1772537732686712000,3.426712158203125,0.5318447947502136,0.7779675722122192,-0.06880807131528854
1772537732696780300,3.4367802734375,0.4786761403083801,0.7624790668487549,-0.06906864792108536
1772537732706847200,3.44684716796875,0.419589638710022,0.7600137591362,-0.03223313391208649
1772537732716915200,3.456915283203125,0.3655663728713989,0.7348285913467407,0.028642261400818825
1772537732726983200,3.466983154296875,0.3240673840045929,0.6841084361076355,0.08529622107744217
1772537732737050000,3.477050048828125,0.30376318097114563,0.6189386248588562,0.12984000146389008
1772537732747118000,3.4871181640625,0.3019828498363495,0.5714203715324402,0.14707331359386444
1772537732757186000,3.49718603515625,0.31735822558403015,0.5560904145240784,0.1605098694562912
1772537732767253200,3.507253173828125,0.32695919275283813,0.5501137375831604,0.17436443269252777
1772537732777321200,3.5173212890625,0.3245803117752075,0.5258259773254395,0.1785675287246704
1772537732787389000,3.527388916015625,0.3109656870365143,0.4960062801837921,0.19206389784812927
1772537732797456100,3.5374560546875,0.2901264429092407,0.46428656578063965,0.19722315669059753
1772537732807524000,3.547524169921875,0.26793190836906433,0.4417242407798767,0.20106637477874756
1772537732817592000,3.557592041015625,0.244564488530159,0.4162057936191559,0.1991112381219864
1772537732827659000,3.567658935546875,0.21972757577896118,0.3905177414417267,0.18828842043876648
1772537732837727000,3.57772705078125,0.188655287027359,0.3536074459552765,0.17831575870513916
1772537732847795000,3.587794921875,0.15648002922534943,0.316394567489624,0.1657072901725769
1772537732857862000,3.59786181640625,0.1202438622713089,0.3299632966518402,0.15537920594215393
1772537732867930000,3.60793017578125,0.08672824501991272,0.3589438199996948,0.13268853724002838
1772537732877998000,3.617998046875,0.0526222288608551,0.3455210328102112,0.10186216235160828
1772537732888065000,3.62806494140625,0.03448184207081795,0.3039669096469879,0.060095008462667465
1772537732898133000,3.638133056640625,0.02425588108599186,0.2769504487514496,0.013328902423381805
1772537732908201000,3.648200927734375,0.008352015167474747,0.2284684032201767,-0.051713746041059494
1772537732918268200,3.65826806640625,-0.002272256650030613,0.17687514424324036,-0.12036165595054626
1772537732928336100,3.668336181640625,0.002007709350436926,0.13118861615657806,-0.19138070940971375
1772537732938404000,3.678404052734375,0.01992633379995823,0.11669275909662247,-0.2470296025276184
1772537732948471000,3.688470947265625,0.02949107624590397,0.08621767163276672,-0.2893107533454895
1772537732958539000,3.6985390625,0.03542018309235573,0.044804856181144714,-0.29719215631484985
1772537732968607200,3.708607177734375,0.024564076215028763,0.022969333454966545,-0.2545458972454071
1772537732978674200,3.718674072265625,0.0038840211927890778,-0.004957360681146383,-0.17760184407234192
1772537732988742100,3.7287421875,-0.0018311223248019814,-0.05465807393193245,-0.09383371472358704
1772537732998810000,3.73881005859375,0.018761418759822845,-0.13772135972976685,-0.01800447888672352
1772537733008877000,3.748876953125,0.044996216893196106,-0.23520290851593018,0.04188575595617294
1772537733018945000,3.758945068359375,0.07717995345592499,-0.3138398230075836,0.06950889527797699
1772537733029013200,3.76901318359375,0.10442116111516953,-0.34150633215904236,0.09298785775899887
1772537733039080200,3.779080078125,0.10513053834438324,-0.3389086425304413,0.11461467295885086
1772537733049148200,3.789148193359375,0.06753123551607132,-0.3363456130027771,0.14379413425922394
1772537733059216100,3.799216064453125,-0.011271923780441284,-0.3340153992176056,0.17024683952331543
1772537733069283000,3.809282958984375,-0.12090335041284561,-0.31696584820747375,0.1774192750453949
1772537733079351300,3.819351318359375,-0.2280586063861847,-0.2922004163265228,0.16143213212490082
1772537733089419000,3.8294189453125,-0.2992297112941742,-0.2590073049068451,0.11827001720666885
1772537733099486200,3.839486328125,-0.3339247405529022,-0.21257229149341583,0.08319932222366333
1772537733109554200,3.84955419921875,-0.35583749413490295,-0.15937751531600952,0.057307541370391846
1772537733119622000,3.859621826171875,-0.3615814745426178,-0.10612097382545471,0.051974788308143616
1772537733129689000,3.869689208984375,-0.37425467371940613,-0.08528493344783783,0.06935004889965057
1772537733139757000,3.879757080078125,-0.4007272720336914,-0.1053079143166542,0.11630290746688843
1772537733149825000,3.889824951171875,-0.43137335777282715,-0.17852167785167694,0.1652643382549286
1772537733159892000,3.89989208984375,-0.45213785767555237,-0.28866103291511536,0.19519226253032684
1772537733169960000,3.9099599609375,-0.4503468871116638,-0.4295702278614044,0.1961861550807953
1772537733180028200,3.920028076171875,-0.4184523820877075,-0.597052812576294,0.1596837043762207
1772537733190095000,3.93009521484375,-0.3565693199634552,-0.8059455752372742,0.07593101263046265
1772537733200163000,3.9401630859375,-0.29592013359069824,-0.9934007525444031,-0.04040555655956268
1772537733210231000,3.95023095703125,-0.23195846378803253,-1.115756630897522,-0.16242334246635437
1772537733220298000,3.960298095703125,-0.2615189254283905,-1.093355417251587,-0.23210260272026062
1772537733230366000,3.970365966796875,-0.15316393971443176,-0.6276111602783203,-0.18912345170974731
1772537733240434200,3.98043408203125,0.10536070913076401,-0.3619908094406128,-0.21113015711307526
1772537733250501000,3.990501220703125,0.315589040517807,-0.341727077960968,-0.24443671107292175
1772537733260569000,4.000569091796875,0.3673105537891388,-0.3782446086406708,-0.18717849254608154
1772537733270637000,4.010636962890625,0.231530100107193,-0.34748536348342896,-0.03513915464282036
1772537733280704000,4.0207041015625,0.07972148805856705,-0.3360699415206909,0.18422192335128784
1772537733290772200,4.030772216796875,-0.051767561584711075,-0.3617425262928009,0.469629168510437
1772537733300840200,4.040840087890625,-0.18950244784355164,-0.4020562469959259,0.8532903790473938
1772537733310907100,4.0509072265625,-0.32202932238578796,-0.6069933772087097,1.1788767576217651
1772537733320975000,4.06097509765625,-0.43425387144088745,-0.8841834664344788,1.3320404291152954
1772537733331043000,4.07104296875,-0.48100194334983826,-1.0263683795928955,1.3427234888076782
1772537733341110000,4.081110107421875,-0.4012985825538635,-1.0146660804748535,1.2091890573501587
1772537733351178200,4.09117822265625,-0.2538857161998749,-0.8072178959846497,0.979636013507843
1772537733361246200,4.10124609375,-0.017409246414899826,-0.4675937294960022,0.7099398970603943
1772537733371313200,4.111313232421875,0.21890315413475037,-0.11030509322881699,0.43461745977401733
1772537733381381000,4.121381103515625,0.3635348975658417,0.1863209456205368,0.18765288591384888
1772537733391449000,4.131448974609375,0.4194154739379883,0.3855302035808563,0.031058218330144882
1772537733401516300,4.141516357421875,0.3965420126914978,0.4792102873325348,-0.02829733118414879
1772537733411584300,4.151584228515625,0.2881276607513428,0.4888743758201599,0.015452813357114792
1772537733421652000,4.16165185546875,0.1438259780406952,0.4712613821029663,0.12039109319448471
1772537733431719200,4.17171923828125,0.027202963829040527,0.47244781255722046,0.23197408020496368
1772537733441787100,4.181787109375,-0.026614787057042122,0.47266319394111633,0.2965860068798065
1772537733451855000,4.191855224609375,-0.025412635877728462,0.48138612508773804,0.3266323208808899
1772537733461922000,4.201922119140625,0.01395160611718893,0.56467205286026,0.3231886625289917
1772537733471990000,4.211989990234375,0.08513816446065903,0.7294002771377563,0.2894333600997925
1772537733482058000,4.22205810546875,0.15501950681209564,0.9118108153343201,0.2594027817249298
1772537733492125000,4.232125,0.19413389265537262,1.036521553993225,0.24767127633094788
1772537733502193200,4.242193115234375,0.19775699079036713,1.0472767353057861,0.24903570115566254
1772537733512261000,4.25226123046875,0.16677697002887726,0.9793750047683716,0.25797805190086365
1772537733522328000,4.262328125,0.12946945428848267,0.8922235369682312,0.2812916934490204
1772537733532396000,4.27239599609375,0.0895095244050026,0.8405027985572815,0.3334909677505493
1772537733542464000,4.282464111328125,0.017752815037965775,0.810432493686676,0.39402446150779724
1772537733552531200,4.29253125,-0.0889454036951065,0.7450622320175171,0.4519580900669098
1772537733562599200,4.30259912109375,-0.17862568795681,0.6859192252159119,0.49682262539863586
1772537733572667100,4.312667236328125,-0.22924278676509857,0.6609299778938293,0.5169084668159485
1772537733582734000,4.322734130859375,-0.23437634110450745,0.666800320148468,0.5202921032905579
1772537733592802000,4.332802001953125,-0.23223596811294556,0.6373867392539978,0.49189695715904236
1772537733602870300,4.342870361328125,-0.20612473785877228,0.5884764790534973,0.4304647445678711
1772537733612937200,4.352937255859375,-0.16489313542842865,0.5889294743537903,0.3760529160499573
1772537733623005200,4.363005126953125,-0.11971217393875122,0.6670023202896118,0.3394554555416107
1772537733633073200,4.3730732421875,-0.08396429568529129,0.7600888609886169,0.30278879404067993
1772537733643140000,4.38314013671875,-0.05746051296591759,0.8354851007461548,0.25716376304626465
1772537733653208000,4.3932080078125,-0.030361786484718323,0.8777568936347961,0.21486987173557281
1772537733663276300,4.4032763671875,-0.006233355961740017,0.8779937028884888,0.16501817107200623
1772537733673343200,4.41334326171875,0.007640914060175419,0.8308823704719543,0.09902983903884888
1772537733683411200,4.4234111328125,0.021875042468309402,0.7351252436637878,0.007872535847127438
1772537733693479200,4.433479248046875,0.05506601929664612,0.6247755885124207,-0.10121240466833115
1772537733703546000,4.443546142578125,0.1028415709733963,0.5154059529304504,-0.20075352489948273
1772537733713614300,4.4536142578125,0.15230871737003326,0.3946038782596588,-0.2763928771018982
1772537733723682000,4.46368212890625,0.18671198189258575,0.26308006048202515,-0.32998043298721313
1772537733733749200,4.473749267578125,0.21666720509529114,0.1001044437289238,-0.37486082315444946
1772537733743817200,4.483817138671875,0.2500254511833191,-0.051841337233781815,-0.4183998107910156
1772537733753885000,4.493885009765625,0.3027389943599701,-0.0793139711022377,-0.44042015075683594
1772537733763952000,4.5039521484375,0.35837820172309875,-0.0007450385019183159,-0.4420875608921051
1772537733774020000,4.51402001953125,0.3837969899177551,0.13541971147060394,-0.4179840683937073
1772537733784088000,4.524088134765625,0.36470845341682434,0.2739918828010559,-0.37674373388290405
1772537733794155000,4.534155029296875,0.30407917499542236,0.4118562936782837,-0.31651395559310913
1772537733804223000,4.544222900390625,0.23290230333805084,0.5549641847610474,-0.22696393728256226
1772537733814291200,4.554291259765625,0.17691440880298615,0.6947306394577026,-0.11736978590488434
1772537733824358100,4.564358154296875,0.11126379668712616,0.7886607050895691,0.0012511522509157658
1772537733834426000,4.574426025390625,0.06072178855538368,0.8035424947738647,0.1129734218120575
1772537733844494000,4.584494140625,0.045986153185367584,0.7749521732330322,0.178797647356987
1772537733854561000,4.59456103515625,0.06842781603336334,0.746720552444458,0.20821119844913483
1772537733864629000,4.60462890625,0.09720087051391602,0.7373925447463989,0.20929910242557526
1772537733874697200,4.614697265625,0.15788418054580688,0.7569875717163086,0.19458194077014923
1772537733884764200,4.62476416015625,0.22034227848052979,0.7901931405067444,0.1633506417274475
1772537733894832000,4.63483203125,0.2542451322078705,0.77377849817276,0.12808160483837128
1772537733904900000,4.644900146484375,0.28480690717697144,0.6857833862304688,0.08451705425977707
1772537733914967000,4.654967041015625,0.3192943036556244,0.5620926022529602,0.03448371961712837
1772537733925035300,4.66503515625,0.3360311985015869,0.41824108362197876,-0.03300223499536514
1772537733935103200,4.675103271484375,0.3317429721355438,0.25258395075798035,-0.12921345233917236
1772537733945170200,4.685170166015625,0.3049021065235138,0.1414186656475067,-0.25651293992996216
1772537733955238100,4.695238037109375,0.2726925015449524,0.09765253216028214,-0.38519448041915894
1772537733965306000,4.70530615234375,0.24369513988494873,0.10396549105644226,-0.4918195307254791
1772537733975373000,4.715373046875,0.21156011521816254,0.11715106666088104,-0.5636900067329407
1772537733985441300,4.725441162109375,0.18087700009346008,0.1262846142053604,-0.5858639478683472
1772537733995509200,4.73550927734375,0.14997714757919312,0.15270105004310608,-0.5748405456542969
1772537734005576200,4.745576171875,0.118547223508358,0.19254742562770844,-0.5284726023674011
1772537734015644200,4.75564404296875,0.11478151381015778,0.2658655643463135,-0.4801710844039917
1772537734025712000,4.765712158203125,0.09422075003385544,0.34716254472732544,-0.41889989376068115
1772537734035779300,4.775779296875,0.07736080884933472,0.4001714289188385,-0.3513866364955902
1772537734045847300,4.785847412109375,0.06838028877973557,0.42852750420570374,-0.2822580337524414
1772537734055915000,4.7959150390625,0.052197061479091644,0.4286036789417267,-0.20995669066905975
1772537734065982200,4.805982177734375,0.028928035870194435,0.39703527092933655,-0.14795315265655518
1772537734076050000,4.8160498046875,0.02295057103037834,0.3797611892223358,-0.11232858896255493
1772537734086118100,4.8261181640625,0.036242540925741196,0.3811767101287842,-0.07982515543699265
1772537734096185000,4.83618505859375,0.061878398060798645,0.4010162055492401,-0.0733930841088295
1772537734106253000,4.846253173828125,0.095167376101017,0.4371742010116577,-0.0852326974272728
1772537734116321000,4.856321044921875,0.13301914930343628,0.4628063440322876,-0.10216827690601349
1772537734126388000,4.866387939453125,0.1628866195678711,0.45200756192207336,-0.11903153359889984
1772537734136456000,4.8764560546875,0.1735272854566574,0.45372772216796875,-0.12481911480426788
1772537734146524200,4.886524169921875,0.1795724332332611,0.4917583465576172,-0.13058863580226898
1772537734156591000,4.896591064453125,0.18184730410575867,0.5333177447319031,-0.141587495803833
1772537734166659000,4.9066591796875,0.2002301663160324,0.5445799827575684,-0.15158197283744812
1772537734176727000,4.91672705078125,0.23498760163784027,0.537359893321991,-0.15262486040592194
1772537734186794000,4.9267939453125,0.2798757255077362,0.5164414048194885,-0.14569148421287537
1772537734196862200,4.9368623046875,0.3296036124229431,0.48237746953964233,-0.13917285203933716
1772537734206930200,4.94693017578125,0.3960117697715759,0.45063284039497375,-0.1237405389547348
1772537734216997000,4.9569970703125,0.4558420777320862,0.4382350444793701,-0.08598969876766205
1772537734227065000,4.967065185546875,0.48777472972869873,0.4406546354293823,-0.014830933883786201
1772537734237133000,4.977133056640625,0.4975818395614624,0.4664289653301239,0.07530800998210907
1772537734247200000,4.987199951171875,0.4950163960456848,0.5103153586387634,0.17329524457454681
1772537734257268200,4.997268310546875,0.4819711744785309,0.533059298992157,0.26694318652153015
1772537734267336200,5.007336181640625,0.4791639745235443,0.5409314036369324,0.3476417362689972
1772537734277403100,5.017403076171875,0.48330971598625183,0.5529747605323792,0.4086590111255646
1772537734287471000,5.02747119140625,0.48755839467048645,0.5632604956626892,0.45179590582847595
1772537734297539300,5.037539306640625,0.48618581891059875,0.5573868751525879,0.48251065611839294
1772537734307606300,5.047606201171875,0.4679526388645172,0.5647746920585632,0.5040796995162964
1772537734317674200,5.05767431640625,0.43708765506744385,0.5905026793479919,0.519055962562561
1772537734327742200,5.0677421875,0.38723742961883545,0.6275215744972229,0.5262495279312134
1772537734337809200,5.07780908203125,0.34037908911705017,0.6643626689910889,0.515819787979126
1772537734347877000,5.087877197265625,0.31661269068717957,0.705716609954834,0.4896324872970581
1772537734357945000,5.097945068359375,0.3023679852485657,0.768390953540802,0.43727314472198486
1772537734368012300,5.10801220703125,0.28622007369995117,0.841880202293396,0.35862651467323303
1772537734378080300,5.118080322265625,0.27900266647338867,0.8573182821273804,0.24882440268993378
1772537734388148000,5.12814794921875,0.28894269466400146,0.8283159732818604,0.12697875499725342
1772537734398215200,5.138215087890625,0.3110754191875458,0.78045254945755,0.002559855580329895
1772537734408283100,5.148283203125,0.33988821506500244,0.7292773127555847,-0.10973894596099854
1772537734418351000,5.15835107421875,0.38837507367134094,0.6823284029960632,-0.19708770513534546
1772537734428418000,5.16841796875,0.45159047842025757,0.6569555997848511,-0.2586705982685089
1772537734438486000,5.178486083984375,0.51087486743927,0.6530088186264038,-0.29983481764793396
1772537734448554000,5.188553955078125,0.5544824600219727,0.6849579215049744,-0.314015656709671
1772537734458621000,5.198620849609375,0.5916511416435242,0.7425032258033752,-0.30232733488082886
1772537734468689000,5.20868896484375,0.6319772005081177,0.8195830583572388,-0.26952606439590454
1772537734478756900,5.2187568359375,0.6808373928070068,0.8937898874282837,-0.21952283382415771
1772537734488823800,5.22882373046875,0.7533647418022156,0.9200485348701477,-0.16163954138755798
1772537734498892000,5.23889208984375,0.8326805830001831,0.9069521427154541,-0.09392945468425751
1772537734508960000,5.2489599609375,0.9002566933631897,0.8773383498191833,-0.00986118707805872
1772537734519028000,5.259028076171875,0.9339680671691895,0.8549065589904785,0.07557382434606552
1772537734529095000,5.269094970703125,0.9400026798248291,0.8586427569389343,0.1584187000989914
1772537734539163100,5.2791630859375,0.9277803301811218,0.8921117782592773,0.2274896502494812
1772537734549231000,5.289231201171875,0.8900853991508484,0.932709276676178,0.2899445593357086
1772537734559298000,5.299298095703125,0.8321709632873535,0.9748873710632324,0.3395307660102844
1772537734569366000,5.309365966796875,0.7580268383026123,1.049894094467163,0.39343565702438354
1772537734579434000,5.31943408203125,0.667639970779419,1.1404740810394287,0.4488203525543213
1772537734589501000,5.3295009765625,0.566206693649292,1.2277839183807373,0.5029242038726807
1772537734599568000,5.33956787109375,0.4684271216392517,1.2954891920089722,0.5402625203132629
1772537734609636000,5.349635986328125,0.39529162645339966,1.3368303775787354,0.5524673461914062
1772537734619703000,5.359703125,0.3537819981575012,1.355027437210083,0.5339770317077637
1772537734629771000,5.36977099609375,0.3341946005821228,1.3462448120117188,0.4870820641517639
1772537734639839000,5.3798388671875,0.33081290125846863,1.3056210279464722,0.4102059304714203
1772537734649906000,5.389906005859375,0.3534930646419525,1.2514711618423462,0.3105195462703705
1772537734659974100,5.39997412109375,0.3863484859466553,1.187684178352356,0.18874172866344452
1772537734670042000,5.4100419921875,0.4233311116695404,1.130658745765686,0.05654633045196533
1772537734680109000,5.420109130859375,0.45671170949935913,1.0788050889968872,-0.0679793506860733
1772537734690177000,5.430177001953125,0.4834456741809845,1.035163164138794,-0.18930500745773315
1772537734700245000,5.440244873046875,0.5208148956298828,1.0020978450775146,-0.29717981815338135
1772537734710312000,5.45031201171875,0.5746252536773682,0.978246808052063,-0.3906094431877136
1772537734720380200,5.460380126953125,0.653697669506073,0.943047821521759,-0.4539516568183899
1772537734730448100,5.4704482421875,0.7474976181983948,0.8959874510765076,-0.49194392561912537
1772537734740515000,5.48051513671875,0.8609935641288757,0.8474870324134827,-0.4777282476425171
1772537734750583000,5.4905830078125,0.9681887030601501,0.8114444613456726,-0.4114575982093811
1772537734760651000,5.500651123046875,1.0541130304336548,0.8331902027130127,-0.2941006124019623
1772537734770718200,5.51071826171875,1.1005536317825317,0.9043375253677368,-0.1420518457889557
1772537734780786000,5.520785888671875,1.1139997243881226,1.0188084840774536,0.02246387116611004
1772537734790854000,5.53085400390625,1.114818811416626,1.1397101879119873,0.1729390025138855
1772537734800921000,5.540921142578125,1.1159257888793945,1.2263715267181396,0.2917734980583191
1772537734810988800,5.55098876953125,1.1279433965682983,1.268789291381836,0.35700178146362305
1772537734821057000,5.56105712890625,1.1449238061904907,1.2693251371383667,0.3671164810657501
1772537734831124000,5.5711240234375,1.1594260931015015,1.2640502452850342,0.3438713252544403
1772537734841192000,5.58119189453125,1.1589738130569458,1.2521909475326538,0.2942318618297577
1772537734851260000,5.591260009765625,1.1369764804840088,1.227394938468933,0.24526815116405487
1772537734861326800,5.601326904296875,1.1025058031082153,1.210965871810913,0.1861228048801422
1772537734871395000,5.61139501953125,1.0737477540969849,1.1981942653656006,0.10491517931222916
1772537734881463000,5.621463134765625,1.0545591115951538,1.190793514251709,0.013947458937764168
1772537734891530000,5.631530029296875,1.0332881212234497,1.1971150636672974,-0.0833979919552803
1772537734901598000,5.641597900390625,1.0145450830459595,1.1900300979614258,-0.16610805690288544
1772537734911666000,5.651666015625,0.9935471415519714,1.1501048803329468,-0.23845785856246948
1772537734921732900,5.66173291015625,0.9849246144294739,1.1045286655426025,-0.28215181827545166
1772537734931801000,5.671801025390625,0.9818328619003296,1.0388189554214478,-0.29035627841949463
1772537734941869000,5.681869140625,0.9872446656227112,0.9290372729301453,-0.2563178837299347
1772537734951936000,5.69193603515625,0.9887421131134033,0.8102783560752869,-0.18891243636608124
1772537734962004000,5.70200390625,0.9867364764213562,0.7191324830055237,-0.10535494983196259
1772537734972072200,5.712072265625,0.9797794818878174,0.6694126129150391,-0.03755076974630356
1772537734982139100,5.72213916015625,0.9740409255027771,0.6699194312095642,0.00421398738399148
1772537734992207000,5.73220703125,0.9574748277664185,0.7011165618896484,0.038157328963279724
1772537735002275000,5.742275146484375,0.9397009015083313,0.7391883134841919,0.08097323030233383
1772537735012342000,5.752342041015625,0.8934122323989868,0.759755551815033,0.1340918093919754
1772537735022410000,5.762409912109375,0.8330460786819458,0.7698116898536682,0.19974085688591003
1772537735032478200,5.772478271484375,0.7668166756629944,0.8179660439491272,0.24829667806625366
1772537735042545200,5.782545166015625,0.7055419087409973,0.8994872570037842,0.2791512608528137
1772537735052613000,5.792613037109375,0.656038761138916,0.9818874597549438,0.2912801504135132
1772537735062680800,5.802680908203125,0.6223593950271606,1.0481642484664917,0.2864595651626587
1772537735072748000,5.812748046875,0.5943748950958252,1.0699349641799927,0.2724083960056305
1772537735082816000,5.82281591796875,0.5734099745750427,1.0518240928649902,0.24576666951179504
1772537735092884000,5.832884033203125,0.5563350319862366,1.0117216110229492,0.20778778195381165
1772537735102951200,5.842951171875,0.5479271411895752,0.9594318866729736,0.15848654508590698
1772537735113019000,5.853018798828125,0.5481115579605103,0.8943061828613281,0.09705460071563721
1772537735123086800,5.8630869140625,0.5541979670524597,0.8428522944450378,0.038447219878435135
1772537735133153800,5.87315380859375,0.5609399080276489,0.8083125352859497,-0.02579641342163086
1772537735143222000,5.883221923828125,0.5599758625030518,0.8027632832527161,-0.0722467377781868
1772537735153290000,5.8932900390625,0.5581949949264526,0.8211906552314758,-0.08898765593767166
1772537735163357000,5.90335693359375,0.5477335453033447,0.846196711063385,-0.09609510004520416
1772537735173425000,5.9134248046875,0.5387346148490906,0.8749027252197266,-0.08411473035812378
1772537735183492900,5.923492919921875,0.520997941493988,0.9001039266586304,-0.04160375893115997
1772537735193560000,5.93356005859375,0.5042858719825745,0.8971369862556458,0.0031880533788353205
1772537735203628000,5.9436279296875,0.5020067691802979,0.8695330619812012,0.04099402204155922
1772537735213696000,5.953696044921875,0.5186610817909241,0.8261280655860901,0.06390485167503357
1772537735223763000,5.963762939453125,0.5498270392417908,0.7677305340766907,0.06253226101398468
1772537735233831000,5.973830810546875,0.5842549204826355,0.7025668621063232,0.04778114706277847
1772537735243899100,5.983899169921875,0.6194038391113281,0.642959475517273,0.014676989987492561
1772537735253966000,5.993966064453125,0.6478936076164246,0.6027253270149231,-0.03583936020731926
1772537735264034000,6.004033935546875,0.6498505473136902,0.5913621187210083,-0.08147768676280975
1772537735274102000,6.01410205078125,0.6062223315238953,0.6307815313339233,-0.11012888699769974
1772537735284169000,6.0241689453125,0.5355263352394104,0.7036786675453186,-0.10104058682918549
1772537735294237000,6.03423681640625,0.44129475951194763,0.819634735584259,-0.06676531583070755
1772537735304305200,6.04430517578125,0.35674285888671875,0.9451769590377808,-0.023395467549562454
1772537735314372000,6.0543720703125,0.31573405861854553,1.0439398288726807,0.025976670905947685
1772537735324440000,6.064440185546875,0.32696008682250977,1.0553208589553833,0.07128609716892242
1772537735334508000,6.074508056640625,0.38839060068130493,0.9625987410545349,0.07736192643642426
1772537735344575000,6.084574951171875,0.4694870412349701,0.8140854239463806,0.06814579665660858
1772537735354643200,6.094643310546875,0.5400584936141968,0.6135354042053223,0.040131550282239914
1772537735364711200,6.104711181640625,0.5722816586494446,0.39401426911354065,-0.021664442494511604
1772537735374778000,6.114778076171875,0.5767735838890076,0.2429688721895218,-0.11216564476490021
1772537735384846000,6.12484619140625,0.5546586513519287,0.2042457014322281,-0.21146532893180847
1772537735394913800,6.134913818359375,0.5171189308166504,0.26946091651916504,-0.28584983944892883
1772537735404981000,6.14498095703125,0.4536520838737488,0.4193721115589142,-0.3132314085960388
1772537735415049000,6.155049072265625,0.3735371530056,0.6007660031318665,-0.297075480222702
1772537735425117000,6.165116943359375,0.2800101339817047,0.765921950340271,-0.24622748792171478
1772537735435184600,6.1751845703125,0.18677997589111328,0.8631165623664856,-0.1696273386478424
1772537735445252600,6.185252685546875,0.13247784972190857,0.8713670372962952,-0.08309058845043182
1772537735455320600,6.195320556640625,0.11721700429916382,0.7885064482688904,-0.019676001742482185
1772537735465388500,6.205388427734375,0.14820660650730133,0.6653488278388977,0.002285756403580308
1772537735475455500,6.21545556640625,0.2333516627550125,0.5857659578323364,-0.011999603360891342
1772537735485523700,6.225523681640625,0.3400951623916626,0.5650231242179871,-0.024425381794571877
1772537735495591700,6.235591796875,0.44805431365966797,0.5697343349456787,-0.002855525352060795
1772537735505658600,6.24565869140625,0.5211908221244812,0.5810237526893616,0.07417028397321701
1772537735515726600,6.2557265625,0.5305156111717224,0.5664052963256836,0.1944616138935089
1772537735525793500,6.26579345703125,0.5029683709144592,0.5403524041175842,0.3140101134777069
1772537735535861800,6.27586181640625,0.4472978711128235,0.5039275884628296,0.40373584628105164
1772537735545929700,6.2859296875,0.3845199644565582,0.4253467917442322,0.42677298188209534
1772537735555997700,6.295997802734375,0.32264193892478943,0.3562670648097992,0.3797908127307892
1772537735566064600,6.306064697265625,0.2714008688926697,0.304762065410614,0.25668007135391235
1772537735576132600,6.316132568359375,0.226205512881279,0.2800290584564209,0.0849040225148201
1772537735586200800,6.326200927734375,0.1933429092168808,0.29260343313217163,-0.09350673109292984
1772537735596267800,6.336267822265625,0.17029614746570587,0.31519103050231934,-0.24451826512813568
1772537735606335700,6.346335693359375,0.14244693517684937,0.316186785697937,-0.3488664925098419
1772537735616403500,6.356403564453125,0.10581925511360168,0.28314340114593506,-0.40612316131591797
1772537735626470700,6.366470703125,0.06920744478702545,0.2445206344127655,-0.4193819761276245
1772537735636538600,6.37653857421875,0.05093224346637726,0.2257053256034851,-0.3972472548484802
1772537735646606600,6.386606689453125,0.05351391062140465,0.24939334392547607,-0.35259854793548584
1772537735656673800,6.396673828125,0.08565730601549149,0.315476655960083,-0.2841838002204895
1772537735666741500,6.406741455078125,0.1530909389257431,0.4117225110530853,-0.20781420171260834
1772537735676809500,6.4168095703125,0.24137157201766968,0.5034974813461304,-0.1163395494222641
1772537735686876400,6.42687646484375,0.33494144678115845,0.5472105741500854,-0.021962182596325874
1772537735696944600,6.436944580078125,0.4022991955280304,0.5171120762825012,0.07040402293205261
1772537735707012600,6.4470126953125,0.44629594683647156,0.4567355811595917,0.13678225874900818
1772537735717079600,6.45707958984375,0.4710500240325928,0.3892173767089844,0.17405147850513458
1772537735727147500,6.4671474609375,0.4635004997253418,0.3241475522518158,0.19106242060661316
1772537735737215500,6.477215576171875,0.41409191489219666,0.24776676297187805,0.18548724055290222
1772537735747282700,6.48728271484375,0.32631492614746094,0.20290768146514893,0.15868999063968658
1772537735757350700,6.4973505859375,0.2463165819644928,0.2103566974401474,0.09771345555782318
1772537735767418600,6.507418701171875,0.1861315369606018,0.25782889127731323,0.005163813941180706
1772537735777485600,6.517485595703125,0.15413835644721985,0.32939690351486206,-0.09225542098283768
1772537735787553500,6.527553466796875,0.15973685681819916,0.3638179898262024,-0.18246227502822876
1772537735797621800,6.537621826171875,0.19584739208221436,0.3637339174747467,-0.24485348165035248
1772537735807688700,6.547688720703125,0.2465909868478775,0.3177536427974701,-0.2843625545501709
1772537735817756700,6.557756591796875,0.30011290311813354,0.25682321190834045,-0.30332356691360474
1772537735827824600,6.56782470703125,0.33701393008232117,0.17103374004364014,-0.2977519631385803
1772537735837891600,6.5778916015625,0.33179154992103577,0.07162632793188095,-0.26120930910110474
1772537735847959600,6.58795947265625,0.2841539978981018,0.00880635529756546,-0.21992337703704834
1772537735858027800,6.59802783203125,0.23611916601657867,0.013843445107340813,-0.19241774082183838
1772537735868094700,6.6080947265625,0.19075967371463776,0.07411450892686844,-0.19251655042171478
1772537735878162700,6.61816259765625,0.15884162485599518,0.1541985422372818,-0.22892683744430542
1772537735888230700,6.628230712890625,0.15559841692447662,0.2466275542974472,-0.2727981507778168
1772537735898297600,6.638297607421875,0.18490883708000183,0.33298853039741516,-0.3162201941013336
1772537735908365800,6.64836572265625,0.24770191311836243,0.39927223324775696,-0.3305322825908661
1772537735918433800,6.658433837890625,0.3023977279663086,0.4106716215610504,-0.30899956822395325
1772537735928500700,6.668500732421875,0.3547019362449646,0.3780287206172943,-0.2472778856754303
1772537735938568700,6.678568603515625,0.39877745509147644,0.30450332164764404,-0.15483534336090088
1772537735948636400,6.688636474609375,0.44180482625961304,0.20023338496685028,-0.04587903246283531
1772537735958703600,6.69870361328125,0.46431806683540344,0.11756347864866257,0.06241457909345627
1772537735968771600,6.708771484375,0.46391963958740234,0.08735204488039017,0.16217340528964996
1772537735978839600,6.718839599609375,0.4428218901157379,0.1091991662979126,0.23630258440971375
1772537735988906500,6.728906494140625,0.4037186801433563,0.15659330785274506,0.2892738878726959
1772537735998974500,6.738974365234375,0.35776498913764954,0.1948477327823639,0.3113645315170288
1772537736009042700,6.749042724609375,0.317303329706192,0.2245616763830185,0.31080207228660583
1772537736019109600,6.759109619140625,0.28352582454681396,0.2526797354221344,0.2909656763076782
1772537736029177600,6.769177490234375,0.25238120555877686,0.2797510325908661,0.26220619678497314
1772537736039245600,6.77924560546875,0.21711163222789764,0.24895913898944855,0.23320095241069794
1772537736049312500,6.7893125,0.1864469200372696,0.13579104840755463,0.1891149878501892
1772537736059380500,6.79938037109375,0.16590158641338348,-0.019458753988146782,0.13675177097320557
1772537736069448700,6.80944873046875,0.14388948678970337,-0.12443284690380096,0.07915344834327698
1772537736079515600,6.819515625,0.11535468697547913,-0.16943523287773132,0.036876142024993896
1772537736089583600,6.82958349609375,0.07984170317649841,-0.18790104985237122,0.005961635150015354
1772537736099651600,6.839651611328125,0.04740246385335922,-0.2045227736234665,-0.01801009476184845
1772537736109718500,6.849718505859375,0.026225270703434944,-0.26384231448173523,-0.04756292700767517
1772537736119786800,6.859786865234375,0.022607773542404175,-0.2630501091480255,-0.07537952065467834
1772537736129854700,6.869854736328125,0.043609995394945145,-0.202828049659729,-0.09270231425762177
1772537736139921700,6.879921630859375,0.08138083666563034,-0.09955259412527084,-0.08824272453784943
1772537736149989600,6.88998974609375,0.15273065865039825,0.004487516358494759,-0.04432107135653496
1772537736160057600,6.9000576171875,0.26093828678131104,0.08841674029827118,0.06622857600450516
1772537736170124500,6.91012451171875,0.3561049997806549,0.06430767476558685,0.1983245611190796
1772537736180192800,6.92019287109375,0.39980167150497437,-0.05050649493932724,0.31846484541893005
1772537736190260700,6.9302607421875,0.37847721576690674,-0.17068110406398773,0.42971813678741455
1772537736200327700,6.94032763671875,0.33256080746650696,-0.2722344398498535,0.5405300259590149
1772537736210395600,6.950395751953125,0.2872700095176697,-0.34885358810424805,0.6508554816246033
1772537736220463600,6.960463623046875,0.24826973676681519,-0.37777721881866455,0.7259957194328308
1772537736230530800,6.97053076171875,0.2221640944480896,-0.34337106347084045,0.7579631805419922
1772537736240598800,6.980598876953125,0.18572898209095,-0.2945571839809418,0.7461928725242615
1772537736250666500,6.99066650390625,0.11345399171113968,-0.24799662828445435,0.6776212453842163
1772537736260733700,7.000733642578125,0.02110987901687622,-0.20643003284931183,0.5576063394546509
1772537736270801700,7.0108017578125,-0.07283072918653488,-0.15062934160232544,0.4019179940223694
1772537736280869600,7.02086962890625,-0.12652960419654846,-0.07727885991334915,0.24515661597251892
1772537736290936800,7.030936767578125,-0.10914315283298492,0.030536558479070663,0.11812248826026917
1772537736301004500,7.041004638671875,-0.05214083939790726,0.12396180629730225,0.03531106188893318
1772537736311072500,7.051072509765625,0.01294415257871151,0.13009320199489594,-0.009782113134860992
1772537736321139500,7.061139404296875,0.07508515566587448,0.07224487513303757,-0.03429190069437027
1772537736331207400,7.07120751953125,0.13677966594696045,-0.0515684112906456,-0.04012715443968773
1772537736341275600,7.081275634765625,0.2023264467716217,-0.18810266256332397,-0.05662761628627777
1772537736351342600,7.091342529296875,0.2966529428958893,-0.3081590235233307,-0.10064434260129929
1772537736361410600,7.10141064453125,0.4003623425960541,-0.3802570402622223,-0.1612027883529663
1772537736371478500,7.111478515625,0.5038557052612305,-0.4035487771034241,-0.19660019874572754
1772537736381545500,7.12154541015625,0.5902025103569031,-0.4172433018684387,-0.17745797336101532
1772537736391613700,7.13161376953125,0.6479678153991699,-0.4129910469055176,-0.09283976256847382
1772537736401681700,7.141681640625,0.6894813179969788,-0.4090082347393036,0.035420969128608704
1772537736411748600,7.15174853515625,0.7021278142929077,-0.3616524338722229,0.1706661432981491
1772537736421816600,7.161816650390625,0.6917808055877686,-0.23841288685798645,0.25984498858451843
1772537736431884500,7.171884521484375,0.6775973439216614,-0.06684061139822006,0.30839282274246216
1772537736441951500,7.181951416015625,0.6633510589599609,0.09085337817668915,0.3210226893424988
1772537736452019700,7.192019775390625,0.6633946895599365,0.21685658395290375,0.3056384027004242
1772537736462087700,7.202087646484375,0.6500939130783081,0.37180015444755554,0.29037606716156006
1772537736472154600,7.212154541015625,0.6040957570075989,0.5301916599273682,0.27680137753486633
1772537736482222600,7.22222265625,0.5524440407752991,0.6453251838684082,0.24108973145484924
1772537736492290600,7.23229052734375,0.4883260428905487,0.7385686039924622,0.18550370633602142
1772537736502357500,7.242357421875,0.43836790323257446,0.8153292536735535,0.1263074278831482
1772537736512425700,7.25242578125,0.4221143424510956,0.8679754137992859,0.05985276773571968
1772537736522493700,7.26249365234375,0.43765658140182495,0.9189215302467346,0.011760853230953217
1772537736532561700,7.272561767578125,0.46369245648384094,0.9552475810050964,0.0005801040679216385
1772537736542628600,7.282628662109375,0.4818909466266632,0.9372465014457703,0.021333031356334686
1772537736552696800,7.29269677734375,0.5122820734977722,0.8187659382820129,0.020196925848722458
1772537736562764500,7.3027646484375,0.5346243977546692,0.6566650867462158,0.008590564131736755
1772537736572831700,7.312831787109375,0.5561211705207825,0.5489466190338135,0.00700971158221364
1772537736582899500,7.3228994140625,0.5880491137504578,0.5046843886375427,0.010266645811498165
1772537736592967400,7.332967529296875,0.6158954501152039,0.5090658068656921,0.008247969672083855
1772537736603034600,7.34303466796875,0.6275791525840759,0.5430450439453125,0.020698359236121178
1772537736613102600,7.3531025390625,0.6332396864891052,0.6031704545021057,0.037049368023872375
1772537736623170600,7.363170654296875,0.6237831711769104,0.6620401740074158,0.05973980575799942
1772537736633237500,7.373237548828125,0.6021808981895447,0.7121723294258118,0.09090891480445862
1772537736643305500,7.383305419921875,0.5799332857131958,0.7590987682342529,0.12569889426231384
1772537736653373400,7.39337353515625,0.5658044219017029,0.8061887621879578,0.16023263335227966
1772537736663440600,7.403440673828125,0.5623674988746643,0.8492116928100586,0.18306945264339447
1772537736673508600,7.413508544921875,0.5532591938972473,0.8609208464622498,0.19225549697875977
1772537736683576600,7.42357666015625,0.5428616404533386,0.851983368396759,0.1868661642074585
1772537736693643500,7.4336435546875,0.5238344073295593,0.8545650243759155,0.1795928031206131
1772537736703711500,7.44371142578125,0.4996323883533478,0.8977962136268616,0.18125513195991516
1772537736713779700,7.45377978515625,0.46927210688591003,0.9513667821884155,0.18996793031692505
1772537736723846700,7.4638466796875,0.4313175678253174,0.9844335913658142,0.18600739538669586
1772537736733914600,7.47391455078125,0.4086647033691406,1.016958236694336,0.18580232560634613
1772537736743982600,7.483982666015625,0.3999079763889313,1.0585813522338867,0.19032178819179535
1772537736754049500,7.494049560546875,0.3901677131652832,1.0917068719863892,0.20552337169647217
1772537736764117500,7.504117431640625,0.3834981322288513,1.1490225791931152,0.23766331374645233
1772537736774185700,7.514185791015625,0.38914191722869873,1.2117643356323242,0.2596493065357208
1772537736784252700,7.524252685546875,0.3993377983570099,1.2416132688522339,0.2443477362394333
1772537736794320600,7.534320556640625,0.40769079327583313,1.2196184396743774,0.2048647701740265
1772537736804388600,7.544388671875,0.44233110547065735,1.161564588546753,0.13165652751922607
1772537736814455600,7.55445556640625,0.4924408495426178,1.1323180198669434,0.07755467295646667
1772537736824523800,7.564523681640625,0.5303310751914978,1.069858193397522,0.06287447363138199
1772537736834591700,7.574591796875,0.5399312376976013,0.9658949971199036,0.0726352259516716
1772537736844658700,7.58465869140625,0.5401802062988281,0.822561502456665,0.09491071105003357
1772537736854726700,7.5947265625,0.5287864208221436,0.7162966132164001,0.11108782142400742
1772537736864794400,7.60479443359375,0.5186172127723694,0.6856374740600586,0.11604335159063339
1772537736874861600,7.614861572265625,0.5226497650146484,0.7415550947189331,0.1038316935300827
1772537736884929500,7.624929443359375,0.5225292444229126,0.8734434247016907,0.0913325622677803
1772537736894997500,7.63499755859375,0.5246115326881409,1.0294021368026733,0.08361978083848953
1772537736905064700,7.645064697265625,0.5368978977203369,1.178131103515625,0.10064415633678436
1772537736915132400,7.65513232421875,0.5512060523033142,1.2930786609649658,0.1441841721534729
1772537736925200600,7.66520068359375,0.5676621794700623,1.3602759838104248,0.19933240115642548
1772537736935267600,7.675267578125,0.6036854386329651,1.3650249242782593,0.23752452433109283
1772537736945335600,7.68533544921875,0.6510081887245178,1.3175981044769287,0.2616523802280426
1772537736955403500,7.695403564453125,0.7008926868438721,1.2468355894088745,0.2717718482017517
1772537736965470500,7.705470458984375,0.7380750775337219,1.1677381992340088,0.25153639912605286
1772537736975538400,7.715538330078125,0.7513900995254517,1.0983258485794067,0.2266201376914978
1772537736985606700,7.725606689453125,0.7551878690719604,1.0328506231307983,0.17531020939350128
1772537736995673600,7.735673583984375,0.7546936273574829,1.0085703134536743,0.11742586642503738
1772537737005741600,7.745741455078125,0.7695989012718201,1.012589931488037,0.04396738111972809
1772537737015809500,7.7558095703125,0.778789222240448,0.9862357974052429,-0.053408972918987274
1772537737025876500,7.76587646484375,0.7930657863616943,0.9576918482780457,-0.16658225655555725
1772537737035944700,7.77594482421875,0.8243557810783386,0.9407844543457031,-0.2927614748477936
1772537737046012700,7.7860126953125,0.8458710312843323,0.9830567836761475,-0.38723087310791016
1772537737056079600,7.79607958984375,0.8557273745536804,1.0621445178985596,-0.44527900218963623
1772537737066147600,7.806147705078125,0.8641594052314758,1.1362696886062622,-0.4632229208946228
1772537737076215600,7.816215576171875,0.8708865642547607,1.2134243249893188,-0.4565384089946747
1772537737086282500,7.826282470703125,0.8876376152038574,1.2491967678070068,-0.42340052127838135
1772537737096350700,7.836350830078125,0.9058808088302612,1.217795491218567,-0.3620663285255432
1772537737106418700,7.846418701171875,0.9156784415245056,1.13412606716156,-0.28591787815093994
1772537737116485600,7.856485595703125,0.9127039313316345,1.0913136005401611,-0.18103007972240448
1772537737126553600,7.8665537109375,0.9098677039146423,1.0809160470962524,-0.05510308966040611
1772537737136621600,7.87662158203125,0.9179732799530029,1.0692212581634521,0.055723559111356735
1772537737146688800,7.886688720703125,0.9383338689804077,1.0060194730758667,0.14066989719867706
1772537737156756700,7.8967568359375,0.9483534693717957,0.9137428402900696,0.18222959339618683
1772537737166824700,7.90682470703125,0.9653184413909912,0.7995120882987976,0.16517943143844604
1772537737176891600,7.9168916015625,0.9893830418586731,0.6786724925041199,0.11720365285873413
1772537737186959600,7.926959716796875,1.0180631875991821,0.622678279876709,0.06595232337713242
1772537737197027600,7.937027587890625,1.0597784519195557,0.6030505299568176,0.028037432581186295
1772537737207094800,7.9470947265625,1.0954400300979614,0.5612511038780212,0.003519317600876093
1772537737217162500,7.95716259765625,1.1085537672042847,0.5213899612426758,-0.005565257277339697
1772537737227230500,7.96723046875,1.1145247220993042,0.4877777695655823,0.009555361233651638
1772537737237297400,7.97729736328125,1.111549973487854,0.47792354226112366,0.049223680049180984
1772537737247365400,7.987365478515625,1.1042025089263916,0.5236657857894897,0.11597789824008942
1772537737257433600,7.99743359375,1.0944335460662842,0.579382061958313,0.20944365859031677
1772537737267500500,8.00750048828125,1.0755547285079956,0.5747624039649963,0.31086382269859314
1772537737277568500,8.017568603515626,1.042212963104248,0.4949927031993866,0.42113494873046875
1772537737287636500,8.027636474609375,0.9837417006492615,0.3827449083328247,0.5468475818634033
1772537737297703400,8.037703369140624,0.9160396456718445,0.25375816226005554,0.6473838090896606
1772537737307771600,8.047771728515626,0.871955931186676,0.12552084028720856,0.6961337327957153
1772537737317839600,8.057839599609375,0.8573927283287048,0.027053387835621834,0.706998884677887
1772537737327906600,8.067906494140624,0.8633984327316284,0.02999172732234001,0.701702892780304
1772537737337974500,8.077974609375,0.8639419674873352,0.16455858945846558,0.671425998210907
1772537737348042500,8.08804248046875,0.8729904890060425,0.36053434014320374,0.6174356341362
1772537737358109400,8.098109375,0.8931671380996704,0.53389972448349,0.5313279032707214
1772537737368177700,8.108177734375,0.8995423316955566,0.6470953822135925,0.42998987436294556
1772537737378245600,8.11824560546875,0.913257896900177,0.6181729435920715,0.302862286567688
1772537737388313600,8.128313720703124,0.9137077331542969,0.5219539403915405,0.13954190909862518
1772537737398380500,8.138380615234375,0.9279236793518066,0.41441842913627625,-0.0857764258980751
1772537737408448800,8.14844873046875,0.9699588418006897,0.38824403285980225,-0.3049995005130768
1772537737418516700,8.158516845703126,0.9864754676818848,0.5377757549285889,-0.4886002242565155
1772537737428583700,8.168583740234375,1.0003070831298828,0.7685702443122864,-0.6745124459266663
1772537737438651600,8.178651611328124,0.9883559942245483,0.9131620526313782,-0.8736615180969238
1772537737448719600,8.1887197265625,0.9272031188011169,0.8998547196388245,-1.0219120979309082
1772537737458786600,8.19878662109375,0.808476984500885,0.7911713719367981,-1.0455387830734253
1772537737468854500,8.2088544921875,0.6487113833427429,0.7042569518089294,-0.8990705609321594
1772537737478922500,8.218922607421876,0.4740237593650818,0.6572406888008118,-0.6264228224754333
1772537737488989700,8.22898974609375,0.29858630895614624,0.5907302498817444,-0.32702672481536865
1772537737499057400,8.239057373046874,0.19031894207000732,0.5178899168968201,-0.02826717495918274
1772537737509125400,8.24912548828125,0.14147786796092987,0.4810046851634979,0.21203601360321045
1772537737519192600,8.259192626953125,0.1416269987821579,0.4815002977848053,0.3581596612930298
1772537737529260300,8.26926025390625,0.16261284053325653,0.5225760340690613,0.424160897731781
1772537737539328500,8.27932861328125,0.18915630877017975,0.6039870381355286,0.4433564245700836
1772537737549395500,8.2893955078125,0.21551556885242462,0.6810871958732605,0.4272099733352661
1772537737559463400,8.29946337890625,0.23361334204673767,0.7275598645210266,0.37964990735054016
1772537737569531400,8.309531494140625,0.24530144035816193,0.7686167359352112,0.31908875703811646
1772537737579598300,8.319598388671874,0.2536701560020447,0.8102736473083496,0.26002225279808044
1772537737589666600,8.32966650390625,0.24755865335464478,0.8356906175613403,0.2233934998512268
1772537737599734500,8.339734619140625,0.22057870030403137,0.8325427770614624,0.20710773766040802
1772537737609801500,8.349801513671874,0.17788565158843994,0.790892481803894,0.20320184528827667
1772537737619869400,8.359869384765625,0.13122493028640747,0.7261752486228943,0.2001218944787979
1772537737629937400,8.3699375,0.0977337583899498,0.6655439734458923,0.18657733500003815
1772537737640004400,8.38000439453125,0.07405106723308563,0.6127933859825134,0.14167830348014832
1772537737650072600,8.390072509765625,0.0817839726805687,0.5844569802284241,0.07995375245809555
1772537737660140500,8.400140625,0.11407959461212158,0.5641599893569946,-0.009897304698824883
1772537737670207500,8.41020751953125,0.16782018542289734,0.5316351056098938,-0.1203363835811615
1772537737680275500,8.420275390625,0.23879262804985046,0.4707517623901367,-0.2539370357990265
1772537737690343700,8.43034375,0.32621344923973083,0.3962385952472687,-0.37607863545417786
1772537737700410600,8.44041064453125,0.4133065342903137,0.33096396923065186,-0.46263402700424194
1772537737710478600,8.450478515625,0.4654916226863861,0.26662787795066833,-0.4628390967845917
1772537737720546600,8.460546630859374,0.466730535030365,0.20934168994426727,-0.36813682317733765
1772537737730613500,8.470613525390625,0.4312937557697296,0.1849774420261383,-0.19977381825447083
1772537737740681500,8.480681396484375,0.3729356527328491,0.20787343382835388,0.019258122891187668
1772537737750749700,8.490749755859374,0.3078244924545288,0.2586233615875244,0.24424773454666138
1772537737760816600,8.500816650390625,0.2431536465883255,0.33038225769996643,0.42768439650535583
1772537737770884600,8.510884521484375,0.18720297515392303,0.444306343793869,0.5544086694717407
1772537737780952600,8.52095263671875,0.14283762872219086,0.5598180294036865,0.6246492862701416
1772537737791019500,8.53101953125,0.10368886590003967,0.6431142687797546,0.6475142240524292
1772537737801087700,8.541087646484375,0.05703561007976532,0.6693530678749084,0.633698582649231
1772537737811155500,8.551155517578126,0.014562530443072319,0.6477545499801636,0.5839248895645142
1772537737821222700,8.56122265625,-0.010324178263545036,0.6157598495483398,0.5082274675369263
1772537737831290400,8.571290283203124,-0.03317606449127197,0.5744099617004395,0.416775107383728
1772537737841358300,8.5813583984375,-0.05739698186516762,0.5261483788490295,0.33320218324661255
1772537737851425500,8.591425537109375,-0.07065960764884949,0.49732041358947754,0.2530556321144104
1772537737861493500,8.601493408203124,-0.07310279458761215,0.4647768437862396,0.16815991699695587
1772537737871561500,8.6115615234375,-0.06321121752262115,0.40328744053840637,0.07459358870983124
1772537737881628400,8.62162841796875,-0.02949932962656021,0.3172803819179535,0.005237681325525045
1772537737891696400,8.6316962890625,0.010640576481819153,0.21039755642414093,-0.049586519598960876
1772537737901764400,8.641764404296875,0.046709101647138596,0.10265883058309555,-0.09727521240711212
1772537737911831600,8.65183154296875,0.07350906729698181,0.018355775624513626,-0.14518211781978607
1772537737921899500,8.6618994140625,0.10363021492958069,-0.05534347891807556,-0.19413554668426514
1772537737931967500,8.671967529296875,0.1271444857120514,-0.1071893498301506,-0.24476595222949982
1772537737942034400,8.682034423828124,0.15180695056915283,-0.1538039892911911,-0.28478288650512695
1772537737952102400,8.692102294921876,0.17160548269748688,-0.19649134576320648,-0.3171105682849884
1772537737962170600,8.702170654296875,0.1885700821876526,-0.23079553246498108,-0.34868794679641724
1772537737972237600,8.712237548828124,0.19481457769870758,-0.218502476811409,-0.3511931896209717
1772537737982305500,8.722305419921875,0.18527646362781525,-0.12006431818008423,-0.30397161841392517
1772537737992373500,8.73237353515625,0.16666412353515625,0.025510992854833603,-0.21222983300685883
1772537738002440400,8.7424404296875,0.143930584192276,0.1641964465379715,-0.09096147119998932
1772537738012508400,8.75250830078125,0.12257138639688492,0.25961482524871826,0.044777724891901016
1772537738022576600,8.76257666015625,0.11151713132858276,0.3023516535758972,0.16694891452789307
1772537738032643600,8.7726435546875,0.1054418534040451,0.29731565713882446,0.26314976811408997
1772537738042711600,8.782711669921875,0.11650941520929337,0.2874467670917511,0.329946368932724
1772537738052779500,8.792779541015625,0.1258196234703064,0.2708422839641571,0.35792991518974304
1772537738062846500,8.802846435546876,0.1450178176164627,0.2554263174533844,0.34478428959846497
1772537738072914700,8.812914794921875,0.17558103799819946,0.2477041333913803,0.2867836058139801
1772537738082982700,8.822982666015625,0.2081989049911499,0.2584396004676819,0.2116299867630005
1772537738093049600,8.833049560546876,0.23699398338794708,0.3013540506362915,0.13344891369342804
1772537738103117600,8.84311767578125,0.2677138149738312,0.3338795006275177,0.048472508788108826
1772537738113185300,8.853185302734374,0.30142173171043396,0.349640816450119,-0.026776304468512535
1772537738123253500,8.86325341796875,0.34640464186668396,0.3456287682056427,-0.09636896848678589
1772537738133320400,8.873320556640625,0.3900689482688904,0.3317562937736511,-0.15490201115608215
1772537738143388400,8.883388427734374,0.4275393486022949,0.32056355476379395,-0.18062840402126312
1772537738153456400,8.893456298828125,0.44551125168800354,0.3149254322052002,-0.17245706915855408
1772537738163523300,8.9035234375,0.44563430547714233,0.3101133704185486,-0.14949102699756622
1772537738173591600,8.913591552734376,0.440095454454422,0.2956666052341461,-0.12300431728363037
1772537738183659500,8.923659423828125,0.4500383734703064,0.2754705250263214,-0.09342937916517258
1772537738193726500,8.9337265625,0.46941182017326355,0.2513110041618347,-0.07067032903432846
1772537738203794400,8.94379443359375,0.4846581518650055,0.22026653587818146,-0.05253500118851662
1772537738213862400,8.9538623046875,0.4957435429096222,0.19939124584197998,-0.041034020483493805
1772537738223929300,8.963929443359374,0.4871380627155304,0.19541487097740173,-0.02620048075914383
1772537738233997600,8.97399755859375,0.4606938064098358,0.2153933197259903,-0.013739531859755516
1772537738244065500,8.9840654296875,0.42727699875831604,0.23078985512256622,-0.016988588497042656
1772537738254132500,8.994132568359374,0.3966405391693115,0.24070338904857635,-0.03382664546370506
1772537738264200400,9.004200439453125,0.36803632974624634,0.2683999836444855,-0.054724473506212234
1772537738274268400,9.014268310546875,0.3575538992881775,0.3181728422641754,-0.06020824983716011
1772537738284335600,9.024335693359374,0.3498813211917877,0.3747362494468689,-0.0495779775083065
1772537738294403600,9.034403564453125,0.34166890382766724,0.4144444763660431,-0.017971234396100044
1772537738304471600,9.044471435546875,0.3220275640487671,0.4015776813030243,0.020401453599333763
1772537738314538500,9.05453857421875,0.2972899377346039,0.3712009787559509,0.059585362672805786
1772537738324606500,9.0646064453125,0.2875339984893799,0.36755430698394775,0.08988414704799652
1772537738334674700,9.0746748046875,0.29437699913978577,0.3823949694633484,0.10779022425413132
1772537738344741600,9.08474169921875,0.31751081347465515,0.4231879413127899,0.12483818084001541
1772537738354809600,9.0948095703125,0.3359958529472351,0.4563092291355133,0.1262122094631195
1772537738364877600,9.104877685546874,0.36952584981918335,0.4809165596961975,0.10208849608898163
1772537738374944500,9.114944580078125,0.4136854112148285,0.5156193971633911,0.07465444505214691
1772537738385012500,9.125012451171875,0.45754343271255493,0.5767890214920044,0.06695470958948135
1772537738395080400,9.13508056640625,0.47995734214782715,0.6520326137542725,0.07175194472074509
1772537738405147600,9.145147705078125,0.4829619228839874,0.7165775299072266,0.09917877614498138
1772537738415215600,9.155215576171875,0.47396594285964966,0.7724578380584717,0.15549162030220032
1772537738425283300,9.165283447265624,0.47596946358680725,0.811295211315155,0.2222091257572174
1772537738435350500,9.1753505859375,0.5000321865081787,0.8092184662818909,0.2821563482284546
1772537738445418500,9.18541845703125,0.5476114153862,0.7460794448852539,0.31356140971183777
1772537738455486500,9.195486572265626,0.599906861782074,0.6283715963363647,0.3150058388710022
1772537738465553400,9.205553466796875,0.6505138278007507,0.5090550780296326,0.295147180557251
1772537738475621400,9.215621337890624,0.6816620230674744,0.41974401473999023,0.2626975178718567
1772537738485689300,9.225689453125,0.6907436847686768,0.36913225054740906,0.2181481420993805
1772537738495756300,9.23575634765625,0.691969096660614,0.34172582626342773,0.1843290477991104
1772537738505824500,9.245824462890624,0.680393397808075,0.35023197531700134,0.15760768949985504
1772537738515892500,9.255892578125,0.661052942276001,0.40269818902015686,0.14741817116737366
1772537738525959400,9.26595947265625,0.6189451813697815,0.49907025694847107,0.1377144157886505
1772537738536027400,9.27602734375,0.5632697343826294,0.6104497909545898,0.14314259588718414
1772537738546095600,9.286095703125,0.500379741191864,0.7333365678787231,0.1639682501554489
1772537738556162600,9.29616259765625,0.44239819049835205,0.8388482928276062,0.20995092391967773
1772537738566230500,9.30623046875,0.4130392372608185,0.9057192206382751,0.26008838415145874
1772537738576298500,9.316298583984375,0.41421833634376526,0.9001802206039429,0.305673211812973
1772537738586365400,9.326365478515624,0.4447866380214691,0.8440234661102295,0.32265645265579224
1772537738596433400,9.336433349609376,0.49969443678855896,0.7828142046928406,0.30200710892677307
1772537738606501600,9.346501708984375,0.5718506574630737,0.7578161954879761,0.2512485980987549
1772537738616568600,9.356568603515624,0.6498850584030151,0.7833917140960693,0.198719784617424
1772537738626636500,9.366636474609376,0.7128422260284424,0.8141184449195862,0.14885954558849335
1772537738636704500,9.37670458984375,0.7608429789543152,0.8120321035385132,0.1193099319934845
1772537738646771500,9.386771484375,0.7866434454917908,0.7789961099624634,0.12979665398597717
1772537738656839700,9.396839599609375,0.7867750525474548,0.738505482673645,0.17237672209739685
1772537738666907600,9.40690771484375,0.7688077688217163,0.6972392797470093,0.20845775306224823
1772537738676974600,9.416974609375,0.7526791095733643,0.6907891035079956,0.23088397085666656
1772537738687042600,9.42704248046875,0.7496803998947144,0.6986925601959229,0.21989309787750244
1772537738697110500,9.437110595703125,0.7621215581893921,0.704752504825592,0.1777355968952179
1772537738707178500,9.447178466796874,0.780799388885498,0.7159479260444641,0.11670900136232376
1772537738717245700,9.45724560546875,0.8008533120155334,0.7472373247146606,0.056623417884111404
1772537738727313400,9.4673134765625,0.818665623664856,0.7913587093353271,-0.0015935479896143079
1772537738737381400,9.47738134765625,0.8336275219917297,0.8428649306297302,-0.03704097867012024
1772537738747448300,9.4874482421875,0.8485151529312134,0.8722872734069824,-0.0475761778652668
1772537738757516500,9.4975166015625,0.8448043465614319,0.8501604199409485,-0.031988658010959625
1772537738767584500,9.50758447265625,0.8441124558448792,0.8066369295120239,0.01268746703863144
1772537738777651500,9.5176513671875,0.8360481858253479,0.7676348686218262,0.06770210713148117
1772537738787719400,9.527719482421874,0.8326875567436218,0.7350817322731018,0.10978564620018005
1772537738797787400,9.537787353515625,0.8369906544685364,0.737826406955719,0.1388024538755417
1772537738807854300,9.547854248046875,0.845761775970459,0.771075963973999,0.16454297304153442
1772537738817922600,9.557922607421874,0.8524931073188782,0.7900248765945435,0.1925552487373352
1772537738827990500,9.567990478515625,0.8540891408920288,0.7652561664581299,0.20259617269039154
1772537738838057500,9.578057373046875,0.8575313091278076,0.7416163682937622,0.1821095198392868
1772537738848125400,9.58812548828125,0.8652206659317017,0.7700408101081848,0.14892813563346863
1772537738858193400,9.598193359375,0.8654797673225403,0.8104561567306519,0.11988769471645355
1772537738868260600,9.608260498046874,0.8518097996711731,0.8192158341407776,0.0958784967660904
1772537738878328600,9.61832861328125,0.8092219233512878,0.7980448007583618,0.08743163198232651
1772537738888396500,9.628396484375,0.7610626816749573,0.7912617325782776,0.057986125349998474
1772537738898463500,9.63846337890625,0.7242229580879211,0.8505038619041443,0.03658335283398628
1772537738908531500,9.648531494140625,0.6859578490257263,0.9142484664916992,0.03908432647585869
1772537738918599700,9.658599609375,0.6550756692886353,0.929644763469696,0.04606317728757858
1772537738928666600,9.66866650390625,0.6510268449783325,0.9003268480300903,0.06103307381272316
1772537738938734600,9.678734619140625,0.6667823791503906,0.8699514269828796,0.07157577574253082
1772537738948802600,9.688802490234375,0.6988281607627869,0.8540331721305847,0.07750770449638367
1772537738958869500,9.698869384765626,0.7355204820632935,0.829762876033783,0.08862447738647461
1772537738968937500,9.7089375,0.7671362161636353,0.7775912880897522,0.1046103686094284
1772537738979005700,9.719005615234375,0.7879136800765991,0.7123258113861084,0.11093772947788239
1772537738989072600,9.72907275390625,0.7958312630653381,0.6844776272773743,0.11086422950029373
1772537738999140600,9.739140625,0.7862797379493713,0.6989264488220215,0.11439080536365509
1772537739009208300,9.749208251953124,0.7601184248924255,0.7191017866134644,0.11775757372379303
1772537739019275500,9.759275634765626,0.7308640480041504,0.7120647430419922,0.11752791702747345
1772537739029343500,9.769343505859375,0.7091289162635803,0.6952527165412903,0.11593960970640182
1772537739039411500,9.779411376953124,0.6927768588066101,0.6875929832458496,0.11076490581035614
1772537739049478700,9.789478759765625,0.6910050511360168,0.6857092976570129,0.10473097860813141
1772537739059546400,9.79954638671875,0.7006565928459167,0.6842008233070374,0.10012958198785782
1772537739069614300,9.8096142578125,0.7092543244361877,0.6694713830947876,0.10265772044658661
1772537739079681300,9.819681396484375,0.7072605490684509,0.652137279510498,0.11193931102752686
1772537739089749500,9.82974951171875,0.6962941884994507,0.6592287421226501,0.13460761308670044
1772537739099817500,9.8398173828125,0.6694032549858093,0.6899446249008179,0.16002531349658966
1772537739109884400,9.849884521484375,0.6373564004898071,0.7263156771659851,0.18225790560245514
1772537739119952400,9.859952392578125,0.5972017049789429,0.7732213735580444,0.20523476600646973
1772537739130020600,9.8700205078125,0.5514408946037292,0.8079806566238403,0.2166232317686081
1772537739140087600,9.880087646484375,0.5172017812728882,0.8156663775444031,0.21809890866279602
1772537739150155500,9.890155517578124,0.4967782497406006,0.7984269261360168,0.21408766508102417
1772537739160223500,9.900223388671876,0.4945034980773926,0.762342095375061,0.19229109585285187
1772537739170290400,9.91029052734375,0.5031906962394714,0.7315775752067566,0.1602788269519806
1772537739180358400,9.9203583984375,0.5017046928405762,0.7146941423416138,0.13805682957172394
1772537739190426600,9.930426513671875,0.4893686771392822,0.7227608561515808,0.12113802134990692
1772537739200494600,9.94049462890625,0.47114676237106323,0.7444567680358887,0.12242621183395386
1772537739210561500,9.9505615234375,0.45363089442253113,0.7601137161254883,0.12357083708047867
1772537739220629500,9.96062939453125,0.4367745518684387,0.7658787369728088,0.14321091771125793
1772537739230696400,9.970696533203125,0.43523257970809937,0.7656009793281555,0.17729777097702026
1772537739240764700,9.9807646484375,0.42715251445770264,0.7543495297431946,0.21170061826705933
1772537739250832600,9.99083251953125,0.4263354539871216,0.7413005828857422,0.24043425917625427
1772537739260900600,10.000900634765625,0.43635496497154236,0.7239344716072083,0.2535736560821533
1772537739270967600,10.010967529296876,0.44746434688568115,0.6965760588645935,0.24529467523097992
1772537739281035500,10.021035400390625,0.46664202213287354,0.6651960611343384,0.22571112215518951
1772537739291103500,10.031103515625,0.4852551221847534,0.6307224631309509,0.20654700696468353
1772537739301170700,10.041170654296875,0.4983678162097931,0.5812721848487854,0.18625235557556152
1772537739311238400,10.05123828125,0.5061226487159729,0.5207047462463379,0.18020963668823242
1772537739321306400,10.061306396484374,0.49644652009010315,0.46622541546821594,0.1875072717666626
1772537739331373600,10.07137353515625,0.4811067283153534,0.4204254448413849,0.1993063986301422
1772537739341441300,10.081441162109375,0.4788043200969696,0.3996272087097168,0.2076013684272766
1772537739351509500,10.091509521484374,0.47432541847229004,0.3807600438594818,0.21473757922649384
1772537739361576400,10.101576416015625,0.46569210290908813,0.35489463806152344,0.20782917737960815
1772537739371644400,10.11164453125,0.45407646894454956,0.3283810019493103,0.20006819069385529
1772537739381712400,10.12171240234375,0.44172751903533936,0.29878726601600647,0.17859597504138947
1772537739391779300,10.131779296875,0.4242340326309204,0.2523784935474396,0.14019985496997833
1772537739401847600,10.14184765625,0.3999456465244293,0.21528016030788422,0.09410989284515381
1772537739411915500,10.15191552734375,0.36440256237983704,0.20169511437416077,0.04561079666018486
1772537739421982500,10.161982421875,0.31993597745895386,0.2099563479423523,-0.006518807262182236
1772537739432050400,10.172050537109374,0.2623557448387146,0.2480480819940567,-0.052910808473825455
1772537739442118100,10.1821181640625,0.19853369891643524,0.2964593470096588,-0.07346098870038986
1772537739452185000,10.19218505859375,0.13632091879844666,0.34832707047462463,-0.07827891409397125
1772537739462253300,10.20225341796875,0.09303700178861618,0.41211771965026855,-0.05649047717452049
1772537739472321300,10.2123212890625,0.07295437157154083,0.45954009890556335,-0.02446916326880455
1772537739482388200,10.22238818359375,0.07136282324790955,0.48670291900634766,0.014209883287549019
1772537739492456200,10.232456298828126,0.08556945621967316,0.47829610109329224,0.0634104534983635
1772537739502524200,10.242524169921875,0.11021733283996582,0.4291909337043762,0.11451023072004318
1772537739512591000,10.252591064453124,0.15465882420539856,0.3623889982700348,0.16199518740177155
1772537739522659300,10.262659423828126,0.20485089719295502,0.2923967242240906,0.20693475008010864
1772537739532727300,10.272727294921875,0.2399337738752365,0.23538482189178467,0.2425966113805771
1772537739542794200,10.282794189453124,0.24885953962802887,0.2168269008398056,0.2713527977466583
1772537739552862200,10.2928623046875,0.23644202947616577,0.21505403518676758,0.2981039881706238
1772537739562930200,10.30293017578125,0.20892955362796783,0.22564183175563812,0.32895028591156006
1772537739572997400,10.312997314453124,0.16799010336399078,0.2423419952392578,0.35648655891418457
1772537739583065300,10.3230654296875,0.12537719309329987,0.2632904648780823,0.35564056038856506
1772537739593133300,10.33313330078125,0.09318304061889648,0.3135336637496948,0.3283919095993042
1772537739603200300,10.3432001953125,0.06432855129241943,0.3740956485271454,0.28154197335243225
1772537739613268200,10.353268310546875,0.02998202294111252,0.4147530496120453,0.2148127257823944
1772537739623336200,10.363336181640625,-0.0023462437093257904,0.4382840692996979,0.15150639414787292
1772537739633403400,10.3734033203125,-0.014521150849759579,0.44406524300575256,0.10235695540904999
1772537739643471400,10.383471435546875,-0.020697638392448425,0.4264052212238312,0.0650513768196106
1772537739653539000,10.3935390625,-0.02523033879697323,0.3976515829563141,0.04309973865747452
1772537739663606300,10.403606201171876,-0.01991957239806652,0.3765455186367035,0.032179441303014755
1772537739673674000,10.413674072265625,-0.013970869593322277,0.34542059898376465,0.026532739400863647
1772537739683742200,10.4237421875,0.0012929789954796433,0.29654261469841003,0.01916826143860817
1772537739693810200,10.43381005859375,0.028425265103578568,0.2572686970233917,0.005440731067210436
1772537739703877000,10.443877197265625,0.06927771121263504,0.24332647025585175,-0.018338562920689583
1772537739713945000,10.453945068359374,0.11704123765230179,0.24478189647197723,-0.05917973443865776
1772537739724013300,10.464013427734375,0.17882777750492096,0.28544917702674866,-0.10800372064113617
1772537739734080300,10.474080322265625,0.2346593588590622,0.33979976177215576,-0.14061732590198517
1772537739744148200,10.484148193359376,0.292373925447464,0.36973780393600464,-0.1674632728099823
1772537739754216200,10.49421630859375,0.3488803505897522,0.38758233189582825,-0.1681050956249237
1772537739764283100,10.504283203125,0.3872140347957611,0.39617443084716797,-0.13181239366531372
1772537739774351000,10.51435107421875,0.4156898856163025,0.4073415994644165,-0.07241831719875336
1772537739784419300,10.52441943359375,0.42577770352363586,0.4228595793247223,0.006709113717079163
1772537739794486300,10.534486328125,0.4379712641239166,0.4509899914264679,0.09018989652395248
1772537739804554200,10.54455419921875,0.45056334137916565,0.46863821148872375,0.1591910570859909
1772537739814622200,10.554622314453125,0.4667971730232239,0.46921852231025696,0.19639621675014496
1772537739824689200,10.564689208984374,0.47830748558044434,0.4702626168727875,0.19797393679618835
1772537739834757400,10.57475732421875,0.4872317612171173,0.5022122859954834,0.1756284236907959
1772537739844825300,10.584825439453125,0.49307435750961304,0.5303609371185303,0.1445935219526291
1772537739854892300,10.594892333984374,0.4976470172405243,0.5242178440093994,0.1127367913722992
1772537739864960300,10.604960205078125,0.49630093574523926,0.48564738035202026,0.08098051697015762
1772537739875028200,10.6150283203125,0.4982876479625702,0.44188445806503296,0.041411273181438446
1772537739885095200,10.62509521484375,0.5024059414863586,0.4136506915092468,-0.004555420950055122
1772537739895163400,10.635163330078125,0.5038328766822815,0.39581921696662903,-0.04895564168691635
1772537739905231400,10.6452314453125,0.503489077091217,0.3643273711204529,-0.09099611639976501
1772537739915298300,10.65529833984375,0.4988964796066284,0.305660605430603,-0.13802248239517212
1772537739925366300,10.6653662109375,0.5031879544258118,0.25833821296691895,-0.18084663152694702
1772537739935434000,10.67543408203125,0.4984845817089081,0.22585377097129822,-0.21981240808963776
1772537739945501400,10.68550146484375,0.48332300782203674,0.19595451653003693,-0.25025835633277893
1772537739955569200,10.695569091796875,0.45469534397125244,0.20209842920303345,-0.25110018253326416
1772537739965637000,10.70563720703125,0.41177767515182495,0.24866962432861328,-0.22324582934379578
1772537739975704300,10.715704345703125,0.36409565806388855,0.30301037430763245,-0.1749912053346634
1772537739985772000,10.72577197265625,0.32879552245140076,0.35372260212898254,-0.1274024397134781
1772537739995840300,10.73584033203125,0.30571499466896057,0.39417362213134766,-0.08665047585964203
1772537740005907200,10.7459072265625,0.29351407289505005,0.43154022097587585,-0.06058669835329056
1772537740015975200,10.75597509765625,0.29732316732406616,0.4538593888282776,-0.04026065394282341
1772537740026043100,10.766043212890626,0.3083299398422241,0.4543408453464508,-0.04449549689888954
1772537740036110000,10.776110107421875,0.3277430534362793,0.4364556074142456,-0.05773220583796501
1772537740046178000,10.786177978515624,0.34955406188964844,0.4060952067375183,-0.07886044681072235
1772537740056246300,10.796246337890626,0.3716351389884949,0.3613402545452118,-0.09183350950479507
1772537740066313200,10.806313232421875,0.3804558217525482,0.32991844415664673,-0.09304505586624146
1772537740076381200,10.816381103515624,0.38269713521003723,0.32338064908981323,-0.09193132817745209
1772537740086449200,10.82644921875,0.37258151173591614,0.35867011547088623,-0.07981941103935242
1772537740096516000,10.83651611328125,0.34626469016075134,0.41279512643814087,-0.05556919798254967
1772537740106584300,10.846584228515624,0.3038589060306549,0.47377726435661316,-0.016374656930565834
1772537740116652300,10.85665234375,0.2746288478374481,0.5167196393013,0.023033201694488525
1772537740126719200,10.86671923828125,0.25819146633148193,0.5469136834144592,0.057398345321416855
1772537740136787200,10.876787109375,0.25604575872421265,0.56532222032547,0.07738643139600754
1772537740146855200,10.886855224609375,0.2673552334308624,0.5616790652275085,0.09245356172323227
1772537740156923400,10.89692333984375,0.28157225251197815,0.5430744886398315,0.0955180674791336
1772537740166990300,10.906990234375,0.29916292428970337,0.5301339626312256,0.08249454945325851
1772537740177058300,10.917058349609375,0.3320726752281189,0.5349444150924683,0.05473003163933754
1772537740187126300,10.927126220703125,0.3593137860298157,0.5296880006790161,0.03515924513339996
1772537740197193200,10.937193115234376,0.3696276843547821,0.5165013670921326,0.029162073507905006
1772537740207261400,10.947261474609375,0.3646157383918762,0.521956205368042,0.045726530253887177
1772537740217329200,10.9573291015625,0.3455014228820801,0.5552316308021545,0.08213780075311661
1772537740227396400,10.967396240234375,0.3187859356403351,0.600538969039917,0.11484654992818832
1772537740237464000,10.977464111328125,0.30910852551460266,0.6722397804260254,0.14193008840084076
1772537740247532000,10.987531982421874,0.3020479381084442,0.7393630743026733,0.17015402019023895
1772537740257599200,10.99759912109375,0.3003336489200592,0.8065482378005981,0.18976953625679016
1772537740267667200,11.007667236328125,0.3103580176830292,0.8431382179260254,0.18583160638809204
1772537740277735200,11.017735107421874,0.33293789625167847,0.8525298237800598,0.16289833188056946
1772537740287802000,11.027802001953125,0.37798893451690674,0.8405647277832031,0.12980398535728455
1772537740297870000,11.0378701171875,0.4255199730396271,0.8150207996368408,0.09617385268211365
1772537740307938000,11.04793798828125,0.46879276633262634,0.7656683325767517,0.05154792219400406
1772537740318005200,11.058005126953125,0.5115721821784973,0.6929874420166016,-0.009988409467041492
1772537740328073200,11.0680732421875,0.5288697481155396,0.6370172500610352,-0.09401686489582062
1772537740338141200,11.07814111328125,0.5382528901100159,0.606032133102417,-0.158193439245224
1772537740348208000,11.0882080078125,0.5074577331542969,0.6498774886131287,-0.1147400438785553
1772537740358276000,11.098276123046874,0.44420790672302246,0.5437254905700684,-0.048107221722602844
1772537740368344300,11.10834423828125,0.4139348864555359,0.45386242866516113,0.0781303122639656
1772537740378411300,11.118411376953125,0.39962998032569885,0.4328274428844452,0.21877077221870422
1772537740388479200,11.128479248046874,0.3790152072906494,0.4149981439113617,0.3370251953601837
1772537740398547200,11.138547119140625,0.3557676672935486,0.3910139799118042,0.41038888692855835
1772537740408614100,11.1486142578125,0.33868587017059326,0.40937086939811707,0.43424370884895325
1772537740418682000,11.15868212890625,0.33571189641952515,0.42289307713508606,0.4175534248352051
1772537740428750300,11.168750244140625,0.37374526262283325,0.45698121190071106,0.37109899520874023
1772537740438817000,11.178817138671874,0.40800416469573975,0.5417714715003967,0.34371477365493774
1772537740448885200,11.18888525390625,0.43210798501968384,0.5185681581497192,0.3028682470321655
