time,seconds_elapsed,z,y,x
1772614981599489300,0.0754892578125,0.11515958009660243,-0.023030162453651425,-0.0491327637557406
1772614981609557200,0.08555712890625,0.027994214601814744,0.0035778584867715833,-0.06849805159287062
1772614981619625200,0.095625244140625,-0.046238604083657264,0.03996493064165115,-0.03970886895477306
1772614981629692200,0.105692138671875,-0.09543898058235645,0.07502689167261123,0.0006107751423725858
1772614981639760100,0.115760009765625,-0.12043956632614135,0.08423603404462338,-0.0008252033443422988
1772614981649827300,0.125827392578125,-0.1388935069054365,0.06602350100576877,-0.035370122797833754
1772614981659895300,0.135895263671875,-0.14509440737217663,0.06823299374878405,-0.02957417270306032
1772614981669963000,0.145962890625,-0.09658288992047309,0.056872226300835604,-0.013004520633560605
1772614981680030200,0.1560302734375,-0.06387742888778447,0.04448796102404594,-0.03740396214642096
1772614981690098200,0.16609814453125,-0.016965017195791004,0.021366028633713723,-0.08647959345402195
1772614981700165400,0.176165283203125,0.02871639139652252,-0.03874386441409588,-0.16683193619940428
1772614981710233000,0.186233154296875,0.047781741872429846,-0.02941781766414642,-0.1679074564764276
1772614981720301000,0.196301025390625,0.06689326957762241,-0.008199673068523407,-0.15482925411872564
1772614981730368300,0.2063681640625,0.06730944916307925,-0.01791442687511444,-0.10942691819611935
1772614981740436000,0.21643603515625,0.05899228719472885,-0.004340659552812576,-0.04390368572953157
1772614981750503200,0.226503173828125,0.050437224817276,0.02538227853775024,0.0008541006452636793
1772614981760571100,0.236571044921875,0.04125394753888249,0.035063130074739456,-0.008011466153198853
1772614981770639000,0.24663916015625,0.049445583431422704,0.010357143363356589,-0.046917896151286546
1772614981780706000,0.2567060546875,0.037273499600589274,0.01011748938858509,-0.07139941275729797
1772614981790774000,0.26677392578125,0.014760931280255317,0.029107436540722845,-0.040689751484594305
1772614981800841200,0.27684130859375,0.001645575249940157,0.026892683100700376,-0.026394871380086986
1772614981810909200,0.2869091796875,-0.0042768005363643165,0.031444939577579496,-0.017692504919855856
1772614981820977200,0.29697705078125,0.0003758475750684738,0.006601590222120285,-0.03729681654409505
1772614981831044000,0.307044189453125,0.0026280104160308834,0.0022165070056915284,-0.04997725632244255
1772614981841112000,0.317112060546875,-0.001055354271829128,0.03320785759687424,-0.012193788772565313
1772614981851179000,0.327178955078125,0.004880319387465715,0.0235977332085371,-0.001986136882496066
1772614981861247000,0.3372470703125,0.03373173534050584,0.003734510353207588,-0.04180850354856811
1772614981871315200,0.347315185546875,0.050114568734169,-0.018135376149415967,-0.08617692984617314
1772614981881382100,0.357382080078125,0.038140053302049635,-0.003065232789516449,-0.10121645887210033
1772614981891450000,0.3674501953125,0.020079495954513547,-0.0020750527083873748,-0.09927119742268696
1772614981901517000,0.37751708984375,0.008520137194544076,0.008211363506317139,-0.08062387142945081
1772614981911585000,0.3875849609375,0.0016731939092278479,0.005087678527832031,-0.02144870651506353
1772614981921653200,0.3976533203125,0.02180091291964054,0.010783844342827796,0.023129037984553725
1772614981931720200,0.40772021484375,0.017854221120476722,-0.007539163333177566,-0.033256235916400326
1772614981941788200,0.4177880859375,0.04155746053010225,-0.025929391026496884,-0.12478403440439141
1772614981951855000,0.427855224609375,0.04783434884250164,-0.04227963732481003,-0.1366594642430544
1772614981961923000,0.437923095703125,0.06411869029775262,-0.04103577474355698,-0.11081296572703868
1772614981971991000,0.447990966796875,0.060690469414740794,-0.013720482316613197,-0.09075769089832901
1772614981982058200,0.458058349609375,0.04007949693202972,0.010262450817227363,-0.02808020325168036
1772614981992126200,0.468126220703125,-0.00473521182835102,0.03655307637155056,0.006359589026635512
1772614982002193200,0.478193115234375,-0.05070552036464214,0.050213937455415726,-0.01829307376204524
1772614982012261000,0.48826123046875,-0.07557225059568881,0.04901040688455104,-0.04229344208787661
1772614982022329000,0.4983291015625,-0.054848026996850964,0.052370238706469535,-0.035554361357516606
1772614982032396000,0.50839599609375,-0.056928340402245516,0.057796939930319785,-0.031385345744295044
1772614982042464300,0.51846435546875,0.008019055804610252,0.031878070297837256,-0.06448669705966022
1772614982052531200,0.52853125,0.06874328135848044,0.0031751229047775266,-0.11293185757715254
1772614982062599200,0.53859912109375,0.10608312419354915,0.010526654711365699,-0.07304338513861876
1772614982072667100,0.548667236328125,0.09608779987990855,0.03485036410689354,-0.033705797181650995
1772614982082734000,0.558734130859375,0.07814999212920665,0.03258241917490959,-0.060395737951598125
1772614982092802300,0.56880224609375,0.06166413675248623,0.047314708882570264,-0.06082337964598555
1772614982102869200,0.578869140625,0.05088555310666561,0.060359483894705766,-0.04357628040607087
1772614982112937200,0.588937255859375,0.036117607563734055,0.04327975427806377,-0.04110638316120021
1772614982123005200,0.599005126953125,0.017006079858541488,0.039704818400740624,-0.02216929642417235
1772614982133072100,0.609072021484375,0.01267857204824686,0.03755319332480431,-0.03794034317859914
1772614982143140000,0.61914013671875,-0.004910276134312152,0.03758768011629581,-0.09492505797715857
1772614982153207000,0.62920703125,-0.01812485475540161,0.036486440876126285,-0.08721938810381107
1772614982163275300,0.639275146484375,-0.005109159707278013,0.03231237006187439,-0.02077297181112226
1772614982173343200,0.64934326171875,0.024642273825407027,0.040459436160326004,0.033068510774977036
1772614982183410200,0.65941015625,0.026179712525755166,0.021401099947094916,0.059200751446792856
1772614982193478100,0.66947802734375,0.004652355850487947,-0.007115384963154793,0.021754959452641196
1772614982203545000,0.679545166015625,-0.023088906903564927,-0.03755962306559086,-0.05291408152589574
1772614982213613300,0.68961328125,-0.056929217185080046,-0.04490063347816467,-0.11753608170328661
1772614982223681300,0.699681396484375,-0.06356675550341606,-0.039859716701507564,-0.17291912889229133
1772614982233748200,0.709748291015625,-0.0700046795964241,-0.030764556097984314,-0.16989168909620492
1772614982243816200,0.719816162109375,-0.07133841241821647,0.006792728880047798,-0.11574191916235722
1772614982253883100,0.729883056640625,-0.029188977344334125,0.02558276954591274,-0.045900791530613785
1772614982263951000,0.739951171875,0.005201806426793337,0.04066343429982662,-0.013019147380534559
1772614982274019300,0.750019287109375,0.032156448847800494,0.03433656936585903,0.020156604894890913
1772614982284086300,0.760086181640625,0.05146598334312439,0.020161913540959357,0.021536756974563465
1772614982294154200,0.770154296875,0.0674643474638462,-0.004589665877819061,-0.013349952520767691
1772614982304221200,0.78022119140625,0.08224646766260266,-0.018899346259236335,-0.02875404054276878
1772614982314289200,0.7902890625,0.06657558193057775,-0.032815643408894535,-0.0636915189608233
1772614982324357400,0.800357421875,0.05905307747125625,-0.033389643904566765,-0.07232869296404533
1772614982334424300,0.81042431640625,0.04780804535746574,-0.011146247914433478,-0.0380752056216239
1772614982344492300,0.8204921875,0.028992870250344274,-0.01068739823102951,0.017597063455055465
1772614982354559200,0.830559326171875,0.008804653224349021,-0.031281273448467255,-0.042700118626048784
1772614982364627200,0.840627197265625,-0.022646716094017028,-0.04195931932926178,-0.11670412439117207
1772614982374694100,0.850694091796875,-0.06501315491944551,-0.04879588735103607,-0.09312943413150496
1772614982384762400,0.860762451171875,-0.11247399427443742,-0.03720014210343361,-0.07077254956322722
1772614982394830300,0.870830322265625,-0.12612901013940572,0.020661679756641387,-0.048189413924445396
1772614982404897300,0.880897216796875,-0.11645721869170665,0.06486556314229965,-0.003703535259631462
1772614982414965200,0.89096533203125,-0.08150690134167671,0.09051204557418822,0.01138754129044246
1772614982425032200,0.9010322265625,-0.014856062217801808,0.09514204346239566,0.016893267133831977
1772614982435100200,0.91110009765625,0.040626609420776366,0.07908347358703613,0.03980417798883282
1772614982445168400,0.92116845703125,0.09761369427293538,0.04908522568643093,0.045933090931596234
1772614982455235300,0.9312353515625,0.10951397542506455,0.01675239735841751,0.007006399030191824
1772614982465303300,0.94130322265625,0.09027882134020328,-0.02024900730252266,-0.09291907018329948
1772614982475370200,0.951370361328125,0.05335808070003986,-0.05866846206784248,-0.15864802695559338
1772614982485438200,0.961438232421875,0.0015507365733385084,-0.06385667836070061,-0.170180406377092
1772614982495506200,0.971506103515625,-0.01377133572101593,-0.039755671805143354,-0.1607302035245113
1772614982505573400,0.981573486328125,-0.03638926411196589,-0.012380758145451545,-0.13181032544514162
1772614982515641000,0.99164111328125,-0.0168738317809999,0.040671033084392544,-0.05998876001932658
1772614982525708300,1.001708251953125,-0.0069246846966445445,0.07243336804807186,0.027003851857595143
1772614982535776300,1.0117763671875,0.0070148471981286995,0.10541326210796832,0.07297380420085973
1772614982545844000,1.021843994140625,0.01739946309030056,0.10988193195462226,0.08546340214880183
1772614982555911200,1.0319111328125,0.010942542035877703,0.09690028530657291,0.051088441567891274
1772614982565979100,1.041979248046875,0.0078492521956563,0.06355448054373264,0.0057101486745756115
1772614982576046300,1.05204638671875,0.02123465733900666,0.03162731040716171,-0.0236794201426208
1772614982586114300,1.0621142578125,0.032711598512530325,0.006199439162015915,-0.04722785714960191
1772614982596182300,1.072182373046875,0.04130962324887514,-0.01731003124117851,-0.10158071647407486
1772614982606249200,1.082249267578125,0.052519437918812036,-0.04682137240767479,-0.12844507766258903
1772614982616317200,1.092317138671875,0.0448231843277812,-0.037111294776201245,-0.10954862661333754
1772614982626384400,1.10238427734375,0.030841420726478098,-0.008995791882276534,-0.05030073895603418
1772614982636452000,1.1124521484375,0.011693360403180121,0.0312660758793354,0.00610866017260123
1772614982646520300,1.122520263671875,-0.037948330122232435,0.03272095086276531,0.022552566970582118
1772614982656587300,1.132587158203125,-0.07374678873419761,0.038977088648080825,0.00008796141124330461
1772614982666655200,1.1426552734375,-0.07477598565146326,0.04622165294885635,-0.03818940430253278
1772614982676722200,1.15272216796875,-0.06095847270116209,0.033254034826159476,-0.018595312678208572
1772614982686790100,1.1627900390625,-0.02803366982936859,0.023925649988651276,0.003971470047393813
1772614982696858400,1.1728583984375,0.0019534721553325653,0.013573182800412177,-0.050960691568953914
1772614982706925300,1.18292529296875,0.01624094070494175,0.00206043966114521,-0.07198674309200141
1772614982716993300,1.1929931640625,0.033193829071521755,0.009863222366571426,-0.04582457992266863
1772614982727060200,1.203060302734375,0.04446925632357597,0.016958149063587186,-0.023076262051123193
1772614982737128200,1.213128173828125,0.025840543699264525,0.002389525485038757,-0.0388069836450275
1772614982747196200,1.223196044921875,0.020324995148181913,0.0024608371555805207,-0.052385413442715065
1772614982757263000,1.23326318359375,-0.0154446757607162,0.017464929541945458,-0.039441884015081446
1772614982767331300,1.243331298828125,-0.038246436285972595,0.044110944405198096,-0.03290267323837615
1772614982777398300,1.253398193359375,-0.03212050075158477,0.044780221968889235,-0.04835621729213744
1772614982787466200,1.26346630859375,-0.01671352665275335,0.04533610228598117,-0.03330918081318959
1772614982797534200,1.2735341796875,0.00751198306530714,0.031192426121234892,-0.04355022351620719
1772614982807601200,1.28360107421875,0.026944705548882484,0.003583703705668449,-0.09947162449876777
1772614982817669400,1.29366943359375,0.024747633896023035,-0.007691139024496078,-0.11470042901909909
1772614982827736300,1.303736328125,0.02257248181402683,0.020837036323547362,-0.05210566948615014
1772614982837804300,1.31380419921875,0.014005290607362985,0.04012041346430778,0.023582225112151353
1772614982847872300,1.323872314453125,0.002590747145563364,0.056637833023071286,0.03517241740180179
1772614982857939200,1.333939208984375,-0.01488996448740363,0.07062427279949188,-0.010517841217247768
1772614982868007200,1.344007080078125,-0.024793518864363432,0.06422901880443095,-0.04554374455413781
1772614982878074400,1.354074462890625,-0.00955108767747879,0.06654547905325889,-0.04498320632823743
1772614982888142300,1.364142333984375,0.009771598560363054,0.05108955124616622,0.005855429763626307
1772614982898210300,1.374210205078125,0.038187399575114245,-0.021882161462306975,0.027402011729171498
1772614982908277200,1.38427734375,0.04110650189220905,-0.08136310895681381,-0.004085899340454489
1772614982918345200,1.39434521484375,0.009553425765037536,-0.08778408191502093,-0.07211239703197497
1772614982928412200,1.404412109375,-0.04025426897704601,-0.08317804942429065,-0.09786352258184924
1772614982938480400,1.41448046875,-0.07872852266952395,-0.06843932997584343,-0.10829466276317834
1772614982948548400,1.42454833984375,-0.10755538870319724,-0.02425648937821388,-0.10394776526582426
1772614982958615300,1.434615234375,-0.11207271999716759,-0.000045592707395553586,-0.05659826819766312
1772614982968683300,1.444683349609375,-0.06976736370921134,0.03216390150189399,-0.04572543953028507
1772614982978750200,1.454750244140625,-0.003344634252786636,0.06339315250217914,0.0017539035957772283
1772614982988818400,1.464818359375,0.05942249530553818,0.0509206244200468,0.028474216671101747
1772614982998886400,1.474886474609375,0.12601181350052357,0.03148644063174724,-0.0026127671811264006
1772614983008953300,1.484953369140625,0.15112579649090765,0.005381693038344383,-0.014495887135900555
1772614983019021300,1.495021240234375,0.1364468444056809,-0.024043723410367965,-0.04769758898662403
1772614983029088300,1.505088134765625,0.09314429377391933,-0.032845454025268554,-0.10121395638776011
1772614983039156200,1.51515625,0.05347980738356709,-0.022361469411849973,-0.132102084066486
1772614983049224400,1.525224365234375,0.005928805527091026,-0.018779519271850585,-0.11505522467298432
1772614983059291400,1.53529150390625,-0.04901449853777885,-0.02791208927631378,-0.1066488500512205
1772614983069359400,1.545359375,-0.06302373466789722,-0.03628828795552254,-0.11640858464385383
1772614983079426300,1.55542626953125,-0.06132365275174379,-0.016243278792500496,-0.09604767793207429
1772614983089494300,1.565494384765625,-0.0570510899990797,0.013069909453392028,-0.09388483734237961
1772614983099562500,1.5755625,-0.03659107029438018,0.049291561913490295,-0.06888846198283136
1772614983109629400,1.58562939453125,-0.008963643178343772,0.07404021872282028,-0.011656489858357235
1772614983119697400,1.595697509765625,0.013214286360144614,0.08901917666792869,0.05890377779421396
1772614983129764400,1.605764404296875,0.03568739945292473,0.10763795242011547,0.05298968577906489
1772614983139832300,1.615832275390625,0.030673370683193205,0.09059797029197215,0.014311625743331387
1772614983149900300,1.625900390625,0.035381694504618644,0.05537175861001015,-0.0697489786691498
1772614983159967200,1.63596728515625,0.04250643181800842,0.014222002097964285,-0.10786646394636482
1772614983170035500,1.646035400390625,0.04271510613262653,0.010343114838004111,-0.08868585306033491
1772614983180102400,1.656102294921875,0.04610533309280872,0.017649638459086417,-0.038451000681053844
1772614983190170400,1.66617041015625,0.05788724856227636,0.039025019443035124,0.015678858975926413
1772614983200238300,1.67623828125,0.025051439148187638,0.03396189083456993,0.038570553673803805
1772614983210305300,1.68630517578125,-0.0022898645028471944,0.011778700599074363,0.02631968725202605
1772614983220373500,1.69637353515625,-0.020228549036383627,-0.0010468787044286727,0.00017728366251103578
1772614983230440400,1.7064404296875,-0.044238077916204925,-0.0022609306693077086,-0.03675191427874379
1772614983240508400,1.71650830078125,-0.07144640283733605,-0.016600421667098998,-0.056532399887219066
1772614983250575400,1.726575439453125,-0.05488368283212185,-0.005227379259467125,-0.04868196038147434
1772614983260643300,1.736643310546875,-0.05142915846407413,0.0048538697719573975,-0.023572726631443944
1772614983270711300,1.746711181640625,-0.01644260075688362,-0.018055881172418593,-0.0722193051722832
1772614983280778500,1.756778564453125,0.029672961468994615,-0.03996668420732021,-0.12474374805977567
1772614983290846500,1.766846435546875,0.054786798328906296,-0.030890812826156615,-0.10702403090600855
1772614983300913400,1.776913330078125,0.05720891090929508,-0.017892799565196037,-0.06373153587738052
1772614983310981400,1.7869814453125,0.04980681795924902,0.02214987248778343,-0.014997753977123647
1772614983321049000,1.797049072265625,0.050156362049281596,0.05697568667531013,0.024555152664380145
1772614983331116300,1.8071162109375,0.01641863535940647,0.05775134722292423,0.01018475507167168
1772614983341184300,1.817184326171875,-0.007582417953014373,0.046696869245171545,-0.03185294498973526
1772614983351251500,1.82725146484375,-0.004129939411580562,0.03987959044575691,-0.06555678767631762
1772614983361319400,1.8373193359375,-0.0041261400192975995,0.035382279026508326,-0.07873680644067935
1772614983371387100,1.84738720703125,0.00267827929854393,0.039921676021814345,-0.047431421464262526
1772614983381454300,1.857454345703125,0.021398323468118905,0.03560848899781704,-0.03497090348033234
1772614983391522300,1.867522216796875,0.05584478294923901,0.0306996741682291,-0.03256832671747543
1772614983401589500,1.877589599609375,0.0626867577984929,0.006997896063327789,-0.050167531897267324
1772614983411657200,1.8876572265625,0.06992489235848189,-0.001644260075688362,-0.05936100177611224
1772614983421725200,1.89772509765625,0.05066372704952955,0.013816343906521797,-0.027024154860107227
1772614983431792400,1.90779248046875,0.01720949347615242,0.027596447455883025,0.011124346609879284
1772614983441860000,1.917860107421875,-0.01416910286694765,0.03356149334013462,0.02466688767685555
1772614983451927300,1.92792724609375,-0.025261867028474806,0.03793020994365215,0.014984730098769068
1772614983461995300,1.937995361328125,-0.025512042397260664,0.04377250623106956,-0.005580193018820136
1772614983472063200,1.948063232421875,-0.018830957198143004,0.06157061325013637,-0.01075305647891946
1772614983482130200,1.958130126953125,-0.037330198223888875,0.04881459205150604,0.00690376063962467
1772614983492198100,1.9681982421875,-0.0235498024135828,0.04972761524319649,0.02991683496115729
1772614983502265000,1.97826513671875,-0.008617021697759629,0.04317629390358925,0.03121844647848047
1772614983512333300,1.988333251953125,0.0030786767929792402,0.04107026153504848,-0.0016790482612792403
1772614983522401300,1.9984013671875,0.002024199303984642,0.013118424770236014,-0.054763965442590413
1772614983532468200,2.00846826171875,0.01128127247095108,-0.014535305830836296,-0.10774423493933863
1772614983542536200,2.0185361328125,0.003895253872871399,-0.034487960535287854,-0.16978698661271482
1772614983552603100,2.02860302734375,-0.018907237304747103,-0.05905600008070468,-0.19058376399111002
1772614983562671000,2.038671142578125,-0.03318623028695583,-0.008059387814998627,-0.0917213939644862
1772614983572739300,2.0487392578125,-0.023289982433617115,0.019985972452163697,0.018126736185234037
1772614983582806300,2.05880615234375,-0.0050683893054723735,0.034926351952552795,0.10272391342613846
1772614983592874200,2.068874267578125,0.011755904245376586,0.019665654456615448,0.13204472785606047
1772614983602941200,2.078941162109375,-0.0004189560644328594,-0.0046855274677276605,0.11954086392074822
1772614983613009400,2.089009521484375,-0.011502806267142295,-0.026129882034659383,0.05999224888435565
1772614983623077400,2.099077392578125,-0.03562821661159396,-0.025577508848905563,-0.003180776327429339
1772614983633144300,2.109144287109375,-0.05257759784683585,-0.0031821371674537655,-0.030383393026981502
1772614983643212300,2.11921240234375,-0.061685179540514945,0.02008651021718979,-0.02951008079117164
1772614983653279200,2.129279296875,-0.06605155805647372,0.037515199401974675,-0.0413235056437552
1772614983663347200,2.13934716796875,-0.03406929673179984,0.02372983515560627,-0.1285485197707545
1772614983673415400,2.14941552734375,0.015561287877708673,-0.009285714739561081,-0.15948803971000014
1772614983683482400,2.159482421875,0.0573170474588871,-0.05094868147075176,-0.08792994752596132
1772614983693550300,2.16955029296875,0.08967574088051915,-0.049584991902112956,-0.013180128362216055
1772614983703617300,2.1796171875,0.07226224926486612,-0.03891045315265655,0.023701202716166152
1772614983713685200,2.189685302734375,0.03441270334199071,-0.033334114325046536,0.0027672088241670278
1772614983723753500,2.19975341796875,-0.007517828284204006,-0.01951777041852474,-0.005017471968987957
1772614983733820400,2.2098203125,-0.05448796151280403,0.013590718457102774,0.012729434585804118
1772614983743888400,2.219888427734375,-0.06618629035204648,0.03129121032059193,-0.01954066723692231
1772614983753955300,2.229955322265625,-0.06803542535007,0.017159224593639374,-0.05861906996816396
1772614983764023300,2.240023193359375,-0.047808337618410586,0.010145546439290045,-0.08455710095884278
1772614983774091300,2.25009130859375,-0.02758972545415163,-0.00275017549097538,-0.12022605143962427
1772614983784158200,2.260158203125,-0.00985372388586402,-0.0186263745367527,-0.1603094025628641
1772614983794226400,2.270226318359375,-0.013009119176864623,0.0022556699723005292,-0.10006408309973776
1772614983804293400,2.28029345703125,-0.007874678897857666,0.047746086037158963,-0.021176378679974003
1772614983814361300,2.290361328125,-0.005180909769237041,0.0760831227272749,0.0096846600624267
1772614983824429300,2.30042919921875,0.005905716912448406,0.10138999794125557,0.016273171607265248
1772614983834496300,2.310496337890625,0.0134545248568058,0.10365209765434265,0.04824766061743721
1772614983844564500,2.320564453125,0.043857261905074114,0.09804244107902049,0.07161557625862769
1772614983854631400,2.33063134765625,0.06676935093700885,0.08193535588681697,0.0431987705968786
1772614983864699400,2.340699462890625,0.0786708011329174,0.05164017086625099,0.0073193009042646735
1772614983874767400,2.350767333984375,0.049963762086629865,0.005530746120214462,-0.057011689570453015
1772614983884834300,2.360834228515625,0.009347966320812702,-0.05389174918532371,-0.1499703702449333
1772614983894902300,2.37090234375,-0.028560031791031358,-0.06379997973740101,-0.16517649714257568
1772614983904969500,2.380969482421875,-0.04532674993574619,-0.054385670182108874,-0.09844420854663476
1772614983915037400,2.391037353515625,-0.025132103168964384,-0.03423018638193607,-0.030926194666791706
1772614983925105400,2.40110546875,-0.026225743624567983,-0.017804536759853364,0.0051829373295418915
1772614983935172400,2.41117236328125,0.0013046528577804564,0.012750760501623153,-0.015860937544563785
1772614983945240300,2.421240234375,0.00433656789958477,0.012620412120223044,-0.02398951813825406
1772614983955307300,2.431307373046875,0.005833236198127269,-0.00826221691071987,-0.06933902789507992
1772614983965375500,2.44137548828125,0.018404256218671797,0.003963058412075043,-0.08585052916971035
1772614983975442400,2.4514423828125,0.0036377719804644585,0.028972411984205245,-0.009599539062241091
1772614983985510400,2.461510498046875,-0.010279401952028274,0.049504912403225895,0.02187741222195327
1772614983995578400,2.471578369140625,-0.013307225340604781,0.05148234995603561,-0.021677524001989513
1772614984005645300,2.481645263671875,-0.00037847792357206345,0.0269178175419569,-0.024035887163784353
1772614984015713500,2.491713623046875,0.019019319377094505,0.018135376149415967,-0.022634998256759718
1772614984025780500,2.501780517578125,0.039800826121121645,0.005824760630726814,-0.05074150499347597
1772614984035848400,2.511848388671875,0.04369432642832398,-0.017045242825150488,-0.12113589629353955
1772614984045916400,2.52191650390625,0.03468465215116739,0.008768412867188453,-0.08491513888258487
1772614984055983400,2.5319833984375,0.03247033710256219,0.03293371683061123,0.01736944241137244
1772614984066051300,2.54205126953125,0.018897738824039695,0.05923603282272815,0.05246951609617099
1772614984076118300,2.5521181640625,0.011831453699618577,0.053126610031723975,0.012591368688829242
1772614984086186500,2.5621865234375,0.006220628080517053,0.030486908200383186,-0.05529762479471974
1772614984096254500,2.57225439453125,-0.0033544249944388867,0.012122399470210075,-0.0718696880170144
1772614984106321400,2.5823212890625,-0.014082301366329193,-0.008918050470948218,-0.10688206515205093
1772614984116389400,2.592389404296875,-0.025232494803518055,-0.008570844468474387,-0.11477731191390193
1772614984126456300,2.602456298828125,-0.022038667198270558,-0.022958850783109663,-0.0887377293780446
1772614984136524500,2.612524658203125,0.009249620512872933,-0.016277765583992004,-0.07644167210767046
1772614984146592300,2.62259228515625,0.01733282759487629,-0.0014350012391805649,-0.059036793056735766
1772614984156659500,2.632659423828125,0.03680807404592633,0.02822714657485485,-0.00025441315248608587
1772614984166727400,2.6427275390625,0.05641629922688007,0.0506809704452753,0.03041618105173111
1772614984176794400,2.65279443359375,0.05187748675346374,0.064406128937006,0.03445158318080939
1772614984186862300,2.6628623046875,0.040872400875389577,0.0730547148168087,0.027719827240379524
1772614984196930300,2.672930419921875,0.021506898409128186,0.06875555631816387,0.00283108610692434
1772614984206997500,2.68299755859375,-0.00027151041775941846,0.050097617599368094,0.013793237025570124
1772614984217065200,2.693065185546875,0.013455693900585174,0.05537234313189983,0.02612074888013303
1772614984227132400,2.70313232421875,0.03151303637772798,0.030606150665879246,-0.03786445123106241
1772614984237200400,2.713200439453125,0.03652940323501825,-0.011260229682922363,-0.1665942549860105
1772614984247268400,2.723268310546875,0.02191547921001911,-0.029559271961450573,-0.19331972829364238
1772614984257335600,2.73333544921875,0.0006666472151875496,-0.025291677644848822,-0.12026185340536757
1772614984267403300,2.7434033203125,-0.012923778980970382,-0.020246084693074224,-0.06513995050373486
1772614984277470500,2.753470458984375,-0.031610651533305646,-0.011280687949061393,-0.06191072279154323
1772614984287538200,2.7635380859375,-0.04763385783433914,-0.016678747600317,-0.0741860295348335
1772614984297606100,2.773606201171875,-0.05623392839729786,0.0031546646386384964,-0.0049581612634938205
1772614984307673300,2.78367333984375,-0.015353051954507826,0.043855508339405054,0.1203720723141916
1772614984317741300,2.7937412109375,0.0023480244308710096,0.04981353996098041,0.16073350972644984
1772614984327808300,2.803808349609375,0.0034700141981244084,0.04092003940939903,0.10546410637921654
1772614984337876200,2.813876220703125,-0.00010989011526107787,0.029384499916434288,0.021194772853190078
1772614984347944200,2.823944091796875,-0.030525194384157656,0.02016951232552528,-0.06061394271296448
1772614984358011100,2.83401123046875,-0.07241232526004314,0.005270633879303932,-0.17712649918794632
1772614984368079400,2.844079345703125,-0.05864098953902721,0.01194528933763504,-0.19969014010839162
1772614984378146300,2.854146240234375,-0.03237432938218117,0.01006605146229267,-0.08071226209895685
1772614984388214300,2.86421435546875,0.026699206355214118,0.02063888340294361,-0.04638296272410079
1772614984398282200,2.8742822265625,0.08995207360386848,0.025952187380194662,-0.04037389503503218
1772614984408349200,2.88434912109375,0.1235068449422717,-0.006343231546878814,-0.03804790890603326
1772614984418417400,2.89441748046875,0.10607757123559712,-0.0267827929854393,-0.06242117479802109
1772614984428484400,2.904484375,0.06008446634560823,-0.019274024790525434,-0.029832727741124106
1772614984438552300,2.91455224609375,0.02454232058227062,0.008184475499391556,0.025579454210819676
1772614984448620300,2.924620361328125,-0.02410714403539896,0.03045885114967823,0.0007885291623417288
1772614984458687200,2.934687255859375,-0.040540976963937284,0.02248714161813259,-0.06410599521296098
1772614984468755200,2.944755126953125,-0.019619477227330206,0.001692190870642662,-0.09897150209005921
1772614984478822100,2.954822265625,0.007390110251307487,-0.0036404023289680477,-0.10810222719730808
1772614984488890400,2.964890380859375,0.03918137904852628,-0.025431962898373604,-0.11327055147960781
1772614984498958300,2.974958251953125,0.036710897281765936,-0.042883448436856264,-0.11837006657570599
1772614984509025300,2.985025390625,0.014418985974788665,-0.020292261922359466,-0.0939114513546694
1772614984519093200,2.99509326171875,-0.025479893693327902,0.02974456540048122,-0.01542115788781084
1772614984529160200,3.00516015625,-0.049472179177403444,0.08586509655117988,0.025267301255417988
1772614984539228400,3.015228515625,-0.044778760664165015,0.13870821346640586,0.04950530512887053
1772614984549296400,3.02529638671875,-0.005691489639878273,0.1379173553496599,0.0623243450937327
1772614984559363300,3.03536328125,0.028477906465530393,0.1179758065611124,0.0444969937138725
1772614984569431300,3.045431396484375,0.08154021908938884,0.06817746416926383,-0.022516696506179868
1772614984579497700,3.055497802734375,0.08976414981633424,-0.0031049802780151363,-0.09524414299684576
1772614984589565700,3.065565673828125,0.07161299157589673,-0.09274608823657035,-0.16057139623360708
1772614984599633700,3.075633544921875,0.028830373165011403,-0.1320925947189331,-0.20554211753960697
1772614984609700600,3.08570068359375,-0.00991699838042259,-0.11020224995017051,-0.11295554897999391
1772614984619768800,3.095768798828125,-0.043484336939454075,-0.05358779780268669,-0.02167510371604003
1772614984629835800,3.105835693359375,-0.04302300303801894,-0.011761164942383766,0.035885040916875
1772614984639903700,3.11590380859375,-0.015419541319459676,0.0063397244155406944,0.07566000194437801
1772614984649971700,3.1259716796875,-0.0022620997130870816,0.006353168419003487,0.01849883003379218
1772614984660038700,3.13603857421875,-0.013083937978744506,0.015871522870659828,-0.012176522543933243
1772614984670107000,3.14610693359375,-0.050559682153165336,0.008253449082374572,-0.00499089448931627
1772614984680173800,3.156173828125,-0.07601356462240219,-0.004625321713089943,-0.04951352496794425
1772614984690241800,3.16624169921875,-0.09345438263639808,0.00521451977789402,-0.02060307230404578
1772614984700309800,3.176309814453125,-0.07743921351134776,0.017311200284957886,0.034574679837515575
1772614984710376700,3.186376708984375,-0.06742971454188228,0.010745265898108482,0.04353604886038229
1772614984720444700,3.196444580078125,-0.03128171183988452,-0.006170797589421272,0.002150373833766207
1772614984730512000,3.206511962890625,-0.006371726989001035,-0.004903554132580757,-0.04666625491119921
1772614984740579800,3.216579833984375,0.018798808494210242,0.007521627676486968,-0.06261712662838399
1772614984750647800,3.226647705078125,0.02026595843732357,0.03204816616773605,-0.025323159628501162
1772614984760714800,3.23671484375,0.020735914036631584,0.061540802633762354,-0.00893510207044892
1772614984770782700,3.24678271484375,0.0008116086438298225,0.08544014913737773,-0.0032540242267306892
1772614984780849700,3.256849609375,0.011242255634814501,0.09877192439734934,0.02714106837119907
1772614984790918000,3.26691796875,0.036148148832470174,0.076614453125,-0.007399928392423316
1772614984800985900,3.27698583984375,0.03445712700560689,0.042700493085384365,-0.07775886478661559
1772614984811052800,3.287052734375,0.015563041443377732,0.019514847809076308,-0.15160347873894497
1772614984821120800,3.297120849609375,-0.004688888468593359,0.006161445239186287,-0.16415478941202163
1772614984831187700,3.307187744140625,-0.03158347126543522,0.01851999155282974,-0.10510555699882097
1772614984841256000,3.317255859375,-0.02724894919246435,0.0418494292140007,-0.06355607884577476
1772614984851324000,3.327323974609375,-0.008536357676982879,0.04965630357265472,-0.0751337313142605
1772614984861390800,3.337390869140625,0.01566401759982109,0.04166588934063911,-0.049429792207246644
1772614984871458800,3.347458740234375,0.02847586063891649,0.037955344384908676,0.005170863299258053
1772614984881525800,3.35752587890625,-0.002106470759958029,0.05494038145542145,0.03082854297859594
1772614984891593700,3.36759375,-0.01579378145933151,0.07596271121799945,-0.023393579805409535
1772614984901662000,3.377661865234375,-0.05777049031481146,0.07472118672430515,-0.051868919854518025
1772614984911729000,3.38772900390625,-0.06845920372009277,0.05636895295381546,-0.04816645774054341
1772614984921796900,3.397796875,-0.05070581262558698,0.029178163689374922,-0.06073092928929254
1772614984931863800,3.40786376953125,-0.016950550279021263,-0.008825696012377739,-0.10506369975162669
1772614984941931800,3.417931884765625,0.020622662920504808,-0.02620060918331146,-0.14277829418322072
1772614984952000000,3.428,0.0449865581959486,-0.02018237180709839,-0.10772386800474487
1772614984962067000,3.43806689453125,0.055773909670114516,-0.005405073913931847,-0.018209108105907215
1772614984972135000,3.448135009765625,0.049969022783637046,-0.012430442506074904,0.02450295668626204
1772614984982201900,3.458201904296875,0.04826777182370424,-0.0070136781543493265,0.006717024162178859
1772614984992269800,3.468269775390625,0.03341068669259548,-0.0077758946985006325,-0.010944660927727818
1772614985002337800,3.478337890625,0.04795066869854927,-0.024976620346307755,0.01939181508445181
1772614985012404700,3.48840478515625,0.05691957257390022,-0.026978023296594617,0.03947745765196159
1772614985022473000,3.498472900390625,0.048292029482126235,-0.047590603214502335,-0.04150399504350498
1772614985032540000,3.508539794921875,0.019095745614171027,-0.07922960405945778,-0.10285685562342405
1772614985042607900,3.51860791015625,-0.01833528263568878,-0.07955693631768226,-0.09166752661908976
1772614985052675800,3.52867578125,-0.046099487873911854,-0.04074526736438274,-0.06234426450375467
1772614985062742800,3.53874267578125,-0.06310907486379146,-0.017017185774445533,-0.10547628087420016
1772614985072811000,3.54881103515625,-0.07282777419313788,0.004207973083853721,-0.09442438757917843
1772614985082878000,3.5588779296875,-0.05215688821673393,0.041812604334950446,-0.014948042217036708
1772614985092946000,3.56894580078125,-0.017599954098463058,0.06674012484252452,0.007180084229819477
1772614985103013600,3.579013671875,0.027505846562981603,0.04144669363200664,-0.03895540653923526
1772614985113080800,3.589080810546875,0.0664510787680745,0.01818506051003933,-0.07528171581705101
1772614985123148800,3.599148681640625,0.08625672621726989,0.0036830724269151685,-0.0779933219964616
1772614985133216000,3.609216064453125,0.08205459835231303,0.010601473513245582,-0.0706137788049411
1772614985143284000,3.619283935546875,0.07297405079603195,0.0029629414588212967,-0.05946356710144318
1772614985153351700,3.6293515625,0.051406508240848775,0.0018967735320329665,-0.0658790601669345
1772614985163419000,3.6394189453125,0.02521510527729988,-0.0005582184046506881,-0.0601909223947674
1772614985173486600,3.649486572265625,-0.02544482237994671,0.02180442005097866,-0.052498943120054896
1772614985183553800,3.6595537109375,-0.036492578355967996,0.03594342004060745,-0.02999997406681068
1772614985193621800,3.669621826171875,-0.06144932495802641,0.057632689279317854,0.025568439626460892
1772614985203689700,3.679689697265625,-0.05872545295208692,0.07800736878812313,0.005817938164295628
1772614985213756700,3.689756591796875,-0.04274199413955211,0.07493745982348919,-0.043532989253615956
1772614985223824600,3.69982470703125,-0.025191724401712415,0.06260755508244037,-0.05689105886546895
1772614985233891800,3.709891845703125,-0.004501110811531543,0.03370294763743877,-0.06130822685374878
1772614985243959800,3.719959716796875,0.014852993477880954,0.04063713081479072,-0.04917892271871678
1772614985254027800,3.73002783203125,0.008516483932733535,0.03914426190853119,-0.026681259706569833
1772614985264094700,3.7400947265625,0.023373276802897452,0.016758827099204062,-0.018221410465054214
1772614985274162700,3.75016259765625,0.022467267873883246,0.007744915038347244,-0.025887022322649136
1772614985284229600,3.760229736328125,0.03588847498297691,-0.019622399836778638,-0.04283425726657733
1772614985294297600,3.770297607421875,0.03568637653961777,-0.04878653500080108,-0.069255879656272
1772614985304365800,3.78036572265625,0.029124533805996177,-0.04957622407376766,-0.07813551607928239
1772614985314432800,3.790432861328125,0.019034078554809094,-0.047538580766320226,-0.041761531734839076
1772614985324500700,3.800500732421875,0.015805471897125244,-0.048857846671342846,-0.011059610810596495
1772614985334567700,3.810567626953125,-0.007660451625287532,-0.04984218153357506,-0.05852129041580483
1772614985344635600,3.8206357421875,-0.025184710139036177,-0.04091010253727436,-0.10880504170442
1772614985354704000,3.830703857421875,-0.027328736430406567,-0.01903553985953331,-0.08679002937637269
1772614985364770800,3.840770751953125,-0.030847558206319806,-0.007290741530060768,-0.0310355367927812
1772614985374838800,3.8508388671875,-0.009524199670553207,0.01620294678211212,0.012357039343146607
1772614985384905700,3.86090576171875,-0.0023638065218925474,0.03822480897605419,0.017848010575398802
1772614985394973700,3.8709736328125,0.01173661502301693,0.0459843370616436,-0.006769576333323493
1772614985405041700,3.881041748046875,0.029507834035158154,0.04841887073218822,-0.021593206719402222
1772614985415108600,3.891108642578125,0.02938566896021366,0.058135962626338,-0.04867275416171178
1772614985425176800,3.9011767578125,0.020306290447711945,0.05041618202924728,-0.0720509080691263
1772614985435243800,3.911243896484375,0.01511369024068117,0.057692310512065886,-0.11090021475222893
1772614985445311700,3.921311767578125,0.004415186093747615,0.0412830275028944,-0.09329893634635955
1772614985455379700,3.931379638671875,-0.0024149521872401237,0.042538580521941184,-0.06389204193502664
1772614985465446700,3.94144677734375,0.0069321373507380485,0.04633680376112461,-0.04903987044105306
1772614985475515000,3.951514892578125,0.023210195195674896,0.02734568756520748,-0.061688202614663165
1772614985485581800,3.961581787109375,0.02702712313532829,0.03002747399508953,-0.05334552261256612
1772614985495649800,3.97164990234375,0.014415771104395389,0.03929448403418064,-0.02212968821628019
1772614985505717800,3.9817177734375,0.015990180814266203,0.049207975283265114,-0.019993890897138045
1772614985515784700,3.99178466796875,0.0035018706411123275,0.044078795701265334,-0.030397859943751243
1772614985525852700,4.001852783203125,-0.004270955317467451,0.04012333607375622,-0.08107522279298864
1772614985535919900,4.011919921875,-0.015137071116268634,0.011424480333924293,-0.1254049793143291
1772614985545987800,4.02198779296875,-0.010582476551830767,-0.010697335103154182,-0.11728094703159295
1772614985556055800,4.032055908203125,-0.02126183760687709,-0.014834581038355827,-0.07944338380745612
1772614985566122800,4.042122802734375,-0.004260872314870357,0.004033785560727119,-0.03587976195355877
1772614985576191000,4.05219091796875,-0.00741436790972948,0.01144552312195301,0.010069841721421106
1772614985586258000,4.0622578125,0.0030497429594397545,0.0045353053420782085,0.034674249488161876
1772614985596326000,4.072325927734375,0.0013198504269123076,0.025884967362880706,0.022367762155318632
1772614985606394000,4.08239404296875,-0.012843114960193634,0.022350948017835617,-0.029175816468661648
1772614985616461000,4.0924609375,0.007722703206539154,0.011891513323783874,-0.0627196097553242
1772614985626529000,4.102529052734375,0.021924831560254095,-0.009807108265161514,-0.08767895017326809
1772614985636596000,4.112595947265625,0.0519993595674634,-0.03210544931292534,-0.0859156668277923
1772614985646664000,4.122663818359375,0.0784527744680643,-0.062062780681252476,-0.10788346074693836
1772614985656732200,4.132732177734375,0.07609656673073768,-0.07269523385465144,-0.11419693647637032
1772614985666799000,4.142799072265625,0.062039399805665016,-0.06768471221625805,-0.09443095431728288
1772614985676867000,4.1528671875,0.04569046868160367,-0.051178398573398586,-0.06220057258359156
1772614985686934000,4.16293408203125,0.04792436521351337,-0.03093991266489029,-0.04430024729906581
1772614985697002000,4.173001953125,0.044442514447122806,-0.006883329772949218,-0.03271113272164948
1772614985707070000,4.183070068359375,0.0329882234968245,0.023619945040345192,-0.009928962812852113
1772614985717137000,4.193136962890625,0.04326192636042833,0.06456687245666981,0.0760062580987811
1772614985727205000,4.203205078125,0.02424202246144414,0.07506839272677898,0.14148050032448953
1772614985737272000,4.21327197265625,-0.007544424030184745,0.07470189750194549,0.09711154430392198
1772614985747340000,4.223340087890625,-0.06754033530950546,0.05201835652887821,-0.011377956044767051
1772614985757408000,4.233407958984375,-0.11859642267748713,0.01806464900076389,-0.10179135441691614
1772614985767475000,4.243474853515625,-0.15127236535474656,0.01190086567401886,-0.09783620531666092
1772614985777543200,4.253543212890625,-0.15946166315972804,0.03899637787044048,-0.07319851633482612
1772614985787610000,4.263610107421875,-0.12191066179201006,0.0728670832902193,-0.05388904577158391
1772614985797678000,4.273677978515625,-0.08194266241043806,0.05719254429638385,-0.06749406674867496
1772614985807746000,4.28374609375,-0.03694470603764057,0.035739421901106835,-0.06583555895192549
1772614985817813000,4.29381298828125,0.007388941207528114,0.03825403507053852,-0.04303176173320971
1772614985827881000,4.303880859375,0.021530571545660494,0.031790976536273954,-0.013864274701476097
1772614985837948200,4.3139482421875,0.04236702334731817,0.020477555361390114,-0.04619268258269876
1772614985848016100,4.32401611328125,0.05042962603271007,0.02822714657485485,-0.0306114022297319
1772614985858083800,4.334083740234375,0.0564367574930191,0.038216625669598575,-0.04049039755417034
1772614985868151000,4.344151123046875,0.06779810946285725,0.01402443369925022,-0.06649696373641491
1772614985878219000,4.354218994140625,0.060440440176427364,-0.00002864157259464264,-0.07115952132050879
1772614985888286000,4.364285888671875,0.051287704166769976,0.01322889940738678,-0.08032486108341254
1772614985898354200,4.374354248046875,0.03543561664894223,0.00003682487905025482,-0.05207006844980642
1772614985908422000,4.384421875,0.02318330718874931,0.001589315018057823,-0.003974593586241826
1772614985918489000,4.394489013671875,-0.003468552893400192,0.0021440262913703916,-0.024460423585632815
1772614985928556800,4.404556884765625,-0.03348433645069599,0.012589432460069655,-0.05165716766682453
1772614985938624000,4.4146240234375,-0.0724086719982326,0.015563479834794997,-0.054427162103122095
1772614985948692000,4.42469189453125,-0.09599310733377933,0.0433089803725481,-0.05866397768897004
1772614985958760000,4.434760009765625,-0.10248334613591432,0.059141924798488614,-0.019125885024107992
1772614985968827100,4.4448271484375,-0.07954203100949525,0.050590369552373886,0.0018310148194432257
1772614985978894800,4.454894775390625,-0.03150982150733471,0.04257598992288113,0.021906574384355917
1772614985988962000,4.464962158203125,0.0029255320578813553,0.030523148557543754,0.06584235401889309
1772614985999029800,4.47502978515625,0.038114042077958585,0.02360124033987522,0.046792904365016146
1772614986009098000,4.485097900390625,0.03491992221176624,0.01075578729212284,0.04105475343866274
1772614986019165000,4.4951650390625,0.03712824591100216,0.012874094620347023,0.0014822196480818093
1772614986029233000,4.50523291015625,0.024335545963793993,-0.003933247795701027,-0.0836150891346857
1772614986039299800,4.5152998046875,0.011407675329595803,-0.02044716022312641,-0.12456148682804777
1772614986049367800,4.525367919921875,0.008707038068771362,-0.02201309436559677,-0.1101599999773316
1772614986059436000,4.53543603515625,-0.012054887191951275,-0.011735445979237556,-0.043380794366588815
1772614986069503000,4.5455029296875,-0.011323065786063671,-0.009900047245621681,-0.01734937687087804
1772614986079571000,4.555571044921875,-0.01559738210439682,-0.0010942249774932862,-0.024354999582935122
1772614986089638000,4.565637939453125,-0.010585983683168888,-0.012118892338871956,-0.034984274418558926
1772614986099705900,4.575705810546875,0.0027995675906538962,-0.02055821938216686,-0.004030104899452999
1772614986109773800,4.58577392578125,0.008096212694048881,-0.01271685823202133,0.01099646418020129
1772614986119840800,4.5958408203125,0.0097260058529675,0.010669862574338912,-0.017951407017791642
1772614986129909000,4.605908935546875,0.015298983679711818,0.006802081230282783,-0.08625445206179283
1772614986139976000,4.615975830078125,0.008755114994198083,0.02777355758845806,-0.10897963108634576
1772614986150044000,4.6260439453125,0.01375453071668744,0.04267945029735565,-0.07445921131987124
1772614986160111900,4.63611181640625,0.017049480608850715,0.02868599625825882,-0.061981870065303514
1772614986170178800,4.6461787109375,0.029759178447723387,0.02012041248679161,-0.06647754664989187
1772614986180247000,4.6562470703125,0.01668225473165512,0.0017307693153619766,-0.03545132567472756
1772614986190314000,4.66631396484375,0.0067712477006018155,-0.006407528954744338,-0.026829536470305174
1772614986200382000,4.6763818359375,0.026177958960086106,-0.009904723420739173,-0.07205356581709348
1772614986210450000,4.686449951171875,0.008664952492713927,-0.007575403690338134,-0.058099658337095746
1772614986220516900,4.696516845703125,-0.030989012503623962,0.020635376271605492,-0.029632017537252975
1772614986230584800,4.706584716796875,-0.0492389549434185,0.051118777340650554,-0.01745666403709911
1772614986240651800,4.71665185546875,-0.03593406769037247,0.05975275017321109,-0.047669331006519496
1772614986250720000,4.726719970703125,-0.001483224295079708,0.04379062640964985,-0.06882951660351827
1772614986260788000,4.7367880859375,0.032410569739341734,0.03122340578138828,-0.0689076416073367
1772614986270855000,4.74685498046875,0.08973945376649499,0.01644084719121456,-0.04863573748641647
1772614986280923000,4.7569228515625,0.12369301516413687,-0.003259878578782081,-0.04411769380639307
1772614986290989800,4.76698974609375,0.10401873900964856,-0.023764321947097777,-0.10272940245200879
1772614986301058000,4.77705810546875,0.060754182300716636,-0.020904840862751007,-0.09351109952600672
1772614986311126000,4.7871259765625,-0.0031026421904563903,0.01052139401435852,-0.0027420652497559786
1772614986321193000,4.79719287109375,-0.049992988181114195,0.041372459352016444,0.04634716989151202
1772614986331261000,4.807260986328125,-0.06022796646952629,0.06451192739903927,0.03554128724681213
1772614986341328000,4.817327880859375,-0.0554106293156743,0.06712123311460018,0.002099383432045579
1772614986351396000,4.82739599609375,-0.04815685879513621,0.06492518437504768,-0.019520345968101174
1772614986361464000,4.837464111328125,-0.04903831780478358,0.04537643429636955,-0.068241980772838
1772614986371531000,4.847531005859375,-0.018638649496436118,0.03188333099484444,-0.10198390871379524
1772614986381599000,4.857598876953125,-0.00031739538609981536,0.0224257668197155,-0.05215027581285685
1772614986391666000,4.867666015625,0.022391864550113678,0.019354688811302184,-0.004012377446517348
1772614986401734000,4.87773388671875,0.03304667568579316,0.022069208467006683,0.016621071729483083
1772614986411802000,4.887802001953125,0.050831777092814445,0.007414075648784637,0.05672965775867924
1772614986421869000,4.897869140625,0.0659406450279057,-0.011678747355937958,0.07905578186251222
1772614986431937000,4.90793701171875,0.05229658894836902,-0.03345160322487354,0.06464288770179263
1772614986442004000,4.91800390625,0.020156652843952176,-0.05291852023899555,0.00439321172395721
1772614986452072000,4.928072021484375,-0.025956717424839734,-0.051321021914482116,-0.05631312198019586
1772614986462140200,4.93814013671875,-0.07992328541204333,-0.0399976638674736,-0.10414990937495604
1772614986472207000,4.94820703125,-0.10820786126255988,-0.0037672435790300366,-0.0926513865572866
1772614986482275000,4.958275146484375,-0.11375760434418916,0.016367781955003737,-0.054049962821183725
1772614986492342000,4.968342041015625,-0.09705489134639501,0.03796411221325397,-0.03696099045216106
1772614986502410000,4.978409912109375,-0.04061053506880998,0.059656304061412806,-0.00770202574469149
1772614986512478000,4.98847802734375,0.00509030887633562,0.06316635800898075,0.004129327490227297
1772614986522545000,4.998544921875,0.04466448663473129,0.03791851950585842,0.0006417776354122907
1772614986532613000,5.008613037109375,0.06216404909864068,0.019696634116768835,-0.01379324615872465
1772614986542680000,5.01868017578125,0.06951674994900822,-0.003429389926791191,-0.0461949841376394
1772614986552748000,5.028748046875,0.07099091415479779,-0.014191606959700584,-0.07311814457499421
1772614986562816000,5.03881591796875,0.05211772525012493,-0.02390402267873287,-0.10768744498449377
1772614986572883000,5.048883056640625,0.03748378135040402,-0.004221417087316512,-0.0830283844210673
1772614986582951400,5.058951416015625,0.012132920864224433,0.013282675421237945,-0.03303963402365334
1772614986593019100,5.06901904296875,-0.032039398339390755,0.023256956946849823,-0.01383168760612607
1772614986603086300,5.07908642578125,-0.06621975423023105,0.054256490844488144,-0.010576923593878745
1772614986613154000,5.089154052734375,-0.09011807782053947,0.07040449256896972,-0.027888863664353263
1772614986623221200,5.09922119140625,-0.09497837733328342,0.07889934919178486,-0.03473503976468928
1772614986633289200,5.109289306640625,-0.0574345363587141,0.11356325081586838,-0.03123848461951129
1772614986643357200,5.119357177734375,-0.005665186154842377,0.10134791236519813,-0.04309795883721672
1772614986653424400,5.12942431640625,0.04056055844724178,0.09673603465557098,-0.07978581317011267
1772614986663492000,5.1394921875,0.08614391349256038,0.05530161598324775,-0.06755062837465665
1772614986673559300,5.149559326171875,0.12261837166994809,0.023465046739578246,-0.02960418881541118
1772614986683627000,5.159626953125,0.10560293946117162,-0.014956161591410637,-0.0127547973559238
1772614986693695200,5.1696953125,0.04007423623502254,-0.0375794968098402,-0.01722108344924636
1772614986703762200,5.17976220703125,-0.03125307026728987,-0.05419803865551948,-0.05279551948041189
1772614986713830100,5.189830078125,-0.09495309676155447,-0.043374446824192996,-0.06635302065450233
1772614986723897300,5.1998974609375,-0.13740999034941195,-0.020268296524882316,-0.07172434299588203
1772614986733965000,5.209965087890625,-0.12952449779659508,0.0038519992530345916,-0.07566436302566434
1772614986744033000,5.220032958984375,-0.07068798568546772,0.01953004537820816,-0.08900021623913199
1772614986754100200,5.230100341796875,0.004051321217417717,0.021130466312170026,-0.06375115845988039
1772614986764168200,5.240168212890625,0.05570961226224899,0.02274725385904312,-0.031071069330465977
1772614986774235100,5.250235107421875,0.08288169682621956,0.023240590333938597,-0.04619060479004401
1772614986784303000,5.26030322265625,0.11782032373845576,0.009686696755886078,-0.04058472934069578
1772614986794371000,5.27037109375,0.10754618248343467,-0.005457096362113952,-0.033275716935005036
1772614986804438000,5.28043798828125,0.09089899906516075,-0.004410802179574966,-0.03872056117032189
1772614986814506200,5.29050634765625,0.06033551849722862,0.005018704944849014,-0.02258563355654478
1772614986824573200,5.3005732421875,0.014143676164746283,0.028226562052965164,-0.002211333073652349
1772614986834641200,5.31064111328125,0.005154021762311459,0.04695405887663364,-0.01625050311773084
1772614986844709000,5.320709228515625,-0.005083440744131803,0.007739654341340064,-0.0714357216131175
1772614986854776000,5.330776123046875,0.005209405211359262,-0.009151859226822852,-0.10056197701874188
1772614986864844300,5.34084423828125,0.016341478469967842,-0.009160042533278465,-0.11985077012013644
1772614986874911200,5.3509111328125,0.011628624603897332,-0.01538169352710247,-0.1335103525623679
1772614986884979200,5.360979248046875,0.0013585750021040438,-0.03297287979722023,-0.13419492815989068
1772614986895047200,5.371047119140625,-0.009409487249702215,-0.021520926934480666,-0.10357734278454445
1772614986905114000,5.381114013671875,-0.007411591430753469,-0.008698270240426064,-0.09460080359200947
1772614986915182000,5.39118212890625,-0.015843465819954872,-0.013773673808574676,-0.10151382525032386
1772614986925249000,5.4012490234375,0.0025311259128153324,0.003890577697753906,-0.07881249289223924
1772614986935317200,5.411317138671875,0.03057809361517429,0.015326163947582244,-0.04152597397987265
1772614986945385200,5.42138525390625,0.02907324201017618,0.02910334488749504,-0.03218072020595428
1772614986955452200,5.4314521484375,0.037572774808108805,0.053290860682725906,-0.013343515930115244
1772614986965520100,5.44152001953125,0.03212649210095406,0.06952244903743267,0.013577626080089248
1772614986975587000,5.451587158203125,0.01856236938983202,0.08501578624546527,0.017192117649666033
1772614986985655300,5.4616552734375,0.010636106435209512,0.06543254937529563,-0.02634188538410235
1772614986995723300,5.47172314453125,0.007113193006068468,0.03277414235472679,-0.1152612503727898
1772614987005790200,5.481790283203125,-0.022456015827506778,0.009315525355935095,-0.10267761746584438
1772614987015858200,5.491858154296875,-0.04149667025357485,-0.019287468793988228,-0.06365392689679283
1772614987025925000,5.501925048828125,-0.042585926795005793,-0.04744038108885288,-0.08199530591312795
1772614987035993000,5.5119931640625,-0.06425707585513592,-0.024065350720286368,-0.05950629199831746
1772614987046061300,5.522061279296875,-0.06392623646557331,0.02563946816921234,-0.02291856443849392
1772614987056128300,5.532128173828125,-0.07440262229442596,0.07800210809111595,0.013192850846471264
1772614987066196200,5.5421962890625,-0.053097383937239645,0.11026011761724948,0.02501064591349568
1772614987076263200,5.55226318359375,-0.021216391029953954,0.11832476612925528,0.017360711115645244
1772614987086331100,5.5623310546875,0.037892508281767365,0.10832651920616626,-0.01895659743838478
1772614987096399400,5.5723994140625,0.08987696254104376,0.0685883830577135,-0.005998847689153626
1772614987106466300,5.58246630859375,0.11764730525910853,0.010384615892171859,0.032377261124784125
1772614987116534300,5.5925341796875,0.11959025602042675,-0.06491758559048176,0.0034265906149288637
1772614987126601200,5.602601318359375,0.07268763507008552,-0.11786650096774101,-0.08513387793349102
1772614987136669200,5.612669189453125,-0.010571370635926723,-0.15462825165390967,-0.1424802062857896
1772614987146737200,5.622737060546875,-0.07809212446212768,-0.14292612342238425,-0.17303219734532757
1772614987156804400,5.632804443359375,-0.13902794694006443,-0.1086865846902132,-0.168317589913588
1772614987166872300,5.642872314453125,-0.1554945130944252,-0.04581365666985512,-0.10116659184838644
1772614987176939300,5.652939208984375,-0.1419908883988857,-0.00009644611179828643,-0.026593549457076003
1772614987187007200,5.66300732421875,-0.09382979182004927,0.04357259974479675,0.0508185751179466
1772614987197075200,5.6730751953125,-0.04952683197408914,0.05214461325705051,0.08149602375463583
1772614987207142100,5.68314208984375,0.006496522412449121,0.05038227975964546,0.05971701670612674
1772614987217210400,5.69321044921875,0.04498801950067281,0.03434007649719715,0.034846825009514575
1772614987227278300,5.7032783203125,0.06747793759778141,0.009586158990859985,-0.006344610653212294
1772614987237345300,5.71334521484375,0.07568389427661895,-0.018401333609223365,-0.10733400103747844
1772614987247413200,5.723413330078125,0.06701631143540143,-0.051855274921655654,-0.14793958593653514
1772614987257480200,5.733480224609375,0.07957461810484528,-0.07257423782348632,-0.1395715340311639
1772614987267548400,5.74354833984375,0.05303308652937412,-0.053066404277086254,-0.13926035832329653
1772614987277615400,5.753615478515625,0.012712182056903838,-0.021024667850136756,-0.12353007968738675
1772614987287683300,5.763683349609375,-0.024146599262952803,0.047186698588728905,-0.030198400982050223
1772614987297751300,5.773751220703125,-0.06925999870896339,0.08715513636171818,0.05048598216271493
1772614987307818200,5.783818359375,-0.07230272740572691,0.0954237830132246,0.042983789839060045
1772614987317886200,5.79388623046875,-0.0711496118478477,0.10840192252993583,0.008102117278450168
1772614987327954200,5.8039541015625,-0.06106967799067497,0.11042027661502361,-0.027185912159923463
1772614987338021400,5.814021484375,-0.0305254866451025,0.09440963753461837,-0.07516108054548967
1772614987348089300,5.82408935546875,0.023485212744772433,0.07844342211782931,-0.08194297293769195
1772614987358156300,5.83415625,0.06831891846656798,0.07286416068077087,-0.06280802325771656
1772614987368224300,5.844224365234375,0.09485445869266987,0.05216039534807205,-0.03706838264965918
1772614987378292200,5.854292236328125,0.11941095393076538,0.017941314882040024,-0.036878696163301354
1772614987388359400,5.864359375,0.10591858128160238,0.011429741030931473,-0.025466467956174164
1772614987398427100,5.87442724609375,0.06234802736341953,-0.020741759255528448,-0.04403201568378135
1772614987408494300,5.884494384765625,0.02296367308869958,-0.01621522174179554,-0.06641157787474804
1772614987418562000,5.89456201171875,-0.01668225473165512,0.0014238953232765196,-0.0470855169363087
1772614987428630000,5.904630126953125,-0.07033844159543513,-0.00808452225625515,-0.04167995896518696
1772614987438697200,5.914697265625,-0.08148819664120674,-0.002034136176109314,-0.026710371636622585
1772614987448765200,5.92476513671875,-0.06409282520413398,0.0036450785040855406,-0.05371006334233097
1772614987458832400,5.934832275390625,-0.0706757107257843,-0.008106149566173552,-0.09049504877361468
1772614987468900000,5.944900146484375,-0.07212342531606554,-0.038171032962203026,-0.10821703094970435
1772614987478968000,5.954968017578125,-0.08215089833363891,-0.04002279830873012,-0.08394146241168492
1772614987489035000,5.965034912109375,-0.07001461646854877,-0.02639583949446678,-0.07146358230100013
1772614987499103200,5.975103271484375,-0.03584814297258854,-0.028715222352743146,-0.07482880268408916
1772614987509170200,5.985170166015625,-0.0059847734980285165,-0.007845452803373336,-0.04973004466230049
1772614987519238100,5.995238037109375,0.012979308560490607,0.009913491249084472,-0.022337001690873874
1772614987529306000,6.00530615234375,0.029997663378715515,0.02468085227012634,-0.029891947115072977
1772614987539373000,6.015373046875,0.050938160076737404,0.049582069292664524,-0.03433994406645652
1772614987549441000,6.02544091796875,0.06365764865726233,0.06352350088357925,-0.03218486209153198
1772614987559508200,6.03550830078125,0.07915361621379852,0.04360007227361202,-0.041363230299367566
1772614987569576200,6.045576171875,0.09346358885616063,0.011032850667834281,-0.10335985497580841
1772614987579643600,6.0556435546875,0.0846831932902336,-0.019345920982956885,-0.140059536743816
1772614987589710600,6.065710693359375,0.07691255928874015,-0.023004443490505216,-0.10418490762310102
1772614987599778600,6.075778564453125,0.05744798036217689,-0.00997545056939125,-0.053307784418063234
1772614987609845800,6.085845703125,0.023015695536881684,0.02183130805790424,-0.025272776581556536
1772614987619913500,6.09591357421875,-0.009627660045027733,0.019565116691589356,-0.009639697542693466
1772614987629981700,6.105981689453125,-0.02147884135842323,0.007348609197139739,0.009044352864893152
1772614987640048600,6.116048583984375,-0.040842297998070716,0.03441664886474609,-0.007199446517415344
1772614987650116600,6.12611669921875,-0.05037818810641765,0.05045066882073879,-0.04693104789380449
1772614987660184600,6.1361845703125,-0.07219707507416606,0.0375227981865406,-0.09566082490580156
1772614987670251500,6.14625146484375,-0.07307517308294773,0.019423077872395514,-0.1455741537131369
1772614987680319700,6.15631982421875,-0.06447261830195784,0.024130817171931267,-0.14857306153448296
1772614987690386700,6.16638671875,-0.016202362260222435,0.013499533042311667,-0.11572377158431335
1772614987700454700,6.17645458984375,0.025176526832580565,-0.011335048484802246,-0.06342314578164368
1772614987710522600,6.186522705078125,0.06786079943552613,-0.019347674548625945,-0.04729593111686408
1772614987720589600,6.196589599609375,0.05642535931617021,-0.0027525135785341263,-0.056736324961483474
1772614987730657500,6.206657470703125,0.040578824756294485,0.02886369091272354,-0.020686293608089906
1772614987740724500,6.216724365234375,0.030488807896524667,0.055308630245923994,0.05661196792945265
1772614987750792700,6.226792724609375,0.0185305129468441,0.07006196274161339,0.06324543286086991
1772614987760860700,6.236860595703125,-0.006782207486033439,0.06428337934017181,-0.02051111970427446
1772614987770927600,6.246927734375,0.011073182678222656,0.016838322076201437,-0.16716843814477322
1772614987780995600,6.25699560546875,0.020088848304748535,-0.04393675688207149,-0.24779592630341649
1772614987791062500,6.2670625,-0.014257365672290325,-0.03712298521399498,-0.17282396142212672
1772614987801130800,6.277130859375,-0.032059272083640095,0.011681085443496704,-0.03148282390255481
1772614987811198700,6.28719873046875,-0.035326164925098415,0.05048749369978905,0.03432054067966528
1772614987821265700,6.297265625,-0.02181786405444145,0.06277005216777325,0.06631826443495228
1772614987831333600,6.307333740234375,0.024846271964907643,0.05342646976113319,0.11758466095221229
1772614987841400600,6.317400634765625,0.06943944692909718,0.027226445099711418,0.14125249112173915
1772614987851468500,6.327468505859375,0.06829451467767357,-0.004067103308439255,0.06092180308573879
1772614987861536800,6.337536865234375,0.049298137784749264,-0.03479717261493206,-0.09300864816289395
1772614987871603700,6.347603759765625,-0.00100581604167819,-0.05258826537132263,-0.15559662176202982
1772614987881671700,6.357671630859375,-0.04886354575976729,-0.020426117435097695,-0.12158318340331316
1772614987891738600,6.367738525390625,-0.07034063355252146,0.00392915614247322,-0.09705983238299376
1772614987901806600,6.377806640625,-0.06603212270364164,0.024782559078931808,-0.05257926921411417
1772614987911874800,6.387874755859375,-0.030778876884281634,0.02532967156767845,-0.012221539862593635
1772614987921941800,6.397941650390625,0.021975100442767143,0.0032569559693336487,0.006962751684710383
1772614987932009700,6.408009765625,0.06420856053829192,-0.01576689345240593,0.005680383723974228
1772614987942076700,6.41807666015625,0.08009016641154885,-0.016487608942389487,-0.003771490495884791
1772614987952144600,6.42814453125,0.0657610506772995,-0.026823124995827674,-0.024944416843447833
1772614987962212600,6.438212646484375,0.022265900082886217,-0.02799801399409771,-0.03283500569649041
1772614987972279800,6.44827978515625,-0.009501987838745117,-0.008090951997041702,-0.051722451455378904
1772614987982347800,6.45834765625,-0.031097149053215978,-0.0002741407662630081,-0.09229753161831758
1772614987992415700,6.468415771484375,-0.019589082089066505,0.013103227201104163,-0.08118073812723159
1772614988002482700,6.478482666015625,-0.009874036021530627,0.03542027294933796,-0.05906849423609674
1772614988012550700,6.488550537109375,-0.006910802301764488,0.02789338457584381,-0.03583943907632492
1772614988022617600,6.49861767578125,0.004822597850859165,0.020761048477888105,-0.016874388903426005
1772614988032685800,6.508685791015625,-0.0010045008674263954,0.03272036634087563,-0.020036104337358845
1772614988042753800,6.51875390625,-0.011700959187746046,0.021395839250087735,-0.017923697026958688
1772614988052820700,6.52882080078125,-0.006820201408863067,0.020502689802646634,-0.017847526518208905
1772614988062888700,6.538888671875,-0.005642828192561865,0.06393383525013924,0.0018378372858744113
1772614988072955600,6.54895556640625,-0.009160919316112995,0.08714227688014507,0.042543256697058676
1772614988083024000,6.55902392578125,0.016247954967617988,0.06926175227463245,0.005741740256082266
1772614988093091800,6.569091796875,0.042507016339898104,0.04480827901959419,-0.05084348579691723
1772614988103158800,6.57915869140625,0.038731004932522774,0.03018354133963585,-0.04480382204018533
1772614988113226800,6.589226806640625,0.018704992730915547,0.0016278934627771376,-0.03732148519447073
1772614988123293700,6.599293701171875,0.008302695051580667,-0.021176059019565582,-0.06724070390895939
1772614988133361700,6.609361572265625,-0.009535597847402094,-0.024308511826395988,-0.05119542277343571
1772614988143429600,6.6194296875,-0.0019305296711623668,-0.02979951045811176,-0.032015853067021816
1772614988153496800,6.629496826171875,0.003343026817589998,-0.027529811960458755,-0.032461423143744464
1772614988163564800,6.639564697265625,0.011113076297193766,-0.004776712882518768,-0.008786377782141789
1772614988173631700,6.6496318359375,0.004991963068395853,0.014866729742288589,-0.0009728179543744772
1772614988183699700,6.65969970703125,-0.0070411506831645964,0.026745968106389045,-0.015178535637818276
1772614988193767700,6.669767578125,-0.030606735187768935,0.05314063855707645,-0.024608271091105416
1772614988203835000,6.6798349609375,-0.04398439541608095,0.05141922159194946,-0.0870673210809473
1772614988213902600,6.689902587890625,-0.03669964523538947,0.031234511697292328,-0.15079345013084822
1772614988223969800,6.6999697265625,-0.006188625507056713,0.0031090719312429427,-0.130024748069467
1772614988234037800,6.710037841796875,0.0579321106173098,0.0022077391773462295,-0.05484947003526613
1772614988244105500,6.72010546875,0.09420520100370049,0.006043956339359283,0.009845120454300194
1772614988254172700,6.730172607421875,0.09871829451397061,-0.006293547186255455,0.041979083475656806
1772614988264240600,6.74024072265625,0.0672260086633265,-0.0225303962379694,-0.03531117741852067
1772614988274307800,6.750307861328125,0.04047521825134754,-0.009805354699492454,-0.09271848784359171
1772614988284375600,6.76037548828125,0.01215761691406369,0.011418635115027427,-0.08008227536603808
1772614988294443500,6.770443603515625,-0.018881226080656052,0.03956044149398803,-0.05172217746074311
1772614988304510700,6.7805107421875,-0.02584112822115421,0.05213467638492584,-0.04902226171912625
1772614988314578700,6.79057861328125,-0.008381459376215934,0.02898001076877117,-0.02261979155447334
1772614988324646700,6.800646728515625,0.01677826245203614,-0.024374562799930572,-0.0032465076405555006
1772614988334713600,6.810713623046875,-0.0011363105535507202,-0.03041559652984142,-0.05152815272598527
1772614988344781600,6.820781494140625,-0.024294921692460773,-0.02167933236658573,-0.06867839029557071
1772614988354848500,6.8308486328125,-0.02735197117552161,-0.004693710774183273,-0.06518886767937801
1772614988364916500,6.84091650390625,-0.02053761498555541,0.04383271198570728,-0.013894313646713272
1772614988374984700,6.850984619140625,0.003958528367429971,0.06980243502259253,0.031804219610337164
1772614988385051600,6.8610517578125,0.02771218279004097,0.060794952702522276,-0.005860078539280221
1772614988395119600,6.87111962890625,0.04272226652577519,0.030814824980497358,-0.09033044192958622
1772614988405186600,6.8811865234375,0.0467816249191761,0.015060791009664535,-0.10219945116061717
1772614988415254500,6.891254638671875,0.03413505544438958,-0.006198854640126228,-0.05367037978591397
1772614988425322800,6.90132275390625,0.011193009665608405,-0.005129764103889465,-0.03931117944065481
1772614988435389700,6.9113896484375,-0.018347265334427355,-0.0017114800930023192,-0.08342010541870258
1772614988445457700,6.921457763671875,-0.030971769107878206,-0.017569558960199357,-0.1280412461020518
1772614988455524600,6.931524658203125,-0.027694793263822792,0.005990180325508117,-0.09028806409258396
1772614988465592600,6.941592529296875,-0.012539455838501452,0.04114215772747993,-0.0008525708418805151
1772614988475660500,6.95166064453125,-0.0031070261046290395,0.061648354661464684,0.03953671355852857
1772614988485727700,6.961727783203125,0.01483048938512802,0.05889116490781307,-0.03156750651132315
1772614988495795700,6.971795654296875,0.028022563913464544,0.05084580561816692,-0.10443569491324015
1772614988505862700,6.981862548828125,0.040058454144001006,0.0252490075469017,-0.0813915222005453
1772614988515930600,6.9919306640625,0.042885786524415014,0.01695639549791813,-0.06856081919735298
1772614988525998600,7.00199853515625,0.030623101800680157,0.0364203899025917,-0.06720802548206412
1772614988536065500,7.0120654296875,0.013265724286437033,0.037999768048524854,-0.06433221431742422
1772614988546133800,7.0221337890625,-0.0012125906601548194,0.031031682601571083,-0.08093240765566005
1772614988556200700,7.03220068359375,0.0016724632568657397,0.038621114817261694,-0.009288372487528248
1772614988566268700,7.0422685546875,0.020964023704081774,0.03766834413707256,0.04593576694587245
1772614988576336600,7.052336669921875,0.032338673546910286,0.022508768928050992,0.051810969989048314
1772614988586403600,7.062403564453125,0.03847381530106067,0.0007709843724966049,0.011119917029934003
1772614988596471800,7.072471923828125,0.008770750954747199,-0.015185294172167777,-0.022524423154909164
1772614988606538800,7.082538818359375,-0.02308569203317165,-0.016696867778897284,-0.06298004165664314
1772614988616606700,7.092606689453125,-0.066220777143538,-0.04066343429982662,-0.1547143773010932
1772614988626674700,7.1026748046875,-0.09890081147402524,-0.06431143639087676,-0.21107143888771532
1772614988636741600,7.11274169921875,-0.06295417656302452,-0.03075461922585964,-0.10599983895742333
1772614988646809600,7.1228095703125,-0.03480360235571861,0.002815641942620277,0.05572664559544064
1772614988656877800,7.1328779296875,-0.0047393034815788266,0.018261632877588273,0.1162546635906212
1772614988666944800,7.14294482421875,0.0311222834944725,0.01120411558151245,0.08186190705811604
1772614988677012700,7.1530126953125,0.052530105443298815,0.003987608331441879,0.01957205788902938
1772614988687079700,7.16307958984375,0.0679503774151206,0.004441781839728355,-0.030146533797495066
1772614988697147600,7.173147705078125,0.06154021811187267,-0.022383681243658065,-0.11312643030118197
1772614988707216000,7.1832158203125,0.04096972377002239,-0.026256723284721374,-0.15494064207132904
1772614988717282800,7.19328271484375,0.02650163795650005,-0.004465747237205505,-0.1248838415170554
1772614988727350800,7.203350830078125,-0.008088029387593268,-0.01263151803612709,-0.0957203091412317
1772614988737417700,7.213417724609375,-0.008324176231026648,0.0019616554617881772,-0.04307493415465578
1772614988747485700,7.223485595703125,-0.004645195457339287,0.042671266990900035,0.0285265679128468
1772614988757553700,7.2335537109375,-0.011494622960686682,0.06646306146681308,0.06982568803401663
1772614988767620600,7.24362060546875,-0.024552257454395293,0.058474400800466536,-0.004163092762511224
1772614988777688800,7.253688720703125,-0.04738748185783624,0.06930968306958675,-0.06718571318555623
1772614988787755800,7.263755859375,-0.053957800158858295,0.08191139048933982,-0.04206650603078305
1772614988797823700,7.27382373046875,-0.055685062342882154,0.06276712955832481,-0.05171150993625633
1772614988807891700,7.2838916015625,-0.023723405414819716,0.050307460957765573,-0.09279599179290235
1772614988817958700,7.293958740234375,0.025163959611952304,0.0314881941974163,-0.06255166930989361
1772614988828027000,7.30402685546875,0.05564034641832113,-0.0032236382216215133,-0.0019491795727051794
1772614988838093800,7.31409375,0.09593947745040059,-0.024036709147691727,-0.023864640516415236
1772614988848161800,7.324161865234375,0.11105623643100261,-0.03802197988033294,-0.04483493869765661
1772614988858229800,7.334229736328125,0.10153028319478034,-0.054558688661456106,-0.04862879628897644
1772614988868296700,7.344296630859375,0.06731997055709361,-0.04344985014796257,-0.029065789356082675
1772614988878364700,7.35436474609375,0.03092413057386875,-0.019305004450678825,-0.02768007061872631
1772614988888431900,7.364431884765625,-0.005095131181925535,-0.00793897630572319,-0.025982354189595207
1772614988898499800,7.374499755859375,-0.03759863990172744,-0.00034311434924602505,-0.033701385868014765
1772614988908567600,7.384567626953125,-0.04909560094997287,-0.009230185160040856,-0.05133092225398868
1772614988918634800,7.394634765625,-0.047235506166517734,-0.027118893072009084,-0.07464434949527494
1772614988928702700,7.40470263671875,-0.05882862106561661,-0.04265840750932693,-0.08208155942447483
1772614988938770700,7.414770751953125,-0.06734831986874341,-0.033864860200881954,-0.05018811802756972
1772614988948837600,7.424837646484375,-0.05487082335054874,-0.023808745610713958,-0.01147695030667819
1772614988958905600,7.434905517578125,-0.05090016615390777,-0.003925649011135101,-0.018672131640929727
1772614988968972800,7.444972900390625,-0.04959492877423763,0.01523439401090145,-0.07201877763150259
1772614988979040500,7.45504052734375,-0.027318507297337053,0.02124970877766609,-0.11466817985046654
1772614988989108500,7.4651083984375,0.02108925751894712,0.03151040602922439,-0.09239511937443166
1772614988999175700,7.47517578125,0.08415610067620873,0.03740355572104454,-0.06739006751808338
1772614989009243600,7.48524365234375,0.1049175875455141,0.04344634301662445,-0.07141653742203488
1772614989019310600,7.495310546875,0.09822364286482334,0.06381634635031223,-0.021439194334624333
1772614989029378600,7.505378662109375,0.0891933641910553,0.09526128592789172,0.03947460810774937
1772614989039446500,7.515446533203125,0.07337795542180538,0.09976151995658875,0.056312564857769754
1772614989049513500,7.525513427734375,0.052926849675923586,0.07886310883462429,-0.007352298991568386
1772614989059581700,7.535581787109375,0.014795125810801982,0.05815174471735954,-0.07443078894298523
1772614989069648600,7.545648681640625,-0.010694704754650591,0.04163432515859604,-0.12815102661945857
1772614989079716600,7.555716552734375,-0.025023674358427523,-0.008255787169933318,-0.19121924888305364
1772614989089784600,7.56578466796875,-0.04195581219792366,-0.023455109867453573,-0.1382678401546087
1772614989099851500,7.5758515625,-0.03528729421943426,0.010559387937188148,-0.03290134893096983
1772614989109919700,7.585919677734375,-0.05017155961841344,0.008586626559495925,-0.0020792082936968654
1772614989119986700,7.595986572265625,-0.056665013290941715,0.015546528699994086,-0.025565087758749723
1772614989130054700,7.6060546875,-0.04215396511852741,0.018825696501135827,-0.03793425593110732
1772614989140122600,7.61612255859375,-0.025680092440545556,0.009534721064567566,-0.030736197653179986
1772614989150189600,7.626189453125,-0.0191002756588161,0.003098550537228584,-0.024989488961035384
1772614989160257500,7.636257568359375,-0.015219780963659285,-0.005089432093501091,-0.0018474362312816083
1772614989170325800,7.64632568359375,0.0112172673240304,-0.00919511384665966,-0.03849200854487717
1772614989180392700,7.656392822265625,0.020697920113801956,-0.04206453326940536,-0.10728214298607781
1772614989190460700,7.666460693359375,0.027209640095382927,-0.04943126264512539,-0.124565377551876
1772614989200527600,7.676527587890625,0.030760610575228928,-0.03380465444624424,-0.11089411380500531
1772614989210595600,7.686595703125,0.050589492769539356,-0.01681903285384178,-0.051731986468704416
1772614989220663800,7.696663818359375,0.0396317531645298,-0.004926350486278533,-0.021020987188862635
1772614989230730800,7.706730712890625,0.05792027404904365,0.013346388307213783,-0.06740169402379542
1772614989240798700,7.716798828125,0.05716565628945827,0.026883915272355077,-0.06433284450508654
1772614989250865700,7.72686572265625,0.021966040353477,0.03178980749249458,-0.03769743323423899
1772614989260933600,7.73693359375,0.022403847248852252,0.02498947982788086,-0.04785823204158805
1772614989271001600,7.747001708984375,-0.0022980478093028067,0.02311374908387661,-0.09248948312699794
1772614989281068500,7.757068603515625,-0.011484393827617168,0.005191138902306556,-0.14769066180991938
1772614989291136800,7.76713671875,-0.019676760372519492,0.0028799393504858016,-0.09728679127297364
1772614989301203700,7.77720361328125,0.005297814147174358,0.01963058314323425,-0.02515307289175689
1772614989311271700,7.787271728515625,0.015351006127893923,0.021199439895153046,0.009935173357930033
1772614989321339600,7.797339599609375,0.0017886369824409484,0.016935937231779098,0.02704693294749595
1772614989331406600,7.807406494140625,-0.02369534836411476,0.019621815314888953,0.021289237070456147
1772614989341474800,7.817474853515625,-0.03609598025381565,0.03272854964733123,-0.035209753737505525
1772614989351541800,7.827541748046875,-0.055215545134991405,0.04204349048137664,-0.08797127505019306
1772614989361609700,7.837609619140625,-0.058939534094184634,0.05105623349845409,-0.12084149819053709
1772614989371677700,7.847677734375,-0.04855959437713027,0.04725450312793254,-0.09472972720130346
1772614989381744600,7.85774462890625,-0.04776888239085674,0.05273381132185459,-0.07773121872786432
1772614989391812600,7.8678125,-0.02973199817985296,0.04099719629883766,-0.016547239308292046
1772614989401879800,7.8778798828125,-0.02283171727210283,0.021305238357186316,0.013105391758726909
1772614989411947800,7.88794775390625,-0.0057400049567222595,-0.0012654898911714553,-0.009583884835382923
1772614989422015700,7.898015625,0.011015315011143684,-0.01772796439230442,-0.021551879195170476
1772614989432082700,7.908082763671875,0.0273795898348093,-0.01898410193324089,-0.057079046585084864
1772614989442150700,7.918150634765625,0.033336452412605286,-0.042024785780906675,-0.06866611533588729
1772614989452217600,7.928217529296875,0.02088496711850166,-0.03588321428596973,-0.05791582620278932
1772614989462285800,7.938285888671875,-0.01683306137919426,-0.04613631275296211,-0.07378534891260788
1772614989472353800,7.948353759765625,-0.022834347620606422,-0.03469663484990597,-0.09784047963297925
1772614989482420700,7.958420654296875,-0.05592179370820522,-0.008083937734365464,-0.06676574334097095
1772614989492488700,7.96848876953125,-0.06721563339978456,0.0119862058699131,-0.05060530226002447
1772614989502556700,7.978556640625,-0.04233867403566837,0.049693128451704975,0.0029349666065070774
1772614989512623900,7.988623779296875,-0.017379004824161527,0.05484393534362316,0.042643611798994244
1772614989522691800,7.99869189453125,0.008772650650888681,0.04746610005199909,0.011253973472071811
1772614989532758800,8.0087587890625,0.026551322317123413,0.04797404957413673,-0.0497710799255874
1772614989542826800,8.01882666015625,0.03807049519717693,0.027755437409877775,-0.0769261220232118
1772614989552894700,8.028894775390626,0.03761632168889045,0.01887245825231075,-0.039622455613221974
1772614989562961700,8.038961669921875,0.019880466251075268,0.010120411998033523,-0.05918373637991026
1772614989573029600,8.049029541015624,0.014895371314883232,-0.02214110465943813,-0.10160501979826948
1772614989583097000,8.05909716796875,0.009055413115024566,-0.06449205365478992,-0.09667478772131725
1772614989593164800,8.069164794921875,-0.007579495343565941,-0.07706044332683086,-0.053914271544385696
1772614989603232800,8.079232666015624,-0.004792494973540306,-0.0608113193154335,-0.011303529968531801
1772614989613300000,8.089300048828125,-0.00859948604106903,-0.04713584518432617,0.016115990017866715
1772614989623368000,8.099367919921875,0.006190379072725773,-0.025575170761346817,-0.020140267964731902
1772614989633435100,8.10943505859375,-0.006100654962658882,-0.007120061138272285,-0.01846150283124298
1772614989643502800,8.1195029296875,-0.02706687062382698,0.020338439151644707,-0.04142621709955856
1772614989653570800,8.12957080078125,-0.02615253225788474,0.0367734411239624,-0.12033504650574177
1772614989663637800,8.1396376953125,-0.027746377320587632,0.02955167317688465,-0.11249392281761392
1772614989673705700,8.149705810546875,-0.0038601825594902035,0.02172024889886379,-0.07550108505561948
1772614989683774000,8.15977392578125,0.018033815471082924,0.03029401597678661,-0.028331173204910007
1772614989693841000,8.1698408203125,0.036224282808601856,0.04358136757314205,-0.028280411132052537
1772614989703908900,8.179908935546875,0.04055705131590366,0.04673077151477337,-0.031115470161195844
1772614989713975800,8.189975830078126,0.033261195219308134,0.05908405713140964,-0.010993833831697702
1772614989724043800,8.200043701171875,0.018272008141130208,0.05256663806140423,-0.01005100002363324
1772614989734112000,8.210112060546875,-0.008021101631224156,0.058791211664676664,-0.02874508776804432
1772614989744179000,8.220178955078126,-0.017166238856315612,0.06633388212919235,-0.025116321077942847
1772614989754247000,8.230246826171875,-0.024428046552836893,0.05442775575816631,-0.02774849621243775
1772614989764313900,8.24031396484375,-0.022760990123450755,0.050723640543222426,-0.060993891074415295
1772614989774381800,8.2503818359375,0.00314078224375844,0.046049803513288495,-0.08431954760961234
1772614989784449800,8.26044970703125,0.039048400318622584,0.04898527244329452,-0.07760465147243813
1772614989794517000,8.27051708984375,0.05340951862633228,0.05219780474901199,-0.045771790289506314
1772614989804585000,8.2805849609375,0.062194882628321645,0.05465396572947502,-0.02127009397856891
1772614989814652000,8.29065185546875,0.037647301349043844,0.08464344580173493,0.011688830358535051
1772614989824720000,8.300719970703126,0.03014730098247528,0.09066226769983768,0.01005498207900673
1772614989834787800,8.310787841796875,0.019120441664010286,0.06330430517494678,-0.019904084588680416
1772614989844854800,8.320854736328124,0.02599792621806264,0.06364157430529593,-0.0406758005910553
1772614989854923000,8.330923095703126,0.013489742300659417,0.04369184221029281,0.0040335663650184865
1772614989864990000,8.340989990234375,-0.011204700103402137,0.012295417949557304,-0.0667389740650542
1772614989875058000,8.351057861328124,-0.031482202848047015,-0.02492752050757408,-0.05768993589188903
1772614989885126000,8.3611259765625,-0.04731353983879089,-0.0363724591076374,-0.07235924336593598
1772614989895192800,8.37119287109375,-0.05654869343489408,-0.01203589023053646,-0.03335817105406895
1772614989905261000,8.381260986328124,-0.050658174091577524,-0.0065413844674825665,-0.007415756149217486
1772614989915329000,8.3913291015625,0.026128712990880012,-0.003319499811530113,-0.0478904812102206
1772614989925396000,8.40139599609375,0.09219517635554075,-0.007062777993083,-0.06285877163084223
1772614989935464000,8.4114638671875,0.14039163650870323,-0.015112228935956954,-0.03825040007503703
1772614989945531000,8.42153076171875,0.18410042985379696,-0.011202946537733077,-0.03673458868460729
1772614989955598800,8.431598876953124,0.17556114956736563,-0.020095862567424773,-0.03523963741911575
1772614989965667000,8.4416669921875,0.1217097323924303,-0.03961071037650108,-0.08048703850833698
1772614989975734000,8.451734130859375,0.06493044507205487,-0.0029500819772481915,-0.06533862401414663
1772614989985802000,8.461802001953124,-0.04827069443315267,0.021704466807842254,-0.030284608827624467
1772614989995869000,8.471868896484375,-0.14228548743128774,0.04379471806287765,-0.021891532078851014
1772614990005937000,8.48193701171875,-0.17344678776189684,0.032819735062122345,-0.06762233277084305
1772614990016005000,8.492005126953124,-0.17203998970389364,0.02687690100967884,-0.13421311227055266
1772614990026072000,8.502072021484375,-0.16935776488259432,0.04505728534460068,-0.07680462366854772
1772614990036140000,8.51214013671875,-0.13069675644636153,0.0314577990591526,0.02080746316919103
1772614990046207000,8.52220703125,-0.0357844300866127,0.00781739575266838,0.05004460877049714
