time,seconds_elapsed,z,y,x
1772614981599489300,0.0754892578125,-0.0029624025337398052,0.02252127416431904,-0.03773324936628342
1772614981609557200,0.08555712890625,0.00039397936780005693,0.03005588985979557,-0.028561055660247803
1772614981619625200,0.095625244140625,0.004840553272515535,0.03488386794924736,-0.022606343030929565
1772614981629692200,0.105692138671875,0.009286168031394482,0.03197596222162247,-0.012474345974624157
1772614981639760100,0.115760009765625,0.00858993735164404,0.030744681134819984,0.0032701867166906595
1772614981649827300,0.125827392578125,0.009988097473978996,0.029424818232655525,0.012358756735920906
1772614981659895300,0.135895263671875,0.015295963734388351,0.02776051126420498,0.023478176444768906
1772614981669963000,0.145962890625,0.021023623645305634,0.026484057307243347,0.02898293174803257
1772614981680030200,0.1560302734375,0.020223170518875122,0.020107567310333252,0.03094269335269928
1772614981690098200,0.16609814453125,0.015947731211781502,0.02159654162824154,0.0262488704174757
1772614981700165400,0.176165283203125,0.007324829697608948,0.026496872305870056,0.016339002177119255
1772614981710233000,0.186233154296875,-0.001001543365418911,0.029852455481886864,0.004108700901269913
1772614981720301000,0.196301025390625,0.000027155736461281776,0.028727971017360687,-0.0029263808391988277
1772614981730368300,0.2063681640625,0.004265043884515762,0.02766643464565277,-0.003985786344856024
1772614981740436000,0.21643603515625,0.009025219827890396,0.028039930388331413,-0.009314827620983124
1772614981750503200,0.226503173828125,0.016803516075015068,0.028788011521100998,-0.009179805405437946
1772614981760571100,0.236571044921875,0.011058810167014599,0.027287587523460388,-0.008977404795587063
1772614981770639000,0.24663916015625,0.011229783296585083,0.017775770276784897,-0.007436539512127638
1772614981780706000,0.2567060546875,0.012254195287823677,0.01660318486392498,-0.003363042138516903
1772614981790774000,0.26677392578125,0.012221172451972961,0.01491607166826725,-0.0005462166154757142
1772614981800841200,0.27684130859375,0.012962384149432182,0.01479709055274725,-0.00004288880154490471
1772614981810909200,0.2869091796875,0.013860136270523071,0.012496385723352432,0.0029169481713324785
1772614981820977200,0.29697705078125,0.013982865028083324,0.0107222069054842,0.009488973766565323
1772614981831044000,0.307044189453125,0.010805182158946991,0.006337312050163746,0.01361820474267006
1772614981841112000,0.317112060546875,0.022251302376389503,0.007505789399147034,0.014826993457973003
1772614981851179000,0.327178955078125,0.02198898047208786,0.010028069838881493,0.016783617436885834
1772614981861247000,0.3372470703125,0.017330152913928032,0.005359616130590439,0.012436123564839363
1772614981871315200,0.347315185546875,0.014701878651976585,-0.000006919959560036659,0.011494429782032967
1772614981881382100,0.357382080078125,0.008863312192261219,0.003395315259695053,0.009152686223387718
1772614981891450000,0.3674501953125,0.006255278363823891,0.005569254048168659,0.010123941116034985
1772614981901517000,0.37751708984375,0.011198610067367554,0.007693759631365538,0.014965575188398361
1772614981911585000,0.3875849609375,0.01712867058813572,0.005497716832906008,0.01387048326432705
1772614981921653200,0.3976533203125,0.01641961745917797,0.00295185181312263,0.012637458741664886
1772614981931720200,0.40772021484375,0.009979561902582645,0.009476330131292343,0.007067722734063864
1772614981941788200,0.4177880859375,0.004204831086099148,0.004972410388290882,0.005250590853393078
1772614981951855000,0.427855224609375,-0.004314355552196503,-0.0023528803139925003,0.00012959842570126057
1772614981961923000,0.437923095703125,-0.00639289990067482,-0.0023309113457798958,-0.009271854534745216
1772614981971991000,0.447990966796875,-0.003284991253167391,0.0008204069454222918,-0.01260693185031414
1772614981982058200,0.458058349609375,0.0008729894179850817,0.0016554930480197072,-0.010221671313047409
1772614981992126200,0.468126220703125,0.0022114941384643316,-0.00015492388047277927,-0.0034854712430387735
1772614982002193200,0.478193115234375,0.0026699707377701998,0.001733836135827005,0.005778045393526554
1772614982012261000,0.48826123046875,0.0030244372319430113,-0.0009413089137524366,0.01752498187124729
1772614982022329000,0.4983291015625,0.005646692123264074,-0.002122087636962533,0.02785310335457325
1772614982032396000,0.50839599609375,0.003848259337246418,-0.008068660274147987,0.027687454596161842
1772614982042464300,0.51846435546875,-0.0012816545786336064,-0.010347224771976471,0.020521041005849838
1772614982052531200,0.52853125,0.0009609932312741876,-0.014094559475779533,0.006284848786890507
1772614982062599200,0.53859912109375,0.0037274453788995743,-0.014652806334197521,-0.0059149968437850475
1772614982072667100,0.548667236328125,0.0031530014239251614,-0.005855320952832699,-0.012350792065262794
1772614982082734000,0.558734130859375,0.001392281032167375,-0.007809418253600597,-0.013912099413573742
1772614982092802300,0.56880224609375,0.0035483762621879578,-0.012131462804973125,-0.017980078235268593
1772614982102869200,0.578869140625,0.0020275223068892956,-0.00846065953373909,-0.018885161727666855
1772614982112937200,0.588937255859375,0.005142621695995331,-0.00897092092782259,-0.019721396267414093
1772614982123005200,0.599005126953125,0.005927268881350756,-0.012072073295712471,-0.017437126487493515
1772614982133072100,0.609072021484375,0.0009056124836206436,-0.0056115104816854,-0.018627559766173363
1772614982143140000,0.61914013671875,-0.001987459370866418,-0.004916524514555931,-0.006647671572864056
1772614982153207000,0.62920703125,-0.00478937104344368,-0.005045954138040543,-0.010836024768650532
1772614982163275300,0.639275146484375,0.005372480023652315,-0.0013266156893223524,-0.015112756751477718
1772614982173343200,0.64934326171875,0.01293132919818163,-0.0018973310943692923,-0.01895223557949066
1772614982183410200,0.65941015625,0.01650204136967659,-0.009440670721232891,-0.026219815015792847
1772614982193478100,0.66947802734375,0.01379520632326603,-0.013445000164210796,-0.02472871169447899
1772614982203545000,0.679545166015625,0.008811352774500847,-0.012700993567705154,-0.022155694663524628
1772614982213613300,0.68961328125,-0.001262320438399911,-0.010605087503790855,-0.01579952985048294
1772614982223681300,0.699681396484375,-0.011536370031535625,-0.008257045410573483,-0.010976392775774002
1772614982233748200,0.709748291015625,-0.01599263772368431,0.0008770646527409554,-0.00633050873875618
1772614982243816200,0.719816162109375,-0.01232325378805399,0.006021326407790184,-0.0056358808651566505
1772614982253883100,0.729883056640625,-0.009683794341981411,0.0034721484407782555,-0.0020680439192801714
1772614982263951000,0.739951171875,-0.00541748758405447,0.00024756602942943573,-0.0021746084094047546
1772614982274019300,0.750019287109375,0.0007293544476851821,-0.001709058415144682,-0.004206067882478237
1772614982284086300,0.760086181640625,-0.0013026805827394128,-0.0029115979559719563,-0.005688325501978397
1772614982294154200,0.770154296875,-0.001187365734949708,-0.009734084829688072,-0.011943558230996132
1772614982304221200,0.78022119140625,-0.006348517723381519,-0.01495481375604868,-0.009470777586102486
1772614982314289200,0.7902890625,-0.011125429533421993,-0.011588310822844505,-0.016568368300795555
1772614982324357400,0.800357421875,-0.013295880518853664,-0.008501207455992699,-0.01901896856725216
1772614982334424300,0.81042431640625,-0.008073154836893082,-0.009324923157691956,-0.02413623221218586
1772614982344492300,0.8204921875,-0.011675944551825523,-0.0035809632390737534,-0.02756921574473381
1772614982354559200,0.830559326171875,-0.017933841794729233,0.002948308829218149,-0.03106381557881832
1772614982364627200,0.840627197265625,-0.020668067038059235,0.0020500742830336094,-0.025170335546135902
1772614982374694100,0.850694091796875,-0.02437811717391014,-0.002214445499703288,-0.010139189660549164
1772614982384762400,0.860762451171875,-0.022124819457530975,-0.00023978273384273052,0.002511050086468458
1772614982394830300,0.870830322265625,-0.01937830075621605,0.002721918746829033,0.018528100103139877
1772614982404897300,0.880897216796875,-0.015436768531799316,0.0017207718919962645,0.025392744690179825
1772614982414965200,0.89096533203125,-0.013968301005661488,0.006387695670127869,0.027500901371240616
1772614982425032200,0.9010322265625,-0.009924025274813175,-0.0010888627730309963,0.02336874231696129
1772614982435100200,0.91110009765625,-0.003026171587407589,-0.006334491074085236,0.010752548463642597
1772614982445168400,0.92116845703125,0.001255352282896638,-0.008482646197080612,-0.0014552868669852614
1772614982455235300,0.9312353515625,0.0017240687739104033,-0.006330013275146484,-0.009932128712534904
1772614982465303300,0.94130322265625,-0.006175117567181587,-0.002872810233384371,-0.015389041975140572
1772614982475370200,0.951370361328125,-0.01835055649280548,-0.002326329704374075,-0.016482003033161163
1772614982485438200,0.961438232421875,-0.021769605576992035,0.0014501273399218917,-0.01051423978060484
1772614982495506200,0.971506103515625,-0.030028600245714188,0.00811841618269682,-0.008558680303394794
1772614982505573400,0.981573486328125,-0.03031609021127224,0.009745643474161625,-0.0026998387183994055
1772614982515641000,0.99164111328125,-0.024194814264774323,0.00851393211632967,0.00006532133556902409
1772614982525708300,1.001708251953125,-0.01552815455943346,0.004850735422223806,0.0008118620608001947
1772614982535776300,1.0117763671875,-0.0046581970527768135,-0.0024537828285247087,0.0028750128112733364
1772614982545844000,1.021843994140625,-0.0000223526731133461,-0.00697439955547452,0.006053838413208723
1772614982555911200,1.0319111328125,0.0022679658140987158,-0.005195674020797014,0.007133483421057463
1772614982565979100,1.041979248046875,0.0036550075747072697,-0.008550173602998257,0.005161622539162636
1772614982576046300,1.05204638671875,0.001437925617210567,-0.0036853773053735495,0.005389322992414236
1772614982586114300,1.0621142578125,-0.004587168805301189,-0.00038494192995131016,-0.004078621976077557
1772614982596182300,1.072182373046875,-0.011793683283030987,-0.001113316509872675,-0.010829202830791473
1772614982606249200,1.082249267578125,-0.018114974722266197,-0.0019466306548565626,-0.016942843794822693
1772614982616317200,1.092317138671875,-0.01783827319741249,0.0018939138390123844,-0.02281351573765278
1772614982626384400,1.10238427734375,-0.012637706473469734,-0.010338987223803997,-0.019869200885295868
1772614982636452000,1.1124521484375,-0.0053829895332455635,-0.010611161589622498,-0.015140492469072342
1772614982646520300,1.122520263671875,-0.00020808156114071608,-0.004052179865539074,-0.004554713144898415
1772614982656587300,1.132587158203125,-0.001763633918017149,0.0007795928977429867,0.0035753853153437376
1772614982666655200,1.1426552734375,-0.0012034110259264708,-0.0013496715109795332,0.012859048321843147
1772614982676722200,1.15272216796875,0.00286190421320498,-0.0011856204364448786,0.015870286151766777
1772614982686790100,1.1627900390625,0.003006700426340103,0.005519053898751736,0.014065918512642384
1772614982696858400,1.1728583984375,-0.003944150172173977,0.011057630181312561,0.009222960099577904
1772614982706925300,1.18292529296875,-0.0038755605928599834,0.008621754124760628,0.0030199449975043535
1772614982716993300,1.1929931640625,-0.004243875853717327,0.0040850588120520115,-0.001193441916257143
1772614982727060200,1.203060302734375,-0.003826678264886141,0.006245266180485487,-0.006492313928902149
1772614982737128200,1.213128173828125,-0.004897268954664469,0.01121499016880989,-0.01001993753015995
1772614982747196200,1.223196044921875,-0.003918810281902552,0.010220915079116821,-0.004966457840055227
1772614982757263000,1.23326318359375,-0.0013222282286733389,0.004441855475306511,-0.003870300715789199
1772614982767331300,1.243331298828125,-0.0027295355685055256,0.006608155556023121,0.0039107161574065685
1772614982777398300,1.253398193359375,-0.003164429683238268,0.011108631268143654,0.00483989343047142
1772614982787466200,1.26346630859375,-0.00222163088619709,0.008644724264740944,0.006055531091988087
1772614982797534200,1.2735341796875,-0.009086727164685726,0.0032864443492144346,-0.0009310056921094656
1772614982807601200,1.28360107421875,-0.012790904380381107,0.005850617773830891,-0.009303586557507515
1772614982817669400,1.29366943359375,-0.009402564726769924,0.008811254054307938,-0.009168297983705997
1772614982827736300,1.303736328125,-0.0013382205506786704,0.005977352149784565,-0.007018021773546934
1772614982837804300,1.31380419921875,0.008764214813709259,0.007982445880770683,-0.004968186840415001
1772614982847872300,1.323872314453125,0.009326355531811714,0.009269687347114086,-0.0006408540066331625
1772614982857939200,1.333939208984375,0.004209890961647034,0.010512318462133408,0.006413326598703861
1772614982868007200,1.344007080078125,0.0011802786029875278,0.012253759428858757,0.008747854270040989
1772614982878074400,1.354074462890625,0.0038351838011294603,0.010321635752916336,0.008939601480960846
1772614982888142300,1.364142333984375,0.00884885061532259,0.008715483359992504,0.0010430626571178436
1772614982898210300,1.374210205078125,0.007852828130126,0.005154836922883987,-0.009988815523684025
1772614982908277200,1.38427734375,0.008390373550355434,0.0058111888356506824,-0.018969547003507614
1772614982918345200,1.39434521484375,0.0023071817122399807,0.004964037332683802,-0.017780978232622147
1772614982928412200,1.404412109375,-0.002738244365900755,0.007490826770663261,-0.010882001370191574
1772614982938480400,1.41448046875,-0.006550293415784836,0.016722140833735466,0.005091904196888208
1772614982948548400,1.42454833984375,-0.007444356102496386,0.023376531898975372,0.022970331832766533
1772614982958615300,1.434615234375,-0.009960509836673737,0.02275095507502556,0.03720385953783989
1772614982968683300,1.444683349609375,-0.00872110202908516,0.025631196796894073,0.044602084904909134
1772614982978750200,1.454750244140625,-0.005036618560552597,0.01694609597325325,0.03734204173088074
1772614982988818400,1.464818359375,-0.002739201532676816,0.014229686930775642,0.020586777478456497
1772614982998886400,1.474886474609375,-0.0030175019055604935,0.0052116913720965385,0.005541514605283737
1772614983008953300,1.484953369140625,-0.003295203670859337,-0.0005037018563598394,-0.008634811267256737
1772614983019021300,1.495021240234375,-0.008781582117080688,-0.003999633714556694,-0.020950067788362503
1772614983029088300,1.505088134765625,-0.016781024634838104,0.003661751514300704,-0.023597054183483124
1772614983039156200,1.51515625,-0.017272645607590675,0.004297980573028326,-0.021614596247673035
1772614983049224400,1.525224365234375,-0.02087784744799137,0.004753281828016043,-0.015740007162094116
1772614983059291400,1.53529150390625,-0.024378571659326553,0.006912839598953724,-0.010733530856668949
1772614983069359400,1.545359375,-0.026633718982338905,0.007884248159825802,-0.001979819033294916
1772614983079426300,1.55542626953125,-0.02653944306075573,0.0095601761713624,0.001281221630051732
1772614983089494300,1.565494384765625,-0.025575274601578712,0.008095964789390564,0.00970541313290596
1772614983099562500,1.5755625,-0.020703820511698723,0.004567808471620083,0.01382425706833601
1772614983109629400,1.58562939453125,-0.0069752903655171394,0.0035546552389860153,0.01627490669488907
1772614983119697400,1.595697509765625,0.0019180697854608297,0.0007287750486284494,0.010638858191668987
1772614983129764400,1.605764404296875,0.006887233816087246,0.003927138168364763,0.006235902197659016
1772614983139832300,1.615832275390625,0.002448011189699173,0.005714918486773968,0.006956820376217365
1772614983149900300,1.625900390625,-0.008398734033107758,0.005387260112911463,-0.00024295784533023834
1772614983159967200,1.63596728515625,-0.01250106655061245,0.010150856338441372,-0.0018618934554979205
1772614983170035500,1.646035400390625,-0.01189082209020853,0.013733822852373123,-0.011080391705036163
1772614983180102400,1.656102294921875,-0.008082502521574497,0.015061409212648869,-0.014227183535695076
1772614983190170400,1.66617041015625,-0.0016474376898258924,0.006913024466484785,-0.013802425004541874
1772614983200238300,1.67623828125,-0.0007403650670312345,-0.003496206598356366,-0.008920584805309772
1772614983210305300,1.68630517578125,0.002584523521363735,-0.004905907437205315,-0.0063532814383506775
1772614983220373500,1.69637353515625,0.002543776761740446,-0.006434561684727669,-0.005721579771488905
1772614983230440400,1.7064404296875,0.0005628109211102128,-0.004557562060654163,0.0011988389305770397
1772614983240508400,1.71650830078125,-0.0018169897375628352,0.0005631635431200266,0.00931162666529417
1772614983250575400,1.726575439453125,0.0010286375181749463,0.007943099364638329,0.013775256462395191
1772614983260643300,1.736643310546875,-0.0027511869557201862,0.009119683876633644,0.016366776078939438
1772614983270711300,1.746711181640625,-0.011302930302917957,0.009024856612086296,0.007693450897932053
1772614983280778500,1.756778564453125,-0.015328031964600086,0.006330270320177078,0.00019239145331084728
1772614983290846500,1.766846435546875,-0.01863194815814495,0.0052397060208022594,-0.0031275050714612007
1772614983300913400,1.776913330078125,-0.015692617744207382,0.002974953968077898,-0.007627448532730341
1772614983310981400,1.7869814453125,-0.002386396750807762,-0.0003810885827988386,-0.008092135190963745
1772614983321049000,1.797049072265625,0.004131956025958061,-0.005452812183648348,-0.007777082733809948
1772614983331116300,1.8071162109375,0.002945501822978258,-0.006582750007510185,0.00017170840874314308
1772614983341184300,1.817184326171875,-0.0016958551714196801,-0.00814336258918047,0.0007208522874861956
1772614983351251500,1.82725146484375,-0.006253004539757967,-0.006224620155990124,0.004155346192419529
1772614983361319400,1.8373193359375,-0.003198891179636121,-0.005839260295033455,0.006066164933145046
1772614983371387100,1.84738720703125,-0.0015898221172392368,-0.00812007300555706,0.006979229860007763
1772614983381454300,1.857454345703125,-0.003434327431023121,-0.010379232466220856,0.005177068989723921
1772614983391522300,1.867522216796875,-0.0027694555465132,-0.011171671561896801,-0.003980191424489021
1772614983401589500,1.877589599609375,-0.005978298373520374,-0.013465452007949352,-0.015444567427039146
1772614983411657200,1.8876572265625,-0.004450904205441475,-0.008475075475871563,-0.016965117305517197
1772614983421725200,1.89772509765625,0.0009427957702428102,-0.007787980139255524,-0.025970596820116043
1772614983431792400,1.90779248046875,0.006454961374402046,-0.003746615955606103,-0.023992251604795456
1772614983441860000,1.917860107421875,0.010644912719726562,-0.008013532496988773,-0.01588292606174946
1772614983451927300,1.92792724609375,0.008948719128966331,-0.008970835246145725,-0.009213036857545376
1772614983461995300,1.937995361328125,0.009698932059109211,-0.009780170395970345,-0.00590006448328495
1772614983472063200,1.948063232421875,0.011899275705218315,-0.010647778399288654,0.0004717197734862566
1772614983482130200,1.958130126953125,0.015924641862511635,-0.010960167273879051,0.0036430119071155787
1772614983492198100,1.9681982421875,0.018591653555631638,-0.01443544402718544,0.003185728332027793
1772614983502265000,1.97826513671875,0.02185828611254692,-0.01557847298681736,-0.003728903364390135
1772614983512333300,1.988333251953125,0.0202949196100235,-0.013032403774559498,-0.011404077522456646
1772614983522401300,1.9984013671875,0.013416772708296776,-0.004641582258045673,-0.014436352998018265
1772614983532468200,2.00846826171875,0.0007070474093779922,-0.007820801809430122,-0.020473280921578407
1772614983542536200,2.0185361328125,-0.014024494215846062,0.0008118350524455309,-0.020520951598882675
1772614983552603100,2.02860302734375,-0.020242510363459587,0.00496554933488369,-0.019498508423566818
1772614983562671000,2.038671142578125,-0.020273935049772263,0.010297996923327446,-0.01751977950334549
1772614983572739300,2.0487392578125,-0.010646140202879906,0.007984030991792679,-0.01602565124630928
1772614983582806300,2.05880615234375,0.004918172024190426,0.0009088106453418732,-0.012246625497937202
1772614983592874200,2.068874267578125,0.014585431665182114,-0.0037654570769518614,-0.014690779149532318
1772614983602941200,2.078941162109375,0.016413426026701927,-0.0062704263255000114,-0.012249459512531757
1772614983613009400,2.089009521484375,0.01825062185525894,-0.010152398608624935,-0.00493826437741518
1772614983623077400,2.099077392578125,0.014314468950033188,-0.00584846455603838,-0.0019384794868528843
1772614983633144300,2.109144287109375,0.01569739542901516,-0.005499792285263538,0.008821677416563034
1772614983643212300,2.11921240234375,0.01028531976044178,-0.0035743264015764,0.020485257729887962
1772614983653279200,2.129279296875,-0.0020453818142414093,0.007185181602835655,0.025655826553702354
1772614983663347200,2.13934716796875,-0.015797678381204605,0.013624705374240875,0.0186541099101305
1772614983673415400,2.14941552734375,-0.01891274005174637,0.010877970606088638,0.009799003601074219
1772614983683482400,2.159482421875,-0.01633506454527378,0.00800415314733982,-0.0006432507652789354
1772614983693550300,2.16955029296875,-0.009640185162425041,0.006214459426701069,-0.007958859205245972
1772614983703617300,2.1796171875,-0.004498685710132122,0.005616046953946352,-0.013913687318563461
1772614983713685200,2.189685302734375,-0.0009346050210297108,0.002029066439718008,-0.0084004495292902
1772614983723753500,2.19975341796875,0.005156576633453369,0.0003912225365638733,-0.002021912019699812
1772614983733820400,2.2098203125,0.00554296188056469,0.00042153289541602135,0.00537271611392498
1772614983743888400,2.219888427734375,0.004066239111125469,0.001783739891834557,0.009932047687470913
1772614983753955300,2.229955322265625,-0.0007565987762063742,0.006468357518315315,0.009772809222340584
1772614983764023300,2.240023193359375,-0.009887779131531715,0.008736838586628437,0.00493810698390007
1772614983774091300,2.25009130859375,-0.019286582246422768,0.009863251820206642,0.007005516439676285
1772614983784158200,2.260158203125,-0.026496291160583496,0.011544238775968552,0.002906378824263811
1772614983794226400,2.270226318359375,-0.01840420998632908,0.01825089566409588,0.004683983512222767
1772614983804293400,2.28029345703125,-0.01029222086071968,0.019850123673677444,0.00885449443012476
1772614983814361300,2.290361328125,-0.005870570428669453,0.017574524506926537,0.013196813873946667
1772614983824429300,2.30042919921875,0.0026012114249169827,0.012988029979169369,0.01662110723555088
1772614983834496300,2.310496337890625,0.012446940876543522,0.0019374042749404907,0.014517213217914104
1772614983844564500,2.320564453125,0.01638921909034252,-0.0016967453993856907,0.006411349400877953
1772614983854631400,2.33063134765625,0.020965300500392914,-0.008713876828551292,-0.0005459319800138474
1772614983864699400,2.340699462890625,0.017314638942480087,-0.008079512044787407,-0.007414490915834904
1772614983874767400,2.350767333984375,0.004527658224105835,-0.004928292240947485,-0.009521925821900368
1772614983884834300,2.360834228515625,-0.0033507714979350567,0.00450515653938055,-0.004904004745185375
1772614983894902300,2.37090234375,-0.006561903282999992,0.01054307259619236,0.0044064754620194435
1772614983904969500,2.380969482421875,-0.0037437458522617817,0.013241121545433998,0.007290679030120373
1772614983915037400,2.391037353515625,-0.00024109019432216883,0.013192473910748959,0.00512684928253293
1772614983925105400,2.40110546875,-0.0018046320183202624,0.014777321368455887,0.0051122019067406654
1772614983935172400,2.41117236328125,0.0008677032310515642,0.005863603204488754,0.00803766492754221
1772614983945240300,2.421240234375,-0.0005086184246465564,-0.0021634302102029324,0.00485039409250021
1772614983955307300,2.431307373046875,-0.008639102801680565,0.000547447707504034,-0.0003033785615116358
1772614983965375500,2.44137548828125,-0.007399134803563356,0.005729426629841328,-0.00172018026933074
1772614983975442400,2.4514423828125,0.0008210183586925268,0.0011939175892621279,0.003920075483620167
1772614983985510400,2.461510498046875,-0.00012014282401651144,0.0008604899048805237,0.013083746656775475
1772614983995578400,2.471578369140625,-0.0007239608676172793,0.0028343256562948227,0.013900195248425007
1772614984005645300,2.481645263671875,0.003466523252427578,0.006744645070284605,0.012972083874046803
1772614984015713500,2.491713623046875,0.001659540575928986,0.0029472748283296824,0.004914918914437294
1772614984025780500,2.501780517578125,-0.006398385856300592,-0.0003835405223071575,0.0041647059842944145
1772614984035848400,2.511848388671875,-0.011262049898505211,-0.0001417782623320818,-0.00025118060875684023
1772614984045916400,2.52191650390625,-0.0038872244767844677,0.001529088942334056,-0.004663239233195782
1772614984055983400,2.5319833984375,0.008137612603604794,-0.0033612388651818037,-0.002781027927994728
1772614984066051300,2.54205126953125,0.012905470095574856,-0.006568484008312225,0.0007367415819317102
1772614984076118300,2.5521181640625,0.014424926601350307,-0.005933896638453007,0.0016305160243064165
1772614984086186500,2.5621865234375,0.009881307370960712,-0.006377046927809715,0.006875079590827227
1772614984096254500,2.57225439453125,0.004512651823461056,-0.0055253589525818825,0.007810473907738924
1772614984106321400,2.5823212890625,-0.0002634612610563636,0.0005048371385782957,0.008045630529522896
1772614984116389400,2.592389404296875,-0.0009547517402097583,0.0037275454960763454,0.007131047546863556
1772614984126456300,2.602456298828125,-0.006089858710765839,0.0032756072469055653,0.004171209409832954
1772614984136524500,2.612524658203125,-0.0072076646611094475,0.0043506985530257225,0.0013098714407533407
1772614984146592300,2.62259228515625,-0.0004927702248096466,0.0034367013722658157,0.0031197555363178253
1772614984156659500,2.632659423828125,0.007783745415508747,-0.0010237647220492363,0.001299144933000207
1772614984166727400,2.6427275390625,0.012163314037024975,-0.006226782687008381,-0.0017957146046683192
1772614984176794400,2.65279443359375,0.01646655611693859,-0.010600689798593521,-0.0009252795716747642
1772614984186862300,2.6628623046875,0.01556427776813507,-0.017061520367860794,-0.0013375368434935808
1772614984196930300,2.672930419921875,0.022125625982880592,-0.014195009134709835,0.0008145447354763746
1772614984206997500,2.68299755859375,0.027818134054541588,-0.016467751935124397,0.0015815352089703083
1772614984217065200,2.693065185546875,0.020654428750276566,-0.020310178399086,-0.000139609444886446
1772614984227132400,2.70313232421875,0.010805261321365833,-0.01447971910238266,-0.007072350475937128
1772614984237200400,2.713200439453125,-0.006027807015925646,-0.0045303842052817345,-0.01538065355271101
1772614984247268400,2.723268310546875,-0.009064077399671078,0.001174106728285551,-0.014500478282570839
1772614984257335600,2.73333544921875,-0.008820144459605217,0.00549287348985672,-0.016141917556524277
1772614984267403300,2.7434033203125,-0.010113375261425972,0.004994063172489405,-0.009622764773666859
1772614984277470500,2.753470458984375,-0.013721399009227753,0.003536679083481431,-0.0034721989650279284
1772614984287538200,2.7635380859375,-0.014097170904278755,0.0008759149350225925,0.0018424051813781261
1772614984297606100,2.773606201171875,-0.0017812636215239763,-0.005565253086388111,0.0035154276993125677
1772614984307673300,2.78367333984375,0.011367561295628548,-0.005276033654808998,-0.002862843219190836
1772614984317741300,2.7937412109375,0.021942533552646637,-0.010928679257631302,-0.002690595341846347
1772614984327808300,2.803808349609375,0.026271235197782516,-0.014747118577361107,-0.0032328148372471333
1772614984337876200,2.813876220703125,0.02087114378809929,-0.014115151017904282,-0.0018450417555868626
1772614984347944200,2.823944091796875,0.00886316504329443,-0.00447490531951189,0.006829370278865099
1772614984358011100,2.83401123046875,-0.005677122622728348,0.011307303793728352,0.013946572318673134
1772614984368079400,2.844079345703125,-0.004783897660672665,0.009208465926349163,0.024138756096363068
1772614984378146300,2.854146240234375,-0.004847826436161995,0.008411833085119724,0.023195331916213036
1772614984388214300,2.86421435546875,-0.0052358489483594894,0.006266390904784203,0.010062752291560173
1772614984398282200,2.8742822265625,-0.008288896642625332,-0.004297570325434208,-0.0014927040319889784
1772614984408349200,2.88434912109375,-0.008992770686745644,-0.01463010162115097,-0.008976452983915806
1772614984418417400,2.89441748046875,-0.005212985910475254,-0.020212741568684578,-0.012893110513687134
1772614984428484400,2.904484375,0.002072090981528163,-0.020333915948867798,-0.010610248893499374
1772614984438552300,2.91455224609375,0.006920682266354561,-0.01739906147122383,-0.003923146985471249
1772614984448620300,2.924620361328125,0.008107919245958328,-0.009661514312028885,0.001998924184590578
1772614984458687200,2.934687255859375,0.004143991507589817,-0.00900693703442812,0.006958760321140289
1772614984468755200,2.944755126953125,0.00008986133616417646,-0.005381309427320957,0.00467802956700325
1772614984478822100,2.954822265625,-0.0023648813366889954,-0.008379901759326458,-0.000543520669452846
1772614984488890400,2.964890380859375,-0.01397573109716177,-0.012344015762209892,-0.010326908901333809
1772614984498958300,2.974958251953125,-0.013840770348906517,-0.01244109496474266,-0.010819461196660995
1772614984509025300,2.985025390625,-0.010360551998019218,-0.013126859441399574,-0.0028278466779738665
1772614984519093200,2.99509326171875,-0.0028511225245893,-0.018376674503087997,0.007392779923975468
1772614984529160200,3.00516015625,0.008135481737554073,-0.015118828974664211,0.0182049460709095
1772614984539228400,3.015228515625,0.01878819428384304,-0.01129777729511261,0.021968692541122437
1772614984549296400,3.02529638671875,0.024901214987039566,-0.013965732418000698,0.019921787083148956
1772614984559363300,3.03536328125,0.025314297527074814,-0.01620175503194332,0.0154730174690485
1772614984569431300,3.045431396484375,0.018141072243452072,-0.01973656751215458,-0.000013530952855944633
1772614984579497700,3.055497802734375,0.009467889554798603,-0.02471083775162697,-0.008308425545692444
1772614984589565700,3.065565673828125,-0.006495364010334015,-0.01518044900149107,-0.017339471727609634
1772614984599633700,3.075633544921875,-0.014392996206879616,-0.01598515547811985,-0.019594628363847733
1772614984609700600,3.08570068359375,-0.012152212671935558,-0.007901662029325962,-0.012591314502060413
1772614984619768800,3.095768798828125,-0.004271943122148514,-0.0005517660174518824,-0.00712650828063488
1772614984629835800,3.105835693359375,0.0008818061323836446,-0.0017856087069958448,-0.009899125434458256
1772614984639903700,3.11590380859375,0.00032388558611273766,-0.006722761783748865,-0.015319056808948517
1772614984649971700,3.1259716796875,-0.003494021948426962,-0.009847182780504227,-0.011771725490689278
1772614984660038700,3.13603857421875,-0.012130667455494404,-0.016096176579594612,-0.007197121623903513
1772614984670107000,3.14610693359375,-0.016511833295226097,-0.01003269199281931,-0.0017781213391572237
1772614984680173800,3.156173828125,-0.021350102499127388,-0.0007116238120943308,0.0021987035870552063
1772614984690241800,3.16624169921875,-0.0164251197129488,0.004682342521846294,0.008231028914451599
1772614984700309800,3.176309814453125,-0.010928289964795113,0.006592840887606144,0.01392956543713808
1772614984710376700,3.186376708984375,-0.01169474795460701,0.012000922113656998,0.01568698324263096
1772614984720444700,3.196444580078125,-0.010756369680166245,0.013184014707803726,0.011309566907584667
1772614984730512000,3.206511962890625,-0.017456084489822388,0.007641177624464035,0.009278640151023865
1772614984740579800,3.216579833984375,-0.017141271382570267,0.005548167508095503,0.005579814780503511
1772614984750647800,3.226647705078125,-0.015052287839353085,-0.00019387388601899147,0.009512770920991898
1772614984760714800,3.23671484375,-0.010679017752408981,-0.003699211636558175,0.00923201534897089
1772614984770782700,3.24678271484375,-0.00003462960012257099,-0.0016067659016698599,0.005365903489291668
1772614984780849700,3.256849609375,0.004267361015081406,-0.0020622664596885443,0.00035828654654324055
1772614984790918000,3.26691796875,0.0039589665830135345,0.00004242989234626293,-0.0029176678508520126
1772614984800985900,3.27698583984375,0.0005666608922183514,0.005931111052632332,-0.004793339408934116
1772614984811052800,3.287052734375,-0.009410073049366474,0.01848764903843403,-0.005253267474472523
1772614984821120800,3.297120849609375,-0.006822721101343632,0.020098313689231873,0.0030603096820414066
1772614984831187700,3.307187744140625,-0.0065926238894462585,0.014778382144868374,0.005031581502407789
1772614984841256000,3.317255859375,-0.005558980628848076,0.01335075218230486,0.0033907887991517782
1772614984851324000,3.327323974609375,-0.005025017075240612,0.008952807635068893,-0.0034546004608273506
1772614984861390800,3.337390869140625,0.001525050844065845,0.004809623584151268,-0.01142091117799282
1772614984871458800,3.347458740234375,0.013469860889017582,0.0016354017425328493,-0.010357511229813099
1772614984881525800,3.35752587890625,0.015365952625870705,0.00016603665426373482,-0.011295286007225513
1772614984891593700,3.36759375,0.015079395845532417,0.004729096777737141,0.0009808209724724293
1772614984901662000,3.377661865234375,0.015570774674415588,0.013478543609380722,0.00711647467687726
1772614984911729000,3.38772900390625,0.013298832811415195,0.012029783800244331,0.021017109975218773
1772614984921796900,3.397796875,0.011911272071301937,0.007797089871019125,0.020358474925160408
1772614984931863800,3.40786376953125,0.0033707807306200266,0.0039560128934681416,0.013799110427498817
1772614984941931800,3.417931884765625,-0.002551143756136298,0.003904731012880802,0.010345540940761566
1772614984952000000,3.428,-0.0018267639679834247,0.007194267585873604,0.0034202574752271175
1772614984962067000,3.43806689453125,0.007534435018897057,0.005262773483991623,-0.004191177897155285
1772614984972135000,3.448135009765625,0.01384825725108385,0.0030286479741334915,-0.010345210321247578
1772614984982201900,3.458201904296875,0.013078109361231327,0.006261046044528484,-0.0010622800327837467
1772614984992269800,3.468269775390625,0.013960947282612324,0.00041514146141707897,0.002091701840981841
1772614985002337800,3.478337890625,0.017424656078219414,-0.0005862768739461899,-0.0011566014727577567
1772614985012404700,3.48840478515625,0.013235770165920258,-0.0002533816732466221,-0.004821110982447863
1772614985022473000,3.498472900390625,0.0037521456833928823,0.0014153572265058756,-0.007418028544634581
1772614985032540000,3.508539794921875,0.0013086951803416014,-0.003596978262066841,-0.002635523909702897
1772614985042607900,3.51860791015625,0.0008309776894748211,-0.0063092755153775215,-0.002405923791229725
1772614985052675800,3.52867578125,-0.0038652406074106693,-0.0023044145200401545,0.005940955597907305
1772614985062742800,3.53874267578125,-0.00489034503698349,0.0028998032212257385,0.012260334566235542
1772614985072811000,3.54881103515625,-0.0009549916721880436,0.0016851354157552123,0.02307676337659359
1772614985082878000,3.5588779296875,0.004875414073467255,-0.0009776949882507324,0.02774866670370102
1772614985092946000,3.56894580078125,0.0025259738322347403,-0.002369462978094816,0.028504736721515656
1772614985103013600,3.579013671875,-0.0017694501439109445,-0.0043335543014109135,0.021352194249629974
1772614985113080800,3.589080810546875,-0.006126647815108299,-0.003612103872001171,0.01242261566221714
1772614985123148800,3.599148681640625,-0.006637350656092167,0.000004915287718176842,0.006223520264029503
1772614985133216000,3.609216064453125,-0.004205884877592325,-0.0005977577529847622,-0.0008381180232390761
1772614985143284000,3.619283935546875,-0.004061062820255756,-0.0078422911465168,-0.011882058344781399
1772614985153351700,3.6293515625,-0.004318856634199619,-0.004725860431790352,-0.0170453954488039
1772614985163419000,3.6394189453125,-0.003017196897417307,-0.0012223867233842611,-0.013923047110438347
1772614985173486600,3.649486572265625,-0.0011383368400856853,0.0013915058225393295,-0.007537851110100746
1772614985183553800,3.6595537109375,0.005869107786566019,-0.0027123887557536364,0.00003872695378959179
1772614985193621800,3.669621826171875,0.006053931079804897,-0.002533690771088004,0.01189512014389038
1772614985203689700,3.679689697265625,0.009047550149261951,-0.0013025610242038965,0.013655032031238079
1772614985213756700,3.689756591796875,0.006656298879534006,-0.0026093742344528437,0.015872377902269363
1772614985223824600,3.69982470703125,0.0066175637766718864,-0.005075342953205109,0.018116643652319908
1772614985233891800,3.709891845703125,0.003882231190800667,-0.005240725353360176,0.016590651124715805
1772614985243959800,3.719959716796875,0.004496339708566666,-0.004620630294084549,0.014515348710119724
1772614985254027800,3.73002783203125,0.004070233553647995,-0.00465738121420145,0.009456407278776169
1772614985264094700,3.7400947265625,0.007105721160769463,-0.004302760120481253,0.00814097374677658
1772614985274162700,3.75016259765625,0.006751786917448044,-0.003390361089259386,0.0034660615492612123
1772614985284229600,3.760229736328125,0.004284817725419998,-0.0020363160874694586,0.0040281424298882484
1772614985294297600,3.770297607421875,0.0007217744132503867,-0.0006565323565155268,0.0004033136647194624
1772614985304365800,3.78036572265625,-0.002818071050569415,0.002226237440481782,-0.003396756947040558
1772614985314432800,3.790432861328125,-0.0028463006019592285,0.0006970504764467478,-0.004054557532072067
1772614985324500700,3.800500732421875,-0.004207829013466835,-0.0035800649784505367,-0.006318180821835995
1772614985334567700,3.810567626953125,-0.015888985246419907,0.0005563567392528057,-0.003703222842887044
1772614985344635600,3.8206357421875,-0.022261837497353554,0.00896493624895811,0.00022088713012635708
1772614985354704000,3.830703857421875,-0.02140696346759796,0.007378490641713142,0.0021210527047514915
1772614985364770800,3.840770751953125,-0.015357965603470802,0.0061227427795529366,0.0021297261118888855
1772614985374838800,3.8508388671875,-0.009314720518887043,0.0038060590159147978,0.00770825007930398
1772614985384905700,3.86090576171875,-0.011581629514694214,-0.0045393845066428185,0.00860653631389141
1772614985394973700,3.8709736328125,-0.006262763869017363,-0.00620599091053009,0.0018271924927830696
1772614985405041700,3.881041748046875,-0.007546526379883289,-0.010285304859280586,-0.00017868203576654196
1772614985415108600,3.891108642578125,-0.004523306153714657,-0.009385688230395317,-0.0021917654667049646
1772614985425176800,3.9011767578125,-0.010794132947921753,-0.0053524477407336235,-0.0012221268843859434
1772614985435243800,3.911243896484375,-0.011475102975964546,-0.002163312630727887,-0.002395249204710126
1772614985445311700,3.921311767578125,-0.009664886631071568,0.0014034048654139042,-0.003215333679690957
1772614985455379700,3.931379638671875,-0.005926340818405151,0.0008798274211585522,-0.004396978300064802
1772614985465446700,3.94144677734375,-0.004022340755909681,0.002582187531515956,-0.002645035507157445
1772614985475515000,3.951514892578125,-0.0031741238199174404,-0.004249619320034981,-0.005069843493402004
1772614985485581800,3.961581787109375,0.0030949723441153765,-0.007574689574539661,-0.007879041135311127
1772614985495649800,3.97164990234375,0.00867536012083292,-0.010154493153095245,-0.00548991933465004
1772614985505717800,3.9817177734375,0.011342533864080906,-0.008100507780909538,-0.0029299231246113777
1772614985515784700,3.99178466796875,0.010003496892750263,-0.00967683270573616,-0.0011205713963136077
1772614985525852700,4.001852783203125,0.004300197586417198,-0.0005782532971352339,-0.0031958925537765026
1772614985535919900,4.011919921875,-0.0006929630180820823,0.00011683185584843159,-0.00626358762383461
1772614985545987800,4.02198779296875,-0.00391605356708169,-0.0002466542646288872,-0.005314549431204796
1772614985556055800,4.032055908203125,-0.0031597157940268517,0.0012588307727128267,-0.0026114408392459154
1772614985566122800,4.042122802734375,0.0005018920637667179,-0.00011299480684101582,0.004425733350217342
1772614985576191000,4.05219091796875,0.010785955004394054,0.00020844885148108006,0.002565249102190137
1772614985586258000,4.0622578125,0.015365367755293846,-0.004622990265488625,0.008392359130084515
1772614985596326000,4.072325927734375,0.015182141214609146,-0.011468113400042057,0.01230241172015667
1772614985606394000,4.08239404296875,0.008684692904353142,-0.014589907601475716,0.012509721331298351
1772614985616461000,4.0924609375,0.001533572911284864,-0.01587115414440632,0.00946732610464096
1772614985626529000,4.102529052734375,-0.0032698509749025106,-0.01484009437263012,0.002628575311973691
1772614985636596000,4.112595947265625,-0.0127815967425704,-0.015514140948653221,-0.004023468121886253
1772614985646664000,4.122663818359375,-0.018269211053848267,-0.013178030028939247,-0.010952500626444817
1772614985656732200,4.132732177734375,-0.019960053265094757,-0.010253079235553741,-0.015954183414578438
1772614985666799000,4.142799072265625,-0.02176142856478691,-0.001976128900423646,-0.014449668116867542
1772614985676867000,4.1528671875,-0.020722530782222748,0.0015562879852950573,-0.01572984829545021
1772614985686934000,4.16293408203125,-0.024577362462878227,0.0036289417184889317,-0.0158673282712698
1772614985697002000,4.173001953125,-0.023401843383908272,0.00039559765718877316,-0.014623366296291351
1772614985707070000,4.183070068359375,-0.016553986817598343,-0.008767059072852135,-0.014332922175526619
1772614985717137000,4.193136962890625,-0.007190046366304159,-0.016706207767128944,-0.01758197881281376
1772614985727205000,4.203205078125,0.004047623835504055,-0.019346680492162704,-0.02405548468232155
1772614985737272000,4.21327197265625,0.00014502753037959337,-0.019481170922517776,-0.028499767184257507
1772614985747340000,4.223340087890625,-0.006256944499909878,-0.013709232211112976,-0.01673467829823494
1772614985757408000,4.233407958984375,-0.010143827646970749,-0.009534459561109543,-0.008732146583497524
1772614985767475000,4.243474853515625,-0.005822383798658848,-0.006681432947516441,0.005100902635604143
1772614985777543200,4.253543212890625,-0.0030878502875566483,0.001986356917768717,0.01981273666024208
1772614985787610000,4.263610107421875,-0.00363176129758358,0.0018273801542818546,0.026316192001104355
1772614985797678000,4.273677978515625,-0.0066698952578008175,0.002828196156769991,0.028201710432767868
1772614985807746000,4.28374609375,0.0008414185140281916,0.0008749996777623892,0.020985452458262444
1772614985817813000,4.29381298828125,0.0017737913876771927,-0.0033794003538787365,0.015142743475735188
1772614985827881000,4.303880859375,0.0012624795781448483,0.0007543163374066353,0.011821196414530277
1772614985837948200,4.3139482421875,0.004000209271907806,0.0008238246664404869,0.009292525239288807
1772614985848016100,4.32401611328125,0.005366490222513676,0.004615998361259699,0.0006439865101128817
1772614985858083800,4.334083740234375,0.009362030774354935,0.01255115307867527,-0.0006258087232708931
1772614985868151000,4.344151123046875,0.0033180899918079376,0.01344091072678566,-0.0029778354801237583
1772614985878219000,4.354218994140625,0.0035745524801313877,0.014483804814517498,-0.008436783216893673
1772614985888286000,4.364285888671875,-0.00051559426356107,0.010700305923819542,-0.011692669242620468
1772614985898354200,4.374354248046875,0.005720197688788176,-0.0011496955994516611,-0.01474784780293703
1772614985908422000,4.384421875,0.0031372890807688236,-0.006697412580251694,-0.019292056560516357
1772614985918489000,4.394489013671875,0.0018235513707622886,-0.005374886095523834,-0.021484103053808212
1772614985928556800,4.404556884765625,0.0009727781871333718,-0.00610992219299078,-0.019501041620969772
1772614985938624000,4.4146240234375,-0.0039679184556007385,0.0007221510168164968,-0.010962946340441704
1772614985948692000,4.42469189453125,0.0005991626530885696,0.011201923713088036,0.00014833430759608746
1772614985958760000,4.434760009765625,0.004969143308699131,0.015604394488036633,0.009225985035300255
1772614985968827100,4.4448271484375,0.007218622602522373,0.017801055684685707,0.012825306504964828
1772614985978894800,4.454894775390625,0.015758581459522247,0.0197459626942873,0.016130022704601288
1772614985988962000,4.464962158203125,0.015181036666035652,0.008436303585767746,0.012802115641534328
1772614985999029800,4.47502978515625,0.019041555002331734,0.004400282632559538,0.011179185472428799
1772614986009098000,4.485097900390625,0.020815301686525345,0.002289560390636325,0.00375729869119823
1772614986019165000,4.4951650390625,0.011915015988051891,0.0005888657178729773,-0.0005237327422946692
1772614986029233000,4.50523291015625,0.00257814466021955,0.005115453619509935,-0.004104599356651306
1772614986039299800,4.5152998046875,-0.00365844601765275,0.007591927424073219,-0.009918546304106712
1772614986049367800,4.525367919921875,-0.004694988485425711,0.013849240727722645,-0.006288828793913126
1772614986059436000,4.53543603515625,-0.0042092278599739075,0.017016803845763206,-0.007997512817382812
1772614986069503000,4.5455029296875,-0.003601095173507929,0.016758708283305168,-0.0032684262841939926
1772614986079571000,4.555571044921875,-0.0015179704641923308,0.015724336728453636,0.00045280857011675835
1772614986089638000,4.565637939453125,-0.0019096150062978268,0.011935258284211159,0.0031523045618087053
1772614986099705900,4.575705810546875,0.001707223942503333,0.008383933454751968,0.002174658002331853
1772614986109773800,4.58577392578125,0.007226759567856789,0.002082664053887129,0.0011026225984096527
1772614986119840800,4.5958408203125,-0.0019986971747130156,-0.002640452003106475,0.001425397815182805
1772614986129909000,4.605908935546875,-0.009255889803171158,0.0009669666178524494,-0.00046765326987951994
1772614986139976000,4.615975830078125,-0.011168040335178375,0.007279457524418831,-0.005025120917707682
1772614986150044000,4.6260439453125,-0.012797877192497253,0.013472792692482471,-0.006463860627263784
1772614986160111900,4.63611181640625,-0.007913906127214432,0.015472028404474258,-0.008893728256225586
1772614986170178800,4.6461787109375,-0.006299713626503944,0.009372187778353691,-0.006186583545058966
1772614986180247000,4.6562470703125,-0.001015735906548798,0.001975257648155093,-0.008793551474809647
1772614986190314000,4.66631396484375,-0.0012767537264153361,0.002995279850438237,-0.01110867504030466
1772614986200382000,4.6763818359375,-0.000010686926543712616,-0.0026413006708025932,-0.00770275853574276
1772614986210450000,4.686449951171875,0.0031065689399838448,-0.010893208906054497,-0.00015056796837598085
1772614986220516900,4.696516845703125,0.005078373476862907,-0.003454467048868537,0.007219997234642506
1772614986230584800,4.706584716796875,0.0074278805404901505,0.003957127686589956,0.015200636349618435
1772614986240651800,4.71665185546875,0.006164742633700371,0.00742403045296669,0.018885649740695953
1772614986250720000,4.726719970703125,0.002021776046603918,0.007001794874668121,0.021540971472859383
1772614986260788000,4.7367880859375,0.004701981320977211,0.005263816099613905,0.013920335099101067
1772614986270855000,4.74685498046875,0.008765719830989838,0.0017629856010898948,-0.0012402363354340196
1772614986280923000,4.7569228515625,0.002686789259314537,-0.0023350866977125406,-0.007840614765882492
1772614986290989800,4.76698974609375,-0.0013343972386792302,-0.0030406571459025145,-0.011879375204443932
1772614986301058000,4.77705810546875,0.0018518087454140186,-0.004278228618204594,-0.009771749377250671
1772614986311126000,4.7871259765625,0.008848878554999828,-0.0047681331634521484,-0.0013127326965332031
1772614986321193000,4.79719287109375,0.013900096528232098,-0.004036828875541687,0.0049012210220098495
1772614986331261000,4.807260986328125,0.01682424731552601,-0.00480781402438879,0.01377993356436491
1772614986341328000,4.817327880859375,0.013687576167285442,-0.0068746935576200485,0.01933448761701584
1772614986351396000,4.82739599609375,0.009704044088721275,-0.008938746526837349,0.022068491205573082
1772614986361464000,4.837464111328125,0.0011659497395157814,-0.004989278968423605,0.020932121202349663
1772614986371531000,4.847531005859375,-0.004505704157054424,-0.00935916043817997,0.013953116722404957
1772614986381599000,4.857598876953125,-0.002512594684958458,-0.0046949004754424095,0.010076086036860943
1772614986391666000,4.867666015625,-0.00211895233951509,-0.006494696252048016,0.009595158509910107
1772614986401734000,4.87773388671875,0.0001687029143795371,-0.007215348072350025,0.004342072643339634
1772614986411802000,4.887802001953125,0.008321384899318218,-0.006286905147135258,-0.003702883142977953
1772614986421869000,4.897869140625,0.013418941758573055,-0.005227233283221722,-0.014449803158640862
1772614986431937000,4.90793701171875,0.013897353783249855,-0.0015889499336481094,-0.018129607662558556
1772614986442004000,4.91800390625,0.006760881748050451,-0.004648122936487198,-0.020153876394033432
1772614986452072000,4.928072021484375,0.00021793157793581486,-0.0025724421720951796,-0.01127087976783514
1772614986462140200,4.93814013671875,-0.004001580644398928,-0.00034177862107753754,0.006891079246997833
1772614986472207000,4.94820703125,-0.007749765180051327,-0.0002875805366784334,0.022255349904298782
1772614986482275000,4.958275146484375,-0.008734069764614105,0.0038778698071837425,0.027792327105998993
1772614986492342000,4.968342041015625,-0.0066485898569226265,0.007642924785614014,0.028620624914765358
1772614986502410000,4.978409912109375,-0.005305025260895491,0.0045584519393742085,0.023434385657310486
1772614986512478000,4.98847802734375,0.0021441024728119373,0.0068991039879620075,0.016805510967969894
1772614986522545000,4.998544921875,0.004928970243781805,0.008482087403535843,0.01230050902813673
1772614986532613000,5.008613037109375,0.0065685417503118515,0.005879410542547703,0.006519898772239685
1772614986542680000,5.01868017578125,0.0013415557332336903,0.0058884648606181145,0.0011664126068353653
1772614986552748000,5.028748046875,-0.0004265654133632779,0.012005086988210678,-0.010218532755970955
1772614986562816000,5.03881591796875,-0.005072982516139746,0.012270605191588402,-0.010450494475662708
1772614986572883000,5.048883056640625,-0.00420102383941412,0.003815118223428726,-0.01627012901008129
1772614986582951400,5.058951416015625,-0.004335513338446617,0.0033940724097192287,-0.01837056316435337
1772614986593019100,5.06901904296875,0.0024329787120223045,0.0026838257908821106,-0.012411799281835556
1772614986603086300,5.07908642578125,0.00529268104583025,0.0029189828783273697,-0.001759155304171145
1772614986613154000,5.089154052734375,0.0046088602393865585,0.0016665972070768476,0.012336766347289085
1772614986623221200,5.09922119140625,0.010333591140806675,0.009504812769591808,0.022067159414291382
1772614986633289200,5.109289306640625,0.012054882943630219,0.011829400435090065,0.0217408649623394
1772614986643357200,5.119357177734375,0.0062462626956403255,0.014130904339253902,0.018627896904945374
1772614986653424400,5.12942431640625,0.005015662405639887,0.013562176376581192,0.00942101888358593
1772614986663492000,5.1394921875,0.005159739404916763,0.009413504973053932,-0.007906305603682995
1772614986673559300,5.149559326171875,0.01010656077414751,0.005426219664514065,-0.028835289180278778
1772614986683627000,5.159626953125,0.015707721933722496,0.004158555064350367,-0.03269101306796074
1772614986693695200,5.1696953125,0.014423714019358158,0.004619293846189976,-0.032844655215740204
1772614986703762200,5.17976220703125,0.017574766650795937,0.007977539673447609,-0.018949877470731735
1772614986713830100,5.189830078125,0.013642370700836182,0.009920816868543625,-0.0011354254093021154
1772614986723897300,5.1998974609375,0.009219925850629807,0.010353847406804562,0.018102984875440598
1772614986733965000,5.209965087890625,0.004906333051621914,0.015436133369803429,0.025059180334210396
1772614986744033000,5.220032958984375,0.0015909640351310372,0.013279772363603115,0.024951322004199028
1772614986754100200,5.230100341796875,0.002211041282862425,0.005115304607897997,0.01945986971259117
1772614986764168200,5.240168212890625,0.0010826600482687354,0.005204787012189627,0.013790530152618885
1772614986774235100,5.250235107421875,0.002906064037233591,0.004456227645277977,0.002162461867555976
1772614986784303000,5.26030322265625,0.004453626926988363,0.004405361134558916,-0.009492862969636917
1772614986794371000,5.27037109375,0.0020914424676448107,0.0007789845112711191,-0.01714208908379078
1772614986804438000,5.28043798828125,0.008016709238290787,-0.0013411580584943295,-0.020973045378923416
1772614986814506200,5.29050634765625,0.011177151463925838,-0.005277823656797409,-0.017700612545013428
1772614986824573200,5.3005732421875,0.015296796336770058,-0.008148444816470146,-0.007538523059338331
1772614986834641200,5.31064111328125,0.014976773411035538,-0.012806400656700134,-0.0015869435155764222
1772614986844709000,5.320709228515625,0.013081135228276253,-0.012746745720505714,-0.0006047696806490421
1772614986854776000,5.330776123046875,0.008323436602950096,-0.015944087877869606,-0.0013683927245438099
1772614986864844300,5.34084423828125,0.003133202902972698,-0.013696913607418537,-0.004550337791442871
1772614986874911200,5.3509111328125,-0.0003803735598921776,-0.012367481365799904,-0.0047651962377130985
1772614986884979200,5.360979248046875,0.00109448516741395,-0.006091741845011711,-0.004093014635145664
1772614986895047200,5.371047119140625,0.004069315269589424,0.000017915386706590652,-0.0017006207490339875
1772614986905114000,5.381114013671875,0.0007054766174405813,0.0016240676632151008,0.0006634674500674009
1772614986915182000,5.39118212890625,-0.003496192628517747,-0.0035560468677431345,0.002990537555888295
1772614986925249000,5.4012490234375,-0.000848557217977941,-0.001955053536221385,-0.002425875747576356
1772614986935317200,5.411317138671875,-0.0013530272990465164,-0.005672845058143139,-0.006204311735928059
1772614986945385200,5.42138525390625,-0.0012441040016710758,-0.012458845973014832,-0.0075750406831502914
1772614986955452200,5.4314521484375,0.004223806783556938,-0.014228695072233677,-0.010984096676111221
1772614986965520100,5.44152001953125,0.010515791364014149,-0.015046819113194942,-0.009520689956843853
1772614986975587000,5.451587158203125,0.01099594309926033,-0.01376119814813137,-0.008353862911462784
1772614986985655300,5.4616552734375,0.0049764011055231094,-0.013727642595767975,-0.014380862936377525
1772614986995723300,5.47172314453125,-0.0018375081708654761,-0.008644796907901764,-0.014294501394033432
1772614987005790200,5.481790283203125,-0.003550453344359994,-0.008766770362854004,-0.009739696979522705
1772614987015858200,5.491858154296875,-0.003897132119163871,-0.005608048755675554,-0.007515519857406616
1772614987025925000,5.501925048828125,-0.0070593697018921375,0.00033000181429088116,-0.008114464581012726
1772614987035993000,5.5119931640625,-0.006384068168699741,-0.0012591327540576458,-0.002853696933016181
1772614987046061300,5.522061279296875,-0.002561100060120225,-0.004434686154127121,0.0062777497805655
1772614987056128300,5.532128173828125,0.004189730621874332,-0.003573307767510414,0.01728176325559616
1772614987066196200,5.5421962890625,0.009847615845501423,-0.0013413126580417156,0.01709534227848053
1772614987076263200,5.55226318359375,0.009531112387776375,0.0019281015265733004,0.018335595726966858
1772614987086331100,5.5623310546875,0.009649889543652534,-0.007766337133944035,0.010487260296940804
1772614987096399400,5.5723994140625,0.016737626865506172,-0.012753373011946678,-0.004280501045286655
1772614987106466300,5.58246630859375,0.019111303612589836,-0.013268960639834404,-0.020665599033236504
1772614987116534300,5.5925341796875,0.01461175736039877,-0.012728109024465084,-0.035008206963539124
1772614987126601200,5.602601318359375,0.002454959787428379,-0.01032939925789833,-0.03740745037794113
1772614987136669200,5.612669189453125,-0.007985230535268784,-0.008997304365038872,-0.034882981330156326
1772614987146737200,5.622737060546875,-0.018756385892629623,0.0015208503464236856,-0.022826053202152252
1772614987156804400,5.632804443359375,-0.021031828597187996,0.003757395315915346,-0.009232878684997559
1772614987166872300,5.642872314453125,-0.018493035808205605,0.008131105452775955,0.010636166669428349
1772614987176939300,5.652939208984375,-0.016665829345583916,0.006278424523770809,0.02136111818253994
1772614987187007200,5.66300732421875,-0.0047995829954743385,0.002827500691637397,0.025112446397542953
1772614987197075200,5.6730751953125,-0.0017199749127030373,0.005367067642509937,0.0243707075715065
1772614987207142100,5.68314208984375,0.0023535965010523796,0.005694902502000332,0.026699109002947807
1772614987217210400,5.69321044921875,0.0057752421125769615,0.002005712129175663,0.021484078839421272
1772614987227278300,5.7032783203125,-0.0019620393868535757,0.005184461362659931,0.011766470037400723
1772614987237345300,5.71334521484375,-0.011957678943872452,0.008291377685964108,0.003271023277193308
1772614987247413200,5.723413330078125,-0.016953768208622932,0.007523588370531797,-0.008186161518096924
1772614987257480200,5.733480224609375,-0.026148945093154907,-0.001159214647486806,-0.018929697573184967
1772614987267548400,5.74354833984375,-0.03274106606841087,0.004287482239305973,-0.020945176482200623
1772614987277615400,5.753615478515625,-0.02725057490170002,0.006943867541849613,-0.024728216230869293
1772614987287683300,5.763683349609375,-0.016637345775961876,0.009803303517401218,-0.014140285551548004
1772614987297751300,5.773751220703125,-0.0032170857302844524,0.007770718540996313,0.0008834742475301027
1772614987307818200,5.783818359375,0.0010961698135361075,0.004531782120466232,0.012034928426146507
1772614987317886200,5.79388623046875,0.0056713661178946495,0.005642177537083626,0.024828609079122543
1772614987327954200,5.8039541015625,0.0014342768117785454,-0.002251165686175227,0.03312595561146736
1772614987338021400,5.814021484375,-0.003739406121894717,-0.005227197892963886,0.02988266386091709
1772614987348089300,5.82408935546875,-0.0034432625398039818,-0.0011863841209560633,0.021904097869992256
1772614987358156300,5.83415625,-0.00401860848069191,-0.003497736295685172,0.01111448835581541
1772614987368224300,5.844224365234375,0.00037267792504280806,-0.0077558644115924835,-0.0009064878104254603
1772614987378292200,5.854292236328125,0.004697198048233986,-0.006445490755140781,-0.017511753365397453
1772614987388359400,5.864359375,0.009370512329041958,0.0018124395282939076,-0.025530265644192696
1772614987398427100,5.87442724609375,0.006323274224996567,0.003642168128862977,-0.02594682388007641
1772614987408494300,5.884494384765625,0.00943757500499487,0.0022847549989819527,-0.01951768808066845
1772614987418562000,5.89456201171875,0.007579418830573559,-0.003564897459000349,-0.005965600721538067
1772614987428630000,5.904630126953125,0.007429216057062149,-0.0034301416017115116,-0.0036446559242904186
1772614987438697200,5.914697265625,0.005609557498246431,0.0006701603997498751,-0.0031982329674065113
1772614987448765200,5.92476513671875,0.00020334043074399233,0.0028137387707829475,-0.0007830121321603656
1772614987458832400,5.934832275390625,-0.00715241814032197,-0.0003797258250415325,0.0035935144405812025
1772614987468900000,5.944900146484375,-0.010457401163876057,0.004986277315765619,0.006470260210335255
1772614987478968000,5.954968017578125,-0.009759827516973019,0.014009512960910797,0.01304395217448473
1772614987489035000,5.965034912109375,-0.011641351506114006,0.016957100480794907,0.012095600366592407
1772614987499103200,5.975103271484375,-0.005059388466179371,0.01684572920203209,0.0177738219499588
1772614987509170200,5.985170166015625,-0.0015333631308749318,0.009527097456157207,0.01782521978020668
1772614987519238100,5.995238037109375,-0.0017280124593526125,0.0062066372483968735,0.01845269836485386
1772614987529306000,6.00530615234375,0.0014270343817770481,0.003886757418513298,0.01720340922474861
1772614987539373000,6.015373046875,0.0025597347412258387,-0.0013038055039942265,0.01575179025530815
1772614987549441000,6.02544091796875,0.005617842078208923,-0.00904454942792654,0.011632413603365421
1772614987559508200,6.03550830078125,0.0012526764767244458,-0.005831622518599033,0.00022472627460956573
1772614987569576200,6.045576171875,-0.004194287117570639,0.004092914052307606,-0.007912295870482922
1772614987579643600,6.0556435546875,-0.008661671541631222,0.0031086988747119904,-0.01453133299946785
1772614987589710600,6.065710693359375,-0.008487501181662083,0.005073312669992447,-0.012559262104332447
1772614987599778600,6.075778564453125,-0.0037986598908901215,0.00991237536072731,-0.01178074348717928
1772614987609845800,6.085845703125,0.0007793139666318893,0.006295270286500454,-0.007639793679118156
1772614987619913500,6.09591357421875,0.0061950390227139,0.005554279778152704,-0.007675556931644678
1772614987629981700,6.105981689453125,0.007435272913426161,-0.0013092190492898226,-0.0028874599374830723
1772614987640048600,6.116048583984375,0.004367804620414972,-0.006592979654669762,0.0010290795471519232
1772614987650116600,6.12611669921875,-0.002294359263032675,-0.009028973989188671,0.007242234423756599
1772614987660184600,6.1361845703125,-0.010904408991336823,-0.0061334483325481415,0.011263566091656685
1772614987670251500,6.14625146484375,-0.017889615148305893,0.00496394420042634,0.013260403648018837
1772614987680319700,6.15631982421875,-0.020463338121771812,0.006180885247886181,0.008626299910247326
1772614987690386700,6.16638671875,-0.017591118812561035,0.003170714247971773,0.005089621990919113
1772614987700454700,6.17645458984375,-0.011060845106840134,-0.00199123565107584,-0.005488894879817963
1772614987710522600,6.186522705078125,-0.010157766751945019,-0.0017523500137031078,-0.013754814863204956
1772614987720589600,6.196589599609375,-0.007316710893064737,-0.002248570090159774,-0.014544210396707058
1772614987730657500,6.206657470703125,0.0008155176183208823,-0.003268294734880328,-0.010039739310741425
1772614987740724500,6.216724365234375,0.014137834310531616,-0.006787778809666634,-0.0007844758220016956
1772614987750792700,6.226792724609375,0.013514388352632523,-0.011104497127234936,-0.0027602750342339277
1772614987760860700,6.236860595703125,0.0003577244933694601,-0.012165842577815056,-0.005583703517913818
1772614987770927600,6.246927734375,-0.01959334686398506,-0.012759992852807045,-0.00685456395149231
1772614987780995600,6.25699560546875,-0.034193333238363266,-0.0040595196187496185,-0.009210698306560516
1772614987791062500,6.2670625,-0.02398623339831829,0.0034737640526145697,-0.009102307260036469
1772614987801130800,6.277130859375,-0.0202847421169281,0.007695697247982025,-0.0032743816263973713
1772614987811198700,6.28719873046875,-0.012470761314034462,0.005283139180392027,0.006898893043398857
1772614987821265700,6.297265625,-0.000057904282584786415,0.002680128673091531,0.007112063467502594
1772614987831333600,6.307333740234375,0.014681893400847912,-0.006636940408498049,-0.003133649006485939
1772614987841400600,6.317400634765625,0.017844703048467636,-0.01354672759771347,-0.01101217232644558
1772614987851468500,6.327468505859375,0.009411538019776344,-0.022617455571889877,-0.016963806003332138
1772614987861536800,6.337536865234375,-0.006618629675358534,-0.022695237770676613,-0.015491286292672157
1772614987871603700,6.347603759765625,-0.012690636329352856,-0.017656536772847176,-0.008714074268937111
1772614987881671700,6.357671630859375,-0.014481447637081146,-0.002303940476849675,-0.0011422549141570926
1772614987891738600,6.367738525390625,-0.013022301718592644,0.0069319019094109535,0.01200124341994524
1772614987901806600,6.377806640625,-0.012828679755330086,0.007845181040465832,0.017988167703151703
1772614987911874800,6.387874755859375,-0.006279966793954372,0.014279112219810486,0.01089963037520647
1772614987921941800,6.397941650390625,-0.0050947158597409725,0.015295951627194881,0.00549259502440691
1772614987932009700,6.408009765625,-0.0018240876961499453,0.006222827825695276,0.0025660472456365824
1772614987942076700,6.41807666015625,-0.0047018565237522125,-0.002633925061672926,-0.0018236985197290778
1772614987952144600,6.42814453125,-0.004601189401000738,-0.0064121512696146965,-0.00006787641905248165
1772614987962212600,6.438212646484375,-0.005992780439555645,-0.008139656856656075,0.0038725892081856728
1772614987972279800,6.44827978515625,-0.012832576408982277,-0.0019067942630499601,0.0007218034006655216
1772614987982347800,6.45834765625,-0.014199971221387386,-0.0007514762692153454,0.006799014285206795
1772614987992415700,6.468415771484375,-0.01863653026521206,0.003102650633081794,0.0033382365945726633
1772614988002482700,6.478482666015625,-0.01601710543036461,0.0029834008309990168,-0.00011275382712483406
1772614988012550700,6.488550537109375,-0.012458857148885727,0.0016044160583987832,-0.0029793805442750454
1772614988022617600,6.49861767578125,-0.011290131136775017,0.0037761861458420753,-0.0036248124670237303
1772614988032685800,6.508685791015625,-0.008081022650003433,-0.0008595786057412624,-0.00009639025665819645
1772614988042753800,6.51875390625,-0.004652910400182009,-0.0045729102566838264,0.0055505200289189816
1772614988052820700,6.52882080078125,-0.0014629762154072523,0.0007981534581631422,0.007413933519273996
1772614988062888700,6.538888671875,0.003844397608190775,-0.0012272298336029053,0.014766217209398746
1772614988072955600,6.54895556640625,0.006997580640017986,-0.0027747927233576775,0.01460776012390852
1772614988083024000,6.55902392578125,-0.00008645106572657824,0.0036651017144322395,0.007637998089194298
1772614988093091800,6.569091796875,-0.0035568163730204105,0.00497404532507062,0.0027385808061808348
1772614988103158800,6.57915869140625,-0.003677358850836754,-0.0016385945491492748,0.0017198952846229076
1772614988113226800,6.589226806640625,-0.007403653580695391,-0.0011525675654411316,0.0031798400450497866
1772614988123293700,6.599293701171875,-0.004208734724670649,0.007726050913333893,-0.005253562703728676
1772614988133361700,6.609361572265625,-0.0013807241339236498,0.010250461287796497,-0.0041936244815588
1772614988143429600,6.6194296875,0.0011475614737719297,0.006022278219461441,-0.0014002161333337426
1772614988153496800,6.629496826171875,0.0016975041944533587,0.0027497857809066772,0.002993467031046748
1772614988163564800,6.639564697265625,0.006484622601419687,-0.00026846700347959995,-0.00016200554091483355
1772614988173631700,6.6496318359375,0.0064020645804703236,0.0013603221159428358,0.0002792803570628166
1772614988183699700,6.65969970703125,0.006638986058533192,-0.00006026844494044781,0.0022332274820655584
1772614988193767700,6.669767578125,0.003961177542805672,0.0023536207154393196,0.005217566154897213
1772614988203835000,6.6798349609375,-0.0106564462184906,0.006870661862194538,0.012701945379376411
1772614988213902600,6.689902587890625,-0.02124597318470478,0.008222749456763268,0.015725431963801384
1772614988223969800,6.6999697265625,-0.01553776953369379,0.00806813221424818,0.011481777764856815
1772614988234037800,6.710037841796875,-0.008958430029451847,0.0007854518480598927,0.0019362096209079027
1772614988244105500,6.72010546875,0.0008425500709563494,-0.003950826823711395,-0.003857324831187725
1772614988254172700,6.730172607421875,0.002025259891524911,-0.01068542804569006,-0.015062307938933372
1772614988264240600,6.74024072265625,-0.0053751240484416485,-0.005078333429992199,-0.01666470430791378
1772614988274307800,6.750307861328125,-0.01126656960695982,0.0006253586616367102,-0.01665937714278698
1772614988284375600,6.76037548828125,-0.01059392374008894,0.002761727198958397,-0.007308426313102245
1772614988294443500,6.770443603515625,-0.012352142482995987,0.006313318852335215,-0.002891839947551489
1772614988304510700,6.7805107421875,-0.011189480312168598,0.010736203752458096,0.0018083974719047546
1772614988314578700,6.79057861328125,-0.0015120850875973701,0.0010353736579418182,0.000920499674975872
1772614988324646700,6.800646728515625,-0.0009220481151714921,-0.0035877565387636423,0.0034979265183210373
1772614988334713600,6.810713623046875,-0.0038121105171740055,-0.0008945020381361246,0.00423801876604557
1772614988344781600,6.820781494140625,-0.007861204445362091,0.0004076219629496336,0.0009024078026413918
1772614988354848500,6.8308486328125,-0.008318202570080757,0.0018931332742795348,0.007393329869955778
1772614988364916500,6.84091650390625,0.002786527620628476,-0.0014058728702366352,0.00861414149403572
1772614988374984700,6.850984619140625,0.006353831849992275,-0.008076824247837067,0.009896187111735344
1772614988385051600,6.8610517578125,-0.0020679407753050327,-0.005050883628427982,0.0025195807684212923
1772614988395119600,6.87111962890625,-0.009661145508289337,-0.005242364481091499,-0.007201756350696087
1772614988405186600,6.8811865234375,-0.006669982336461544,-0.004338210914283991,-0.012150147929787636
1772614988415254500,6.891254638671875,-0.0063006021082401276,-0.0012249760329723358,-0.013830868527293205
1772614988425322800,6.90132275390625,-0.006019775755703449,-0.007143089547753334,-0.00983414426445961
1772614988435389700,6.9113896484375,-0.014085957780480385,-0.008271204307675362,-0.0027061933651566505
1772614988445457700,6.921457763671875,-0.016933321952819824,-0.00614449568092823,-0.0019838407170027494
1772614988455524600,6.931524658203125,-0.011422708630561829,-0.0068307919427752495,-0.0045069195330142975
1772614988465592600,6.941592529296875,0.00004857126623392105,-0.009959629736840725,0.0005808875430375338
1772614988475660500,6.95166064453125,0.0026179892010986805,-0.010481077246367931,-0.001815424649976194
1772614988485727700,6.961727783203125,-0.0011042819824069738,-0.0014378114137798548,-0.0061992197297513485
1772614988495795700,6.971795654296875,-0.0021607577800750732,-0.005508719943463802,-0.00863041914999485
1772614988505862700,6.981862548828125,-0.003037016838788986,-0.008709139190614223,-0.004849873483181
1772614988515930600,6.9919306640625,-0.001718752202577889,-0.004091484006494284,-0.012259853072464466
1772614988525998600,7.00199853515625,0.0001899850321933627,0.00018275226466357708,-0.010568169876933098
1772614988536065500,7.0120654296875,-0.003281179117038846,-0.0009480260778218508,-0.007404867559671402
1772614988546133800,7.0221337890625,-0.003076086286455393,-0.002548882504925132,-0.0033283319789916277
1772614988556200700,7.03220068359375,0.008371245115995407,-0.008059495128691196,-0.0025150026194751263
1772614988566268700,7.0422685546875,0.013729332946240902,-0.005699110217392445,-0.006154967006295919
1772614988576336600,7.052336669921875,0.014875556342303753,-0.007293278351426125,-0.013557489961385727
1772614988586403600,7.062403564453125,0.015358885750174522,-0.012150594033300877,-0.018901526927947998
1772614988596471800,7.072471923828125,0.015150360763072968,-0.012643012218177319,-0.018402982503175735
1772614988606538800,7.082538818359375,0.0019318506820127368,-0.010208438150584698,-0.01134193129837513
1772614988616606700,7.092606689453125,-0.012877722270786762,0.002072196686640382,-0.0027348606381565332
1772614988626674700,7.1026748046875,-0.01994882896542549,0.009154490195214748,0.006581391207873821
1772614988636741600,7.11274169921875,-0.008598435670137405,0.00699679646641016,0.01361852791160345
1772614988646809600,7.1228095703125,0.0021377813536673784,0.003957200795412064,0.016225455328822136
1772614988656877800,7.1328779296875,0.009854290634393692,0.0030229638796299696,0.012923935428261757
1772614988666944800,7.14294482421875,0.011255103163421154,-0.00007250788621604443,0.009278195910155773
1772614988677012700,7.1530126953125,0.008183413185179234,-0.00976747926324606,0.0026948617305606604
1772614988687079700,7.16307958984375,-0.001188042457215488,-0.01437095832079649,-0.0019494944717735052
1772614988697147600,7.173147705078125,-0.014083068817853928,-0.011027093976736069,-0.010877476073801517
1772614988707216000,7.1832158203125,-0.01948048546910286,0.0056465063244104385,-0.022767288610339165
1772614988717282800,7.19328271484375,-0.024576976895332336,0.010478545911610126,-0.01869797892868519
1772614988727350800,7.203350830078125,-0.02241452969610691,0.01322554238140583,-0.011723709292709827
1772614988737417700,7.213417724609375,-0.014538232237100601,0.009489926509559155,-0.006484472658485174
1772614988747485700,7.223485595703125,-0.0011107709724456072,0.006557009648531675,-0.006907862611114979
1772614988757553700,7.2335537109375,0.0022200443781912327,-0.002490014536306262,-0.006655128672719002
1772614988767620600,7.24362060546875,0.0035352720879018307,-0.0050997138023376465,0.0005600606091320515
1772614988777688800,7.253688720703125,0.0030484464950859547,-0.004532727412879467,0.0027065682224929333
1772614988787755800,7.263755859375,0.0022252914495766163,-0.00456791277974844,0.011661217547953129
1772614988797823700,7.27382373046875,-0.0037045027129352093,0.004357671830803156,0.012974688783288002
1772614988807891700,7.2838916015625,-0.0038125477731227875,0.010987711139023304,0.011533196084201336
1772614988817958700,7.293958740234375,-0.001089465687982738,0.009832964278757572,0.005278496071696281
1772614988828027000,7.30402685546875,0.001315653556957841,0.004225301556289196,0.0043998174369335175
1772614988838093800,7.31409375,0.0015060694422572851,0.005255678668618202,-0.005285566672682762
1772614988848161800,7.324161865234375,-0.0026512430049479008,0.004482947289943695,-0.011449436657130718
1772614988858229800,7.334229736328125,-0.0020717389415949583,0.0036693518050014973,-0.016315564513206482
1772614988868296700,7.344296630859375,-0.004424315877258778,-0.002485803561285138,-0.018779605627059937
1772614988878364700,7.35436474609375,-0.007533556316047907,-0.005462685599923134,-0.012855671346187592
1772614988888431900,7.364431884765625,-0.008012674748897552,0.00018039951100945473,-0.010122372768819332
1772614988898499800,7.374499755859375,-0.008726134896278381,0.007741646375507116,-0.0056155058555305
1772614988908567600,7.384567626953125,-0.014377476647496223,0.007047818507999182,-0.00037222320679575205
1772614988918634800,7.394634765625,-0.01930112950503826,0.003519929014146328,0.00412452407181263
1772614988928702700,7.40470263671875,-0.019902775064110756,0.004066892899572849,0.007004827260971069
1772614988938770700,7.414770751953125,-0.012183337472379208,0.00824832171201706,0.013590292073786259
1772614988948837600,7.424837646484375,-0.01146233081817627,0.0053304750472307205,0.019370097666978836
1772614988958905600,7.434905517578125,-0.013354507274925709,0.001230538822710514,0.0213826484978199
1772614988968972800,7.444972900390625,-0.017602169886231422,0.006648572627454996,0.022557977586984634
1772614988979040500,7.45504052734375,-0.019842421635985374,0.010201496072113514,0.020210135728120804
1772614988989108500,7.4651083984375,-0.019530365243554115,0.0058030011132359505,0.011700863018631935
1772614988999175700,7.47517578125,-0.018609710037708282,-0.0007981762755662203,0.006547645200043917
1772614989009243600,7.48524365234375,-0.015566743910312653,-0.0013105189427733421,0.0009309437591582537
1772614989019310600,7.495310546875,-0.004677876830101013,-0.002431443426758051,-0.005895004607737064
1772614989029378600,7.505378662109375,0.007352546323090792,-0.003640029113739729,-0.003287757746875286
1772614989039446500,7.515446533203125,0.013271155767142773,-0.00564778596162796,-0.005225739907473326
1772614989049513500,7.525513427734375,0.012483964674174786,-0.004677014425396919,-0.004420494195073843
1772614989059581700,7.535581787109375,0.0067014433443546295,-0.005246664397418499,-0.002118191448971629
1772614989069648600,7.545648681640625,-0.006350822746753693,-0.001556198112666607,-0.0007574626943096519
1772614989079716600,7.555716552734375,-0.015022341161966324,0.002530955243855715,-0.0030211496632546186
1772614989089784600,7.56578466796875,-0.01240354124456644,0.0010666251182556152,-0.003872948233038187
1772614989099851500,7.5758515625,-0.0055469670332968235,-0.0007182254921644926,-0.005200800485908985
1772614989109919700,7.585919677734375,-0.004874803591519594,0.0038196456152945757,0.0005032585468143225
1772614989119986700,7.595986572265625,-0.0053094313479959965,0.0010267887264490128,0.005171513184905052
1772614989130054700,7.6060546875,-0.005729769356548786,0.002152249915525317,0.005640017334371805
1772614989140122600,7.61612255859375,-0.003851974382996559,-0.0003066465724259615,0.006936976686120033
1772614989150189600,7.626189453125,0.005400164518505335,-0.0008097770623862743,0.0051100896671414375
1772614989160257500,7.636257568359375,0.005363413132727146,-0.0028494922444224358,0.008647832088172436
1772614989170325800,7.64632568359375,0.00019737379625439644,-0.01088110264390707,0.01062053069472313
1772614989180392700,7.656392822265625,-0.007490905933082104,-0.0058812834322452545,0.007605832070112228
1772614989190460700,7.666460693359375,-0.00979677028954029,-0.0004987616557627916,0.0031593337189406157
1772614989200527600,7.676527587890625,-0.01193289179354906,-0.004400292411446571,0.005373752675950527
1772614989210595600,7.686595703125,-0.008691745810210705,-0.009005066007375717,0.0030728590209037066
1772614989220663800,7.696663818359375,-0.009507738053798676,-0.007136325351893902,-0.00029204506427049637
1772614989230730800,7.706730712890625,-0.006940243300050497,-0.009529913775622845,0.0028589374851435423
1772614989240798700,7.716798828125,-0.006412405055016279,-0.016490085050463676,0.005147391930222511
1772614989250865700,7.72686572265625,-0.000773988722357899,-0.021453121677041054,0.00450659915804863
1772614989260933600,7.73693359375,-0.001303691416978836,-0.011972799897193909,0.003633880987763405
1772614989271001600,7.747001708984375,-0.011785391718149185,-0.0045910244807600975,0.002462745178490877
1772614989281068500,7.757068603515625,-0.015502632595598698,-0.0034381416626274586,0.0037160287611186504
1772614989291136800,7.76713671875,-0.014196626842021942,-0.009439650923013687,0.003161797532811761
1772614989301203700,7.77720361328125,-0.0037445181515067816,-0.004835045430809259,-0.002884909976273775
1772614989311271700,7.787271728515625,0.002388428896665573,-0.005181920249015093,-0.00519456434994936
1772614989321339600,7.797339599609375,0.008381606079638004,-0.009738055989146233,-0.0027753484901040792
1772614989331406600,7.807406494140625,0.008800981566309929,-0.015383175574243069,0.002135433489456773
1772614989341474800,7.817474853515625,0.010590625926852226,-0.01813874952495098,0.0063874367624521255
1772614989351541800,7.827541748046875,0.005957229994237423,-0.011382544413208961,0.007479561492800713
1772614989361609700,7.837609619140625,0.0004202520940452814,-0.005795232951641083,0.00710405595600605
1772614989371677700,7.847677734375,-0.0016582653624936938,-0.002489351900294423,0.011663730256259441
1772614989381744600,7.85774462890625,0.003016647882759571,0.00048140459693968296,0.011632304638624191
1772614989391812600,7.8678125,0.004489432089030743,0.004639868158847094,0.013374618254601955
1772614989401879800,7.8778798828125,0.008015457540750504,0.003427597228437662,0.01596880331635475
1772614989411947800,7.88794775390625,0.009130512364208698,0.0060778954066336155,0.013836273923516273
1772614989422015700,7.898015625,0.005277451127767563,-0.0009310117457062006,0.011093750596046448
1772614989432082700,7.908082763671875,-0.002344682579860091,-0.008090664632618427,0.009008732624351978
1772614989442150700,7.918150634765625,-0.0006850005593150854,-0.007048303261399269,0.004341010469943285
1772614989452217600,7.928217529296875,-0.005290593020617962,-0.0030409465543925762,-0.0015650034183636308
1772614989462285800,7.938285888671875,-0.011598289012908936,0.00001103617250919342,-0.0030198884196579456
1772614989472353800,7.948353759765625,-0.011917593888938427,0.0036372756585478783,0.00037098745815455914
1772614989482420700,7.958420654296875,-0.013910703361034393,0.0038362136110663414,0.01271979883313179
1772614989492488700,7.96848876953125,-0.009155362844467163,0.005352084990590811,0.018232543021440506
1772614989502556700,7.978556640625,0.003379534464329481,0.0058362288400530815,0.02020866796374321
1772614989512623900,7.988623779296875,0.006872536614537239,0.00032854522578418255,0.0202089361846447
1772614989522691800,7.99869189453125,0.005316185299307108,-0.0029380880296230316,0.022698458284139633
1772614989532758800,8.0087587890625,0.001060177688486874,-0.007723867893218994,0.023223228752613068
1772614989542826800,8.01882666015625,-0.0008202802273444831,-0.0039413804188370705,0.019059374928474426
1772614989552894700,8.028894775390626,0.00015334156341850758,0.0023969728499650955,0.014285625889897346
1772614989562961700,8.038961669921875,-0.004719976801425219,0.008596811443567276,0.011621667072176933
1772614989573029600,8.049029541015624,-0.011588473804295063,0.013328393921256065,0.012727586552500725
1772614989583097000,8.05909716796875,-0.01581064984202385,0.009815684519708157,0.015385155566036701
1772614989593164800,8.069164794921875,-0.011169079691171646,0.00882531888782978,0.018956908956170082
1772614989603232800,8.079232666015624,-0.008144261315464973,0.0027668934781104326,0.016429303213953972
1772614989613300000,8.089300048828125,-0.008677334524691105,-0.00391845777630806,0.013148695230484009
1772614989623368000,8.099367919921875,-0.005750520620495081,0.00032395776361227036,0.014162293635308743
1772614989633435100,8.10943505859375,-0.008185498416423798,0.0020026881247758865,0.017616484314203262
1772614989643502800,8.1195029296875,-0.016550753265619278,0.007695195265114307,0.016868136823177338
1772614989653570800,8.12957080078125,-0.019204525277018547,0.014293195679783821,0.02064443938434124
1772614989663637800,8.1396376953125,-0.021250898018479347,0.01037169061601162,0.01703878492116928
1772614989673705700,8.149705810546875,-0.02020919695496559,0.01130916178226471,0.01805226318538189
1772614989683774000,8.15977392578125,-0.017291437834501266,0.004193195607513189,0.013727288693189621
1772614989693841000,8.1698408203125,-0.013082223013043404,0.003945433534681797,0.009290678426623344
1772614989703908900,8.179908935546875,-0.0097585991024971,0.0037643383257091045,0.004424284212291241
1772614989713975800,8.189975830078126,-0.007891811430454254,0.00007168739102780819,0.0052299415692687035
1772614989724043800,8.200043701171875,-0.00458922516554594,0.0028581528458744287,0.005486669950187206
1772614989734112000,8.210112060546875,-0.0032919503282755613,0.0032377822790294886,0.007272363640367985
1772614989744179000,8.220178955078126,-0.0017324031796306372,0.004840472713112831,0.01659822091460228
1772614989754247000,8.230246826171875,-0.004605506546795368,-0.0009563372004777193,0.016606632620096207
1772614989764313900,8.24031396484375,-0.009356318973004818,-0.004352932795882225,0.015629518777132034
1772614989774381800,8.2503818359375,-0.008088026195764542,-0.0008905699942260981,0.007150260731577873
1772614989784449800,8.26044970703125,-0.005425664130598307,-0.00039042835123836994,-0.0005787655245512724
1772614989794517000,8.27051708984375,-0.004295418970286846,0.0026061604730784893,-0.007896066643297672
1772614989804585000,8.2805849609375,0.0012357003288343549,0.002531059319153428,-0.009454282000660896
1772614989814652000,8.29065185546875,0.004530612844973803,0.00023687235079705715,-0.007986949756741524
1772614989824720000,8.300719970703126,0.00811149924993515,0.01217395905405283,-0.012537493370473385
1772614989834787800,8.310787841796875,0.005297158379107714,0.019776130095124245,-0.018779991194605827
1772614989844854800,8.320854736328124,0.005240965634584427,0.001952126156538725,-0.01687876135110855
1772614989854923000,8.330923095703126,0.007627525366842747,-0.010455281473696232,-0.009901996701955795
1772614989864990000,8.340989990234375,0.002835166873410344,-0.015746716409921646,-0.006319512613117695
1772614989875058000,8.351057861328124,-0.002124805236235261,-0.016606910154223442,-0.007009353023022413
1772614989885126000,8.3611259765625,0.004123769700527191,-0.006049075163900852,-0.0008782238001003861
1772614989895192800,8.37119287109375,0.003828770015388727,-0.0036662460770457983,0.019881460815668106
1772614989905261000,8.381260986328124,0.005738522857427597,-0.009754498489201069,0.025466375052928925
1772614989915329000,8.3913291015625,0.0017410693690180779,0.005747633054852486,0.016077091917395592
1772614989925396000,8.40139599609375,0.003059866838157177,0.010709901340305805,0.00753526808694005
1772614989935464000,8.4114638671875,-0.00022552674636244774,0.003125070594251156,-0.003984218928962946
1772614989945531000,8.42153076171875,0.00020244333427399397,-0.007516122423112392,-0.02258346974849701
1772614989955598800,8.431598876953124,-0.005484948866069317,-0.004505549557507038,-0.03539632633328438
1772614989965667000,8.4416669921875,-0.006798419635742903,-0.00436706468462944,-0.047708652913570404
1772614989975734000,8.451734130859375,-0.0034550437703728676,-0.001326677855104208,-0.04571746289730072
1772614989985802000,8.461802001953124,0.00408250093460083,0.004461702890694141,-0.0345284566283226
1772614989995869000,8.471868896484375,0.00200860807672143,0.010013949126005173,-0.024144476279616356
1772614990005937000,8.48193701171875,-0.013091249391436577,0.019345931708812714,-0.01964826136827469
1772614990016005000,8.492005126953124,-0.015160022303462029,0.01753474585711956,-0.004238446243107319
1772614990026072000,8.502072021484375,-0.009900545701384544,0.009365232661366463,0.017053794115781784
1772614990036140000,8.51214013671875,-0.005650809034705162,0.006994449533522129,0.017520496621727943
1772614990046207000,8.52220703125,0.0010976411867886782,0.018367212265729904,0.0035402325447648764
