time,seconds_elapsed,z,y,x
1772615964765677600,0.072677490234375,-0.08931552926599978,-0.1907861912280321,0.6457656821351498
1772615964775745500,0.08274560546875,-0.43129824413359164,-0.14773264692127705,0.5893192434983328
1772615964785813800,0.092813720703125,-0.6897884368002414,-0.17489362556934357,0.6246975404694676
1772615964795881700,0.1028818359375,-0.8921557602286339,-0.2129553529381752,0.7168010930188
1772615964805949700,0.11294970703125,-1.0109382069975137,-0.2666074481487274,0.7600222489774227
1772615964816018200,0.12301806640625,-1.1010708978652954,-0.3660170859277248,0.6973533190965652
1772615964826086100,0.133086181640625,-1.171650747001171,-0.3919499840855598,0.56405810712222
1772615964836155100,0.143155029296875,-1.1719523602962494,-0.4629793305546045,0.5257517573425546
1772615964846223000,0.15322314453125,-1.1801134549200534,-0.540137389037013,0.4392666657295078
1772615964856291000,0.163291015625,-1.030025769305229,-0.4405161543339491,0.3289560600340366
1772615964866359000,0.173359130859375,-0.7987889097452163,-0.37034839313030243,0.273895011341013
1772615964876427300,0.18342724609375,-0.48228667309284207,-0.3113379857569933,0.3448162577930838
1772615964886495200,0.1934951171875,-0.12930559434890745,-0.28168986646831035,0.44160690871272235
1772615964896563000,0.20356298828125,0.2292588374853134,-0.2354237898558378,0.5374356192650274
1772615964906631000,0.213630859375,0.543658548900485,-0.236975110951066,0.6366806775994599
1772615964916699100,0.22369921875,0.8553484168350696,-0.38155309323370457,0.8649859406869858
1772615964926767000,0.23376708984375,1.0435393308728933,-0.5866559791058301,1.1132543798729777
1772615964936835000,0.2438349609375,1.0614151793032884,-0.790024004009366,1.1994411095939577
1772615964946904000,0.253904052734375,0.9249094443172216,-0.9074071053743362,0.8211028867535293
1772615964956972000,0.263971923828125,0.6103992582648993,-1.0439905817717312,0.36836386824958023
1772615964967040000,0.2740400390625,0.11042787539958954,-1.2702040602117777,0.09139131262674927
1772615964977108000,0.28410791015625,-0.42874739060699935,-1.3680635459393262,-0.2691755450710654
1772615964987176200,0.29417626953125,-0.8209855439841747,-1.2772738524675369,-0.6591608049549162
1772615964997244200,0.304244140625,-1.1182429819405078,-1.1281114650040864,-0.8616029471851885
1772615965007312100,0.31431201171875,-1.3637608803093433,-0.9763234052121639,-0.9047899086132645
1772615965017380000,0.324380126953125,-1.4741022464692592,-0.7650649193197488,-0.8160732220232486
1772615965027448000,0.334447998046875,-1.4374164836287497,-0.6474737281620502,-0.5094033742077648
1772615965037516000,0.34451611328125,-1.3735031066447496,-0.5881885955005883,-0.12191248842291533
1772615965047584000,0.354583984375,-1.3152677752971649,-0.4639280095815658,0.10299231857135892
1772615965057652000,0.36465185546875,-1.2725935856968165,-0.34673604687452314,0.08535166713632643
1772615965067721200,0.37472119140625,-1.2698995243072508,-0.23922435118257998,-0.09996683327034116
1772615965077789200,0.3847890625,-1.2285562910497188,-0.02139876185953617,-0.35415797703620044
1772615965087857000,0.39485693359375,-1.0742203003406523,0.2348655714511871,-0.5427719753243029
1772615965097925000,0.404925048828125,-0.8315425938338041,0.4429740688800812,-0.6176102125570178
1772615965107993000,0.4149931640625,-0.5063637142509222,0.6856856776565313,-0.58131180506628
1772615965118061000,0.42506103515625,-0.13574293392002582,0.9767202955752611,-0.4468055368017405
1772615965128129000,0.43512890625,0.21931027492284774,1.1530687961280346,-0.27838468744307754
1772615965138197200,0.445197265625,0.5801625254333019,1.2994453522652387,-0.2156361895199865
1772615965148265200,0.45526513671875,0.9613953006714582,1.454758663573861,-0.2683605023611337
1772615965158333200,0.465333251953125,1.284254212874174,1.5036439827740191,-0.31988705678507684
1772615965168401000,0.47540087890625,1.5096990450292824,1.4414491001456975,-0.33095516142938286
1772615965178470100,0.48547021484375,1.6773469372540712,1.3869886111617087,-0.3397714320262894
1772615965188538000,0.4955380859375,1.7642589125096797,1.3282476683795452,-0.27652678461670877
1772615965198606000,0.505606201171875,1.7205957118719815,1.1691600992292166,-0.20696743763498962
1772615965208674300,0.51567431640625,1.5428268231272697,1.0763444528877735,-0.17926424186900258
1772615965218742000,0.525741943359375,1.2817881150215864,0.930311595621705,-0.1045111621690914
1772615965228810000,0.53581005859375,0.9505436517894268,0.6771656865924597,-0.024276965910661964
1772615965238878000,0.5458779296875,0.5618564688920974,0.4147159426450729,-0.05745030018342658
1772615965248946200,0.5559462890625,0.1620434963464737,0.21971768667995928,-0.15278735476126892
1772615965259014100,0.56601416015625,-0.2207446916401386,-0.0003857844471931457,-0.19564579662103204
1772615965269082000,0.57608203125,-0.5494219347327948,-0.22421733618676662,-0.19900721761183812
1772615965279150000,0.586150146484375,-0.8343360239446163,-0.39318566336035726,-0.20694396542785687
1772615965289218300,0.59621826171875,-1.0636416231811046,-0.5619774649232626,-0.19776247824775053
1772615965299287000,0.606287109375,-1.263618252080679,-0.6694634416520595,-0.18456390091339125
1772615965309355000,0.61635498046875,-1.4497516490668056,-0.7572463545233011,-0.21346238914486018
1772615965319423000,0.626423095703125,-1.5758008719682692,-0.7784007862329483,-0.3327903774999082
1772615965329491200,0.6364912109375,-1.5526690027058123,-0.640581046038866,-0.5068748055782168
1772615965339559200,0.64655908203125,-1.3212398354440926,-0.41040801631808277,-0.5237645290480927
1772615965349627100,0.656627197265625,-0.900790317583084,-0.1957745010346174,-0.3179545543525368
1772615965359694800,0.66669482421875,-0.3568085280776024,0.007929039433598517,-0.0474209457360208
1772615965369763000,0.67676318359375,0.17628303410112856,0.20933365530967712,0.13175130700059234
1772615965379831000,0.6868310546875,0.6318892055392265,0.33159342280030246,0.20435080712949855
1772615965389899000,0.69689892578125,1.0025047251731156,0.4121592438995838,0.10176940744658931
1772615965399967200,0.70696728515625,1.2410650594890118,0.45573535077571864,-0.04378229697272181
1772615965410035200,0.71703515625,1.4175889166086912,0.43757133305370804,-0.09479388761185109
1772615965420104000,0.72710400390625,1.5633943948596716,0.3470540267825126,-0.0875860385922715
1772615965430172000,0.737171875,1.6735305938363074,0.2534147890985012,-0.1185786678250879
1772615965440240000,0.747240234375,1.684934031382203,0.15488134963214398,-0.17095920872986314
1772615965450308000,0.75730810546875,1.5317261679202316,0.023579613029956818,-0.27071828100103884
1772615965460376000,0.7673759765625,1.2555378214776516,-0.06274024155139923,-0.4454559853563085
1772615965470444000,0.777444091796875,0.935945802116394,-0.09673720369935035,-0.5972767418414354
1772615965480512300,0.78751220703125,0.6856020910263061,-0.08934592440426349,-0.6335757703866809
1772615965490580000,0.797580078125,0.5005570737987757,-0.07896773825287819,-0.5301960599329322
1772615965500648000,0.80764794921875,0.3580138122141361,-0.04729951131343841,-0.3793937963079661
1772615965510716000,0.8177158203125,0.24274726461172103,-0.04865969375073909,-0.22212346918005496
1772615965520784100,0.8277841796875,0.18205401871800422,-0.08074234670996666,-0.10512925753481686
1772615965530852000,0.83785205078125,0.13344576289355753,-0.1273778411567211,-0.07353555713631213
1772615965540921000,0.847921142578125,0.11307692860364914,-0.17352876695692537,-0.08602598620131612
1772615965550989000,0.857989013671875,0.056417468270659445,-0.2505067926973104,-0.0859799551025033
1772615965561057000,0.86805712890625,-0.016785130584239957,-0.3253752789378166,-0.1144107344906777
1772615965571125000,0.878125,-0.05383914221525192,-0.3234177151292562,-0.12771076290551572
1772615965581193000,0.88819287109375,-0.03278933992385864,-0.35789807687997816,-0.11123970323912799
1772615965591261200,0.89826123046875,0.050886137628555296,-0.3079980276793241,-0.03659205667506903
1772615965601329200,0.9083291015625,0.05736848538517952,-0.25690730738937856,0.17871314732488244
1772615965611397000,0.918397216796875,-0.003633388066291809,-0.22467852395772933,0.31646190464198587
1772615965621465000,0.928465087890625,0.03898994812965393,-0.13359306240975857,0.3103351653899997
1772615965631533000,0.938532958984375,0.04832534722983837,-0.08010229524075985,0.20527890002615748
1772615965641601000,0.94860107421875,0.10888999830782413,-0.028206688308715817,0.12346033891942351
1772615965651669000,0.9586689453125,0.2747510071158409,-0.03310439722239971,0.12246734582670032
1772615965661738200,0.96873828125,0.5125087928771972,-0.04047171112000942,0.1858735770061612
1772615965671806200,0.97880615234375,0.7630553330630063,-0.077886372756958,0.28670703704319894
1772615965681874000,0.9888740234375,0.953318377199769,-0.16297639328241348,0.35613866599202154
1772615965691942000,0.99894189453125,1.0562602807581425,-0.2533411393404007,0.3511938665335998
1772615965702010000,1.009010009765625,1.0816448973834514,-0.3534697390437126,0.2851116210779175
1772615965712078000,1.019078125,0.9983628030627966,-0.46570729421377177,0.19733495528437195
1772615965722146000,1.02914599609375,0.8447428516685962,-0.541338581520319,0.0918005875473842
1772615965732214000,1.039214111328125,0.6849281372874975,-0.5898316865324974,-0.008540814656391739
1772615965742282200,1.0492822265625,0.5143079512536526,-0.6111597212433815,-0.09131634769439696
1772615965752350200,1.05935009765625,0.3741933781206608,-0.5901490819185972,-0.18134601657912133
1772615965762418000,1.06941796875,0.3046890492618084,-0.564837530529499,-0.2365885775852017
1772615965772487200,1.079487060546875,0.3041653176486492,-0.5694488237172365,-0.2208472752317786
1772615965782555100,1.08955517578125,0.3978045553326606,-0.5942477494090795,-0.16724533930588512
1772615965792623000,1.099623046875,0.5278308651715516,-0.6685457422852515,-0.05824881188366562
1772615965802691000,1.109691162109375,0.5804717375129461,-0.781032888302207,-0.02777147522922605
1772615965812759000,1.119759033203125,0.47672845444381234,-0.9522796818017959,-0.11850680816527455
1772615965822826800,1.12982666015625,0.3180126412153244,-1.284587974873185,-0.3099147845534608
1772615965832894700,1.139894775390625,0.15920798065960406,-1.3997972393304108,-0.6743674341760575
1772615965842962700,1.149962646484375,-0.0663268678665161,-1.3074480414569376,-0.9730644764814526
1772615965853031000,1.160031005859375,-0.33076632432639597,-1.2230769828557968,-1.0586121045812964
1772615965863099000,1.170098876953125,-0.5177098686516285,-1.0332534991800784,-0.9867164236065
1772615965873166800,1.180166748046875,-0.6460106698721647,-0.7773854717105627,-0.8977864595919847
1772615965883234800,1.19023486328125,-0.6738356653869152,-0.4956400756627321,-0.7321210464213043
1772615965893303800,1.2003037109375,-0.5673363616079091,-0.19176994156837462,-0.4725911719759926
1772615965903371800,1.210371826171875,-0.34952129367887974,0.06545651477277278,-0.13326364779230207
1772615965913439700,1.220439697265625,-0.11907295414805412,0.16839724928736685,0.1521662454545498
1772615965923508000,1.230508056640625,0.09192191237211227,0.2709773337960243,0.20541297473460435
1772615965933576000,1.240575927734375,0.2953682632088661,0.372214187002182,0.059723779807053505
1772615965943644000,1.250643798828125,0.4820458500742912,0.3541062833815813,-0.05689809139445424
1772615965953711900,1.2607119140625,0.6105798755288123,0.2594318574309349,-0.151663447031565
1772615965963779800,1.27077978515625,0.7126742223471403,0.19714462034404276,-0.2121035218818113
1772615965973847800,1.280847900390625,0.772297208660841,0.09594050036370753,-0.21380659947264938
1772615965983915800,1.290915771484375,0.7471849792361259,0.0029401451051235196,-0.22370240893457083
1772615965993983700,1.300983642578125,0.6702034463644028,0.028274492847919462,-0.22310616007447243
1772615966004052000,1.311052001953125,0.4691524662315845,0.06964695219993591,-0.15139697811510414
1772615966014120700,1.32112060546875,0.19876549954414366,0.15790274327993392,-0.033144436971843244
1772615966024188700,1.331188720703125,-0.05992986030578613,0.3162520612835884,0.10811192660741507
1772615966034257000,1.3412568359375,-0.28859482355117794,0.4304232148647308,0.29824926200527696
1772615966044324900,1.351324951171875,-0.4814566520094871,0.5151829805225133,0.5205119569929316
1772615966054392800,1.361392822265625,-0.6182201611489058,0.6027203942000866,0.678136577451229
1772615966064460800,1.371460693359375,-0.6892378171801566,0.6635258682966232,0.6877902487203479
1772615966074529000,1.381529052734375,-0.6946878992795944,0.7629699928671121,0.7114554942071437
1772615966084597000,1.391596923828125,-0.7670499556571245,0.7651765630006789,0.7189438041359186
1772615966094664700,1.401664794921875,-0.8288830192357302,0.783529965814948,0.5943361948775128
1772615966104732700,1.411732666015625,-0.7985463331609964,0.8436632397383451,0.41254451689012345
1772615966114801000,1.42180078125,-0.7598065604001283,0.8868746049553156,0.3421093003893271
1772615966124868900,1.431868896484375,-0.744625942403078,0.9195026168376207,0.3881459521600976
1772615966134937900,1.441937744140625,-0.6580705255001783,0.9692775783538817,0.48847785588316617
1772615966145005800,1.452005859375,-0.5666255829900503,0.9699228905200957,0.6005533523593097
1772615966155073800,1.46207373046875,-0.5306862546026706,0.9461252508252859,0.6819718447651714
1772615966165141800,1.472141845703125,-0.5959492926299572,0.8664706993520259,0.7033337086804211
1772615966175209700,1.482209716796875,-0.6310632761090994,0.7564952438950538,0.7112664013758301
1772615966185278000,1.49227783203125,-0.5829343282341957,0.6723702690094709,0.680841890887171
1772615966195346000,1.502345947265625,-0.6530442217707634,0.5849024134367704,0.7094961037676781
1772615966205414000,1.512413818359375,-0.8782710272610187,0.4785001402914524,0.749834543896839
1772615966215481900,1.52248193359375,-1.1292156268537044,0.4093056080341339,0.6835087720088661
1772615966225549800,1.5325498046875,-1.2648270433485507,0.424411991751194,0.5869997875748202
1772615966235617800,1.54261767578125,-1.396362004184723,0.461350268048048,0.6100082861859351
1772615966245685800,1.552685791015625,-1.541364349359274,0.4856137716889381,0.6617234950497746
1772615966255754800,1.562754638671875,-1.5036615184307098,0.5838812536954879,0.6577971153862774
1772615966265823000,1.572822998046875,-1.3056874615252017,0.6467804852008819,0.626399010625109
1772615966275891000,1.582890869140625,-1.0560124434769154,0.6732108114868403,0.5873155389931053
1772615966285958700,1.592958740234375,-0.7821060704916715,0.6651052464425563,0.49748953945431856
1772615966296026600,1.603026611328125,-0.4636521152496338,0.6263923616886139,0.39709596867188807
1772615966306094800,1.6130947265625,-0.16921499541103838,0.6004483576148748,0.33372780448049305
1772615966316162800,1.623162841796875,0.1190565875351429,0.5441407794594765,0.37822972096465524
1772615966326230800,1.633230712890625,0.39283378118276596,0.4227835137665272,0.4242074456224218
1772615966336299000,1.643299072265625,0.622317075073719,0.33702187758982177,0.3870566225534305
1772615966346367000,1.653366943359375,0.7889122433751821,0.25063188038170336,0.35763124263733626
1772615966356435000,1.66343505859375,0.8602554780989885,0.13555354882776735,0.39493411446288224
1772615966366502700,1.673502685546875,0.8002057908058166,0.09312076676785945,0.4820201676437631
1772615966376572000,1.683572021484375,0.6784101336956023,0.03642974225282669,0.5610420472366735
1772615966386640000,1.693639892578125,0.5292530069291591,-0.0639876112639904,0.6271141000919044
1772615966396707800,1.703707763671875,0.285679812887311,-0.14162205508649348,0.6527674506559967
1772615966406775800,1.71377587890625,-0.0661006578952074,-0.1717202562302351,0.6599974019095302
1772615966416843800,1.72384375,-0.4218219752579927,-0.1335913088440895,0.719010147370398
1772615966426911700,1.733911865234375,-0.732954793831706,-0.09174889389276504,0.8235719072155654
1772615966436979700,1.743979736328125,-0.9921171866714954,-0.02806114235818386,0.9295822584338486
1772615966447047700,1.754047607421875,-1.130299914959073,0.07510755569338798,0.9936705535933374
1772615966457116000,1.764115966796875,-1.1301087763011455,0.1549322030365467,1.041966820859164
1772615966467183900,1.774183837890625,-1.1128531055957078,0.2880658312410116,1.162738687879592
1772615966477251800,1.784251953125,-1.2024112114459276,0.31653789248764513,1.251454351556301
1772615966487319800,1.79431982421875,-1.2406985642641781,0.3979407489329576,1.1663437996994703
1772615966497388800,1.804388916015625,-1.1740227368295193,0.49751113023161886,1.0982638045553117
1772615966507456800,1.814456787109375,-1.0313602327793836,0.45890872011482714,1.0800414077095686
1772615966517524700,1.824524658203125,-0.7660036614745855,0.38974516751766203,1.028528224223852
1772615966527593000,1.834593017578125,-0.5247603716850281,0.2557283267378807,0.9120373224582523
1772615966537661000,1.844660888671875,-0.33425650452971456,0.20689502998590467,0.784558943536505
1772615966547729000,1.85472900390625,-0.17205226466357706,0.19738602788448334,0.761576054290682
1772615966557796600,1.864796630859375,-0.01914659901857376,0.20084932008087633,0.8162385686527938
1772615966567864800,1.87486474609375,0.09908289004266262,0.21826748787164688,0.8562509186327457
1772615966577932800,1.884932861328125,0.16481646819114684,0.22580665120482443,0.8569432117458432
1772615966588000800,1.895000732421875,0.1279752225279808,0.22255027975738048,0.7861533731210977
1772615966598068700,1.90506884765625,-0.011234510719776153,0.24826281316280363,0.7089434383209794
1772615966608137000,1.915136962890625,-0.16378069540262222,0.29793256073892116,0.6392160412959754
1772615966618205700,1.925205810546875,-0.25963644009232517,0.33037527918219567,0.6095511535355821
1772615966628273700,1.935273681640625,-0.30215923852324483,0.33606618430018426,0.5972463832357898
1772615966638342000,1.945341796875,-0.23765900156199932,0.33353345095217224,0.6236161019083112
1772615966648409900,1.955409912109375,-0.09425123210251331,0.277796366161108,0.6481693822760135
1772615966658477800,1.965477783203125,0.035523148801922796,0.20391513739228248,0.6417218866370618
1772615966668545800,1.9755458984375,0.14135726667046547,0.1519002879947424,0.663574310548231
1772615966678614000,1.985614013671875,0.19270050041675565,0.08884206653535366,0.6923558761354536
1772615966688681700,1.995681640625,0.18476093958914278,0.020495675539970396,0.7718287143662571
1772615966698749700,2.005749755859375,0.13984686210751532,-0.03373918799459934,0.8483832539975643
1772615966708817700,2.015817626953125,0.02237082176208496,-0.12071487613618373,0.8398798487421125
1772615966718886000,2.025885986328125,-0.14359657002985476,-0.22324995245933532,0.6888010331980884
1772615966728953900,2.035953857421875,-0.2742980026513338,-0.30642449475228783,0.46941115370038894
1772615966739022800,2.04602294921875,-0.371578227186203,-0.39463703121244903,0.25845630866335706
1772615966749090800,2.0560908203125,-0.46256665810048575,-0.4643985497027635,0.1724656677700579
1772615966759158800,2.06615869140625,-0.4887076460510492,-0.49647769553065296,0.15930353172225878
1772615966769226800,2.076226806640625,-0.4596335272580385,-0.4723842877596616,0.17972453459082172
1772615966779294700,2.086294677734375,-0.4341460347801447,-0.42404725009202954,0.2395275719128549
1772615966789363000,2.096363037109375,-0.456840681669116,-0.3472130167365074,0.2716832901082933
1772615966799431000,2.106430908203125,-0.5564028796613216,-0.25185703826248645,0.2384847117964178
1772615966809499000,2.116498779296875,-0.7149433363229036,-0.18404314670860766,0.199445243702922
1772615966819567400,2.1265673828125,-0.8676163622558116,-0.13759119213521478,0.18696082425359636
1772615966829635300,2.13663525390625,-0.9758370829999446,-0.11118424672484398,0.15820433830870315
1772615966839703300,2.146703369140625,-1.1069394976377487,-0.11046937645375728,0.10581371440133079
1772615966849771300,2.156771240234375,-1.2106991473197937,-0.09633271455168724,-0.010072006279043852
1772615966859840500,2.166840576171875,-1.3038257593065499,-0.11087503464519977,-0.15562380202990025
1772615966869908200,2.176908203125,-1.4088713571459055,-0.08481997141242027,-0.30768421248979866
1772615966879976200,2.18697607421875,-1.361554894697666,0.027588264149427413,-0.4960450032018125
1772615966890044200,2.197044189453125,-1.2583470336794853,0.07603753001987934,-0.6200793791495263
1772615966900112400,2.2071123046875,-1.0749065290391444,0.10130933392047882,-0.667448302437365
1772615966910180400,2.217180419921875,-0.8540618841558695,0.13915478819012642,-0.6470184586752206
1772615966920248300,2.227248291015625,-0.5654466023385525,0.23036826003193853,-0.6850976486355066
1772615966930316300,2.23731640625,-0.2965145106345415,0.3401204281270504,-0.7337908793296665
1772615966940384500,2.247384521484375,-0.10467267287373543,0.4441489578783512,-0.7683071891766041
1772615966950452200,2.2574521484375,0.014134323814511298,0.5635960060358047,-0.8116261064212769
1772615966960520200,2.267520263671875,0.09017536096572876,0.6887357128769159,-0.8448662588525563
1772615966970588200,2.277588134765625,0.15965163277387617,0.8128110053569078,-0.8095807181987911
1772615966980657400,2.287657470703125,0.17297639377117155,0.9235931010216474,-0.7219053573552519
1772615966990725400,2.297725341796875,0.16592764430344104,1.0729448735773564,-0.6138900229901075
1772615967000793300,2.30779345703125,0.12471008325219153,1.214035013744235,-0.39687363115809854
1772615967010861300,2.317861328125,0.0993055928826332,1.3196633799076078,-0.14706580790984444
1772615967020929300,2.32792919921875,0.1557604705542326,1.452981132507324,0.03674942092755809
1772615967030997200,2.337997314453125,0.20893559590280056,1.5239508577436207,0.2316820643105544
1772615967041065200,2.348065185546875,0.23804946218430995,1.4684855756312607,0.3453976378776133
1772615967051133400,2.358133544921875,0.26079320891201496,1.4140209949940443,0.3444069098072126
1772615967061201400,2.368201416015625,0.32056232569813725,1.3287573714673517,0.30293071608608585
1772615967071269400,2.378269287109375,0.397070980361104,1.1658873611688614,0.31098435001373287
1772615967081337000,2.388337158203125,0.40371640972495076,1.0046633645117282,0.3038114992422983
1772615967091405300,2.3984052734375,0.28950667769908905,0.8864695312857628,0.2642790782663971
1772615967101473300,2.408473388671875,0.15779752933979033,0.6616448768556118,0.13604703143313526
1772615967111542300,2.418542236328125,0.04532499637007713,0.5418564679145813,-0.015270200543222017
1772615967121610500,2.428610595703125,-0.11110708983540535,0.39946635106503964,-0.11991715902038849
1772615967131678500,2.438678466796875,-0.2576572489738464,0.28807752167880535,-0.17120744786988942
1772615967141746200,2.44874609375,-0.3842518307983875,0.23515081813335417,-0.19426296396050602
1772615967151814100,2.458814208984375,-0.537250435423851,0.18142156603336332,-0.16496723830606788
1772615967161882400,2.46888232421875,-0.6831213801264763,0.13698738102316857,-0.09928707084525376
1772615967171950300,2.478950439453125,-0.823303173276782,0.09812427414357662,-0.020911494365823454
1772615967182018300,2.489018310546875,-0.9447802659571171,0.06735913352370261,0.04989066945095546
1772615967192086300,2.499086181640625,-1.0705103399068117,0.06554127044677734,0.08283122701430692
1772615967202154500,2.509154541015625,-1.1850251923590898,0.0689151307940483,0.16979542564749717
1772615967212222500,2.519222412109375,-1.243112055146694,0.06488660593032837,0.23803656617011873
1772615967222291200,2.529291259765625,-1.2283709976106882,0.10566577556431293,0.1926238184513524
1772615967232359400,2.539359375,-1.1916133385777472,0.1470674610108137,0.10398311970699578
1772615967242427400,2.549427490234375,-1.128295004877448,0.1991740803450346,0.050500887470901944
1772615967252495400,2.559495361328125,-0.9940618909984826,0.29454759447574613,0.1084209742902778
1772615967262563300,2.569563232421875,-0.871578836145997,0.3705985684990883,0.2573849713711068
1772615967272631300,2.57963134765625,-0.7403612706959247,0.42149464299976824,0.3391652097614482
1772615967282699300,2.58969921875,-0.5319178422242403,0.5065419934272766,0.2792162428963929
1772615967292767200,2.599767333984375,-0.28943536602854725,0.5158557652175426,0.1949757153397426
1772615967302835200,2.609835205078125,-0.060250762823224065,0.5383762245833873,0.12171078270520083
1772615967312903400,2.6199033203125,0.16654256133139134,0.5403226824760436,0.06261082931833807
1772615967322971400,2.629971435546875,0.37226679397225376,0.49719782649874683,0.026159395823511292
1772615967333039400,2.640039306640625,0.5473866295129061,0.44592356633543967,-0.008825495082978158
1772615967343107300,2.650107421875,0.6438380020081996,0.3847872528493404,-0.04016956810196862
1772615967353176300,2.66017626953125,0.6771849758148193,0.2588175249248743,-0.11343823619671166
1772615967363244300,2.670244384765625,0.6520493655145168,0.10965104580819607,-0.24897633172702044
1772615967373312300,2.680312255859375,0.5518354256153106,-0.04904197106659412,-0.36851175228767097
1772615967383380500,2.69038037109375,0.3768266492336988,-0.19498072030842303,-0.4138422285504639
1772615967393448400,2.700448486328125,0.16371405990719795,-0.26347557986378667,-0.367300842127949
1772615967403516400,2.710516357421875,-0.0654950932174921,-0.2705892112612724,-0.2594622160365805
1772615967413584100,2.720584228515625,-0.3099555914878845,-0.2249544182896614,-0.18236935001118107
1772615967423652400,2.73065234375,-0.5724269627451897,-0.16638006424605845,-0.2126759149422869
1772615967433720300,2.74072021484375,-0.7198620880246162,-0.039430677634477614,-0.20971562209827824
1772615967443788300,2.750788330078125,-0.8049977012574672,0.05979892740249634,-0.10630633849017321
1772615967453856300,2.760856201171875,-0.867649095481634,0.07654080336689949,-0.03453859474398196
1772615967463924500,2.770924560546875,-0.7856523647964,0.13411679402291773,-0.06508382726917043
1772615967473993200,2.7809931640625,-0.6227005214333534,0.1358925715237856,-0.08259836810650303
1772615967484061200,2.791061279296875,-0.42661213214397425,0.14013093974590302,-0.07994880344578996
1772615967494129400,2.80112939453125,-0.20238076743185518,0.13137713992595673,-0.0799136042682454
1772615967504197400,2.811197265625,0.04354512721598148,0.12201193020939827,-0.07069244266487658
1772615967514265300,2.821265380859375,0.28406360986232754,0.09485387417078017,-0.04311793304616585
1772615967524333300,2.831333251953125,0.46455052539408204,0.08351356498897075,-0.0175354374948889
1772615967534401500,2.841401611328125,0.5875280857652425,0.0583364536345005,-0.046791707921773194
1772615967544469200,2.85146923828125,0.6548509789317846,0.026841829696297646,-0.11653664060346781
1772615967554537200,2.861537109375,0.6665957772612572,0.028189737173914906,-0.16939988699126987
1772615967564605200,2.871605224609375,0.653747986125946,-0.0011555997759103774,-0.15258878171555698
1772615967574673400,2.88167333984375,0.6328934141457081,-0.07968202400207519,-0.10959811004456133
1772615967584741400,2.891741455078125,0.5501140086501837,-0.12728373313248156,-0.08449899582974613
1772615967594810400,2.901810302734375,0.47449382725954053,-0.1540863998621702,-0.07395681475568562
1772615967604878300,2.91187841796875,0.3147919256031513,-0.24008885905742644,-0.0554153420234099
1772615967614946300,2.9219462890625,0.14735855291187763,-0.31943945914804933,-0.08077497033793479
1772615967625014300,2.93201416015625,0.023054127851128578,-0.34888474934101105,-0.10398363116364925
1772615967635082200,2.942082275390625,-0.05593523771166801,-0.37978842164874077,-0.12265373524427413
1772615967645150500,2.952150390625,-0.08325345274806022,-0.3988882589161396,-0.12461018480798229
1772615967655218400,2.962218505859375,-0.11424188072979449,-0.38888650486171245,-0.10962534511135891
1772615967665286400,2.972286376953125,-0.1316051034629345,-0.38495559515357014,-0.08743393503678962
1772615967675354400,2.982354248046875,-0.0951888052135706,-0.38454993696212764,-0.07949083054522052
1772615967685422300,2.99242236328125,-0.034951486393809315,-0.4050315839767456,-0.0933188831558451
1772615967695490300,3.002490234375,0.03855681740939617,-0.45561377022266386,-0.13386829915456472
1772615967705558300,3.012558349609375,0.1480383518695831,-0.507203087684512,-0.20770276617221534
1772615967715627500,3.02262744140625,0.28075229335725305,-0.5112783742994069,-0.2481339808850549
1772615967725695500,3.032695556640625,0.388031349337101,-0.5143494523078203,-0.24014924747515468
1772615967735763200,3.04276318359375,0.4923480483800173,-0.49921501154005526,-0.15964414358716458
1772615967745831200,3.0528310546875,0.6443254932641983,-0.5075140533298254,0.035444868534477425
1772615967755899400,3.0628994140625,0.7793477116942406,-0.5953793837875128,0.23877072566356508
1772615967765967400,3.07296728515625,0.8154109587222337,-0.6899012495249509,0.306030490466021
1772615967776035300,3.083035400390625,0.7223281858772039,-0.7751052518188953,0.14218351576100102
1772615967786103300,3.093103271484375,0.4922434189617634,-0.8301029164195061,-0.1793386953447014
1772615967796171500,3.103171630859375,0.1584656378597021,-0.8735808236181736,-0.5241038805376738
1772615967806239500,3.113239501953125,-0.15648410865366458,-0.8866939876914024,-0.7912458008892834
1772615967816307000,3.123306884765625,-0.3871709331154823,-0.7856511957526207,-0.8742244552839546
1772615967826374700,3.133374755859375,-0.5997013386398553,-0.6827858645617961,-0.8007465466190129
1772615967836444000,3.14344384765625,-0.7648451390892267,-0.5245248093634843,-0.6947828110214322
1772615967846511900,3.153511962890625,-0.8200771969676017,-0.2964285859167576,-0.5897847055856138
1772615967856579800,3.163579833984375,-0.8218395304650068,-0.06460135924816131,-0.5184107469299808
1772615967866647800,3.173647705078125,-0.7805681933999061,0.11984335399866103,-0.49785621734224256
1772615967876715800,3.1837158203125,-0.6049766486942768,0.32827450751066206,-0.540047957187891
1772615967886783700,3.19378369140625,-0.42653497525453565,0.4807949732303619,-0.5865215390712022
1772615967896851700,3.203851806640625,-0.24478140078783034,0.5480062227159738,-0.5386016673697158
1772615967906919700,3.213919677734375,-0.040271220111846924,0.5250660766333342,-0.5399819792795926
1772615967916988000,3.22398779296875,0.13947861331701278,0.49783027918338774,-0.5741039560467004
1772615967927056000,3.234055908203125,0.23831425060033798,0.44275662673711774,-0.5919847729131579
1772615967937123800,3.244123779296875,0.2779962726473808,0.4183645282804966,-0.636251346271485
1772615967947191800,3.25419189453125,0.29825404777824877,0.3997077586054802,-0.6445511187136173
1772615967957260800,3.2642607421875,0.27235797449946403,0.4056920937120914,-0.5754593161784112
1772615967967328800,3.274328857421875,0.24476503417491913,0.46104631666541096,-0.4462669729456305
1772615967977396700,3.284396728515625,0.23829788398742674,0.5559212336242199,-0.2689231412125751
1772615967987465000,3.29446484375,0.2100964563757181,0.6507604947477579,-0.053654013173002744
1772615967997533000,3.304532958984375,0.12621288903057573,0.7180640986919402,0.12675105102788656
1772615968007601000,3.314600830078125,0.015103461107611656,0.7588099505782127,0.24083469072235747
1772615968017668600,3.324668701171875,-0.09101999509632587,0.7675918074488639,0.2851554419533349
1772615968027736800,3.33473681640625,-0.13469897782504558,0.7617769836902618,0.287707610654179
1772615968037804800,3.3448046875,-0.16498597953915595,0.7125064645648003,0.2952226989920251
1772615968047872800,3.354872802734375,-0.16661854917705057,0.7017471701413392,0.2761386803482659
1772615968057940700,3.364940673828125,-0.17311258737146853,0.6740022541254759,0.21174164803316817
1772615968068009000,3.375009033203125,-0.17895371461510656,0.6161404322654008,0.1212669570609927
1772615968078077700,3.38507763671875,-0.23270751663446426,0.5362754529118537,-0.01050431501539424
1772615968088145700,3.395145751953125,-0.3249099995136261,0.43477439581155775,-0.12841839971821756
1772615968098214000,3.4052138671875,-0.3974807302057743,0.40065994476377964,-0.17192261040192097
1772615968108281900,3.41528173828125,-0.4471773657888174,0.3748059570610523,-0.1379014088618569
1772615968118349800,3.425349853515625,-0.4422983615756035,0.35339199763238427,-0.048982916089426724
1772615968128417800,3.435417724609375,-0.38297523499131203,0.34397827259898184,0.023112232980225234
1772615968138486000,3.445486083984375,-0.3053846303105354,0.3484849363684654,0.0671645607996732
1772615968148553700,3.4555537109375,-0.22237083153724668,0.3595826689660549,0.06865344765055924
1772615968158621700,3.46562158203125,-0.18798223972320555,0.37929216256439685,0.03336536797983572
1772615968168689700,3.475689697265625,-0.15420914945900438,0.4255056322067976,0.0055063605976291
1772615968178758000,3.4857578125,-0.1370247904241085,0.4683908342093229,0.07118223547581583
1772615968188825900,3.495825927734375,-0.13618833959996698,0.5060831437438726,0.19532999040381982
1772615968198894800,3.505894775390625,-0.1557692383825779,0.58671209320724,0.2876300153733231
1772615968208962800,3.515962890625,-0.15983926430046558,0.656399961939454,0.40722142217122015
1772615968219030800,3.52603076171875,-0.23062778775095938,0.6637368806988001,0.5775593571975827
1772615968229098800,3.5360986328125,-0.3506552661448717,0.5816144778072834,0.6360230174083262
1772615968239166700,3.546166748046875,-0.495353075414896,0.6614782881170511,0.6799641582045703
1772615968249235000,3.55623486328125,-0.615879150980711,0.6605214257836342,0.7758753594085573
1772615968259303000,3.566302978515625,-0.6912474034368992,0.6776683754175901,0.8322188125949352
1772615968269371000,3.576370849609375,-0.758309599840641,0.6183920105844736,0.8863467086236924
1772615968279438800,3.58643896484375,-0.7683481787741184,0.4819669396191835,0.8899629994247108
1772615968289506800,3.5965068359375,-0.7792027502655983,0.3668956223279238,0.8433746320553124
1772615968299574800,3.60657470703125,-0.9361761037409305,0.28094986175596715,0.6581828998334706
1772615968309642800,3.616642822265625,-1.0461077200561761,0.14944880318939685,0.4578722897391766
1772615968319712000,3.6267119140625,-1.1054285085529088,0.021972762355208397,0.15521575095197185
1772615968329780000,3.636780029296875,-1.1528840872108936,0.039946810463070866,-0.10716207853667438
1772615968339847700,3.64684765625,-1.1035089386671781,0.0029015666604042052,-0.3796774720875546
1772615968349915600,3.65691552734375,-1.0036854593902826,0.06287760419547557,-0.5518922338364646
1772615968359983900,3.66698388671875,-0.8125590764224528,0.19617080687582492,-0.6441000870104879
1772615968370051800,3.6770517578125,-0.49649523118734357,0.31124270868897436,-0.5258234343392774
1772615968380119800,3.687119873046875,-0.08531038527786731,0.296733706343174,-0.3796625667793676
1772615968390187800,3.697187744140625,0.4705050498843193,0.2980874590396881,-0.2398591784873977
1772615968400256000,3.707256103515625,1.023418333864212,0.16694763500094412,-0.044755379788577555
1772615968410324000,3.717323974609375,1.4351830254882574,0.018995207849144935,0.13516148990341462
1772615968420391700,3.7273916015625,1.7541595432996748,-0.0352092605471611,0.3162756248222664
1772615968430459600,3.737459716796875,1.8744044638365507,-0.15309154360592364,0.5043323180211707
1772615968440529000,3.74752880859375,1.8341881887823341,-0.15457330659627913,0.6177054896250367
1772615968450596900,3.757596923828125,1.5486977609872816,-0.15689035136699675,0.6818539174739271
1772615968460664800,3.767664794921875,1.0219552755743264,-0.15455518641769886,0.6771252084515988
1772615968470732800,3.77773291015625,0.41152386860549445,-0.09668050507605075,0.6752441439453511
1772615968480800800,3.78780078125,-0.2149468190163374,-0.0695686262667179,0.6726400258615612
1772615968490868700,3.79786865234375,-0.7068488771945237,-0.04968202253580093,0.6319719884518533
1772615968500936700,3.807936767578125,-1.0234995824068784,0.05607844557464122,0.577010162349604
1772615968511005000,3.8180048828125,-1.2460732430398465,0.12551087824106216,0.5647424726571887
1772615968521073000,3.828072998046875,-1.4067822759121655,0.15462182191312313,0.6956014339279383
1772615968531140900,3.838140869140625,-1.5135855310738087,0.22065409074723719,0.8165617361925542
1772615968541208800,3.848208740234375,-1.4921785859078167,0.32396132048666476,0.9167360016684979
1772615968551276800,3.85827685546875,-1.425558288052678,0.36233342897891996,1.0122451248776168
1772615968561345800,3.868345703125,-1.182249882426858,0.42081425952017304,1.1169000428989528
1772615968571413800,3.878413818359375,-0.7927601509749889,0.41635728011131284,1.1650011529188602
1772615968581482000,3.88848193359375,-0.36716567144095896,0.3864484640598297,1.1425788201652467
1772615968591550000,3.898550048828125,0.011464812344312666,0.31452246101200576,1.0504672304399312
1772615968601618000,3.908617919921875,0.29308161357641216,0.1933352911889553,0.9443880517691373
1772615968611685600,3.918685546875,0.46710020987689493,0.07305997551381588,0.778551446750015
1772615968621753900,3.92875390625,0.5261006803780793,-0.012909750455617904,0.5460590707035735
1772615968631821800,3.93882177734375,0.5165186130404472,-0.07540624637901783,0.4261985463744029
1772615968641889800,3.948889892578125,0.49507367395162577,-0.11246610322892665,0.4475335588153451
1772615968651957800,3.958957763671875,0.45230537632703777,-0.10469371566176414,0.5339250173281878
1772615968662026000,3.96902587890625,0.3384861049234867,-0.12507424038946627,0.6376270185388624
1772615968672094700,3.9790947265625,0.18454408196806907,-0.11350012245178222,0.6864733209028839
1772615968682162700,3.98916259765625,0.029924013620615003,-0.15548457622230052,0.6728562989607453
1772615968692231000,3.99923095703125,-0.11846271329522132,-0.19277824182808398,0.6646215545788406
1772615968702299000,4.009298828125,-0.24615619627237317,-0.2458160045325756,0.6543105884447693
1772615968712366800,4.019366943359375,-0.3402501919865608,-0.3174421478509903,0.6232245453074574
1772615968722434800,4.029434814453125,-0.3995809173554182,-0.3758697869002819,0.5667649914607406
1772615968732503000,4.0395029296875,-0.3598614859074354,-0.4356903416126966,0.5201629608921706
1772615968742570800,4.04957080078125,-0.24808278042078016,-0.5593798496454954,0.5790907314833253
1772615968752638700,4.059638671875,-0.07662029834389686,-0.6601619448214769,0.6287296455297618
1772615968762706700,4.069706787109375,0.11390344255566597,-0.6870616421848535,0.5708068141974508
1772615968772775000,4.07977490234375,0.1981844847857952,-0.7650076361745596,0.44748500696588306
1772615968782843000,4.0898427734375,0.23763562068641184,-0.767643829897046,0.2727542072754353
1772615968792912000,4.099911865234375,0.20928806260228155,-0.7064999176263809,0.12577860753284767
1772615968802979600,4.1099794921875,0.16922902393639086,-0.5895575457662343,0.06821485530389472
1772615968813047600,4.120047607421875,0.05999298866987228,-0.4199082505911588,0.14122279923637396
1772615968823115500,4.130115478515625,-0.04605097255706787,-0.21403788747787475,0.2702687836678698
1772615968833183700,4.140183837890625,-0.15753449448943138,0.0417184963107109,0.40233631701078265
1772615968843251700,4.150251708984375,-0.2765051573067903,0.2637368611484766,0.5481184509187936
1772615968853319700,4.160319580078125,-0.38042438146471974,0.39098260035812854,0.7045093283310532
1772615968863387600,4.1703876953125,-0.4943675715088844,0.48350423218905925,0.835279296144098
1772615968873455900,4.180455810546875,-0.6105646779596805,0.521463083705306,0.969509852739796
1772615968883523600,4.190523681640625,-0.7089227608591318,0.4601496600866318,0.9622313861694186
1772615968893591600,4.200591552734375,-0.8309259232401848,0.4488853387504816,0.8035282132267951
1772615968903659500,4.210659423828125,-1.0151800823509693,0.4264063804388046,0.5785349972967058
1772615968913728800,4.220728759765625,-1.1621434984654186,0.4166086245238781,0.38856538314856587
1772615968923796700,4.230796630859375,-1.3184709552526472,0.4077303215414285,0.21209411473264916
1772615968933864700,4.24086474609375,-1.3499264162242413,0.42056466867327685,-0.09724986592922359
1772615968943932700,4.2509326171875,-1.2668904056191443,0.43343174903094767,-0.3264434196259826
1772615968954000600,4.261000732421875,-1.094029162660241,0.3564695053815842,-0.3906652049720287
1772615968964068600,4.271068603515625,-0.8681284034311771,0.33470541734099385,-0.4299815720444545
1772615968974136600,4.281136474609375,-0.6422393346399069,0.33133740221261976,-0.4846233724121004
1772615968984204800,4.291204833984375,-0.43837797326147554,0.2853302687972784,-0.5062282513029873
1772615968994272800,4.301272705078125,-0.2875087818801403,0.2565980953097343,-0.5542522774986922
1772615969004340700,4.3113408203125,-0.1780506282955408,0.2877694786429405,-0.5716767288997769
1772615969014408700,4.32140869140625,-0.1848001025557518,0.3060036389917135,-0.5440666182447225
1772615969024476700,4.3314765625,-0.23797172077298162,0.4241045332372188,-0.4968991723457351
1772615969034545700,4.341545654296875,-0.31810967184901234,0.6057189914941787,-0.38069662253484127
1772615969044613600,4.351613525390625,-0.35647008990347384,0.7333920162051916,-0.20941985402209684
1772615969054681900,4.361681884765625,-0.3782973063081503,0.9131284056305885,-0.06733672076249494
1772615969064749800,4.371749755859375,-0.34875615452527997,1.0868278529793023,0.02347891086814925
1772615969074817500,4.381817626953125,-0.2889069582402706,1.1817641447365284,0.13864479284137488
1772615969084885500,4.391885498046875,-0.2114297508060932,1.230275369927287,0.24108415370509026
1772615969094953700,4.40195361328125,-0.08574526956379414,1.2114578567326069,0.2278489889536984
1772615969105021700,4.412021728515625,0.07633037548661231,1.1412462563872336,0.1689600890682079
1772615969115089700,4.422089599609375,0.19535832144916057,1.0321750562936067,0.05834228058708831
1772615969125157600,4.43215771484375,0.27442601294517516,0.9038298314094543,-0.07179033917048945
1772615969135225900,4.442225830078125,0.3362245897322893,0.7863298256665467,-0.1700488524192944
1772615969145293800,4.4522939453125,0.3927519481182098,0.6684072105973958,-0.20948363997330888
1772615969155362600,4.462362548828125,0.4570750749468803,0.5635170955806971,-0.16690439864741638
1772615969165430800,4.4724306640625,0.47772272617816924,0.4465080882251262,-0.09601747459005563
1772615969175498800,4.482498779296875,0.3936930283606052,0.3309095321893692,-0.0934896731454879
1772615969185566700,4.492566650390625,0.2188110932290554,0.26772154687047,-0.1631352736385539
1772615969195634700,4.502634765625,0.032309447452425956,0.2534913614660501,-0.2201775958092883
1772615969205702700,4.51270263671875,-0.149472768586874,0.1722293747961521,-0.18151680656876415
1772615969215770600,4.5227705078125,-0.2953168252825737,0.10836451312899589,-0.14266268671322613
1772615969225838600,4.532838623046875,-0.40513738243877884,0.038893502017855644,-0.11146804123544134
1772615969235906600,4.542906494140625,-0.5032032043933868,-0.11253215420246124,-0.07703930007410235
1772615969245974800,4.552974853515625,-0.6106605395495891,-0.264873756223917,-0.0528579217587132
1772615969256042800,4.563042724609375,-0.7613561279296874,-0.36688626997768875,-0.10185422705267555
1772615969266110700,4.57311083984375,-0.9161217422276735,-0.3793734111070633,-0.2342574312238954
1772615969276179700,4.5831796875,-0.9787649531453847,-0.347161578810215,-0.3000551241171546
1772615969286247700,4.59324755859375,-0.9504846150785684,-0.2844271824777126,-0.23733172410270198
1772615969296315600,4.603315673828125,-0.7867851682186127,-0.1021814405798912,-0.10682967737768775
1772615969306383600,4.613383544921875,-0.49051381869018074,0.048402504119277,0.06723378097782842
1772615969316451800,4.623451904296875,-0.15912965472638607,0.15358195747137068,0.1904925785763189
1772615969326519800,4.633519775390625,0.12935761679708957,0.31772271835803984,0.19314497451493515
1772615969336587800,4.643587890625,0.3991647377699613,0.44037703812420365,0.2283405535966158
1772615969346655500,4.653655517578125,0.6642272945642471,0.4535299496859312,0.23848840159084647
1772615969356723700,4.6637236328125,0.8574211314558983,0.4293663992881775,0.23734171577375382
1772615969366791700,4.673791748046875,1.0380874952077865,0.3314174817115068,0.11519423128487541
1772615969376859600,4.683859619140625,1.188961947286129,0.16992811211645603,-0.031189759240113198
1772615969386929000,4.693928955078125,1.2357295436799525,-0.06240940216183662,-0.12154820342147722
1772615969396996900,4.703996826171875,1.1556862851500511,-0.22668284951746462,-0.24004470938844605
1772615969407064600,4.714064697265625,0.9522972174584865,-0.3217600110501051,-0.36018746645878996
1772615969417132500,4.724132568359375,0.6472159540086985,-0.37044250115454197,-0.45712998347189276
1772615969427200800,4.73420068359375,0.4036883526742458,-0.4023924676448106,-0.5213754419544712
1772615969437268700,4.744268798828125,0.1795101794540882,-0.39647126090228557,-0.5213098293723538
1772615969447336700,4.754336669921875,-0.018138883280754088,-0.3753150756269693,-0.475503552291356
1772615969457404700,4.76440478515625,-0.17445874128341674,-0.34764731650054453,-0.41545514363981784
1772615969467473000,4.774472900390625,-0.3199684514582157,-0.2977870147883892,-0.4004201811911538
1772615969477540600,4.78454052734375,-0.40938334944546223,-0.21075345897972583,-0.4255559376219287
1772615969487608600,4.794608642578125,-0.35381168434917926,-0.16750526888370512,-0.412577286648564
1772615969497676500,4.804676513671875,-0.20164134724140165,-0.10670622452795504,-0.28268508805073794
1772615969507745800,4.814745849609375,-0.11676526172757148,-0.03470306459069252,-0.07095310289505868
1772615969517813800,4.824813720703125,-0.03594342004060745,-0.03805529762804508,0.010012933035567403
1772615969527881700,4.8348818359375,0.16677695460915565,-0.04241466188132763,-0.14916457942053674
1772615969537949700,4.84494970703125,0.39032442871034145,-0.022944822257757187,-0.3131924179846421
1772615969548017700,4.855017578125,0.5221697706699371,-0.08178396471738815,-0.36014432143680747
1772615969558085600,4.865085693359375,0.7176631166756152,-0.12406535560786723,-0.2749006447196007
1772615969568153600,4.875153564453125,0.9484440491616726,-0.11981997312307358,-0.13985263426117597
1772615969578221800,4.885221923828125,1.1096148543268443,-0.10527823755145073,0.028927184602990746
1772615969588289800,4.895289794921875,1.1646692175507545,-0.1115747073471546,0.19616276969984173
1772615969598357800,4.905357666015625,1.0951952838301657,-0.09719956051409244,0.25599742600284514
1772615969608425700,4.91542578125,0.9382593397557735,-0.085594462916255,0.2230345561429858
1772615969618493700,4.92549365234375,0.726128747203946,-0.10664952590465546,0.1315647714525461
1772615969628562700,4.935562744140625,0.5278618448317051,-0.13550327994525432,0.05597469293922185
1772615969638630700,4.945630615234375,0.3346767757683992,-0.24560090047717092,0.028487697207182645
1772615969648699000,4.955698974609375,0.24082068046331404,-0.32298984510600565,0.0579773379985243
1772615969658766800,4.965766845703125,0.17920739711523054,-0.3971984061330557,0.13043905535824596
1772615969668834600,4.97583447265625,0.11262567770481109,-0.456801518702507,0.19901129099875686
1772615969678902500,4.985902587890625,0.026021745485067367,-0.4974222829043865,0.22903920338526368
1772615969688970800,4.995970703125,-0.004883095866441726,-0.5192132589519024,0.2601704008385539
1772615969699038700,5.006038818359375,-0.04189619096517563,-0.5425941345393658,0.3127097125016153
1772615969709106700,5.016106689453125,-0.0844569833189249,-0.5336579638898372,0.35580446560159323
1772615969719174700,5.026174560546875,-0.09389175114035606,-0.5085018953233957,0.3604232114434242
1772615969729243000,5.036242919921875,-0.11278232957124709,-0.51675592892766,0.28811346977502106
1772615969739310800,5.046310791015625,-0.1579781466037035,-0.5528782126665115,0.1374244572661817
1772615969749379600,5.056379638671875,-0.17335165682435036,-0.5792132618844509,-0.06519453936833888
1772615969759447800,5.06644775390625,-0.11087971082031726,-0.5449871671557426,-0.2560749482184648
1772615969769515800,5.076515869140625,0.04569032255113124,-0.5026350491166115,-0.3392616193406284
1772615969779583700,5.086583740234375,0.2886976994037628,-0.4423930541217327,-0.30784294671546664
1772615969789651700,5.096651611328125,0.561821982100606,-0.3605547288686037,-0.18229400148633867
1772615969799720000,5.106719970703125,0.8185732221454382,-0.2955646625638008,-0.07417305132225155
1772615969809787600,5.11678759765625,1.0293763654857873,-0.24771628519594668,0.01540174993444234
1772615969819856600,5.126856689453125,1.1673247004956007,-0.2920709752291441,0.10527202700637281
1772615969829924600,5.136924560546875,1.1873007360756396,-0.3567944995522499,0.1961590799054131
1772615969839992600,5.14699267578125,1.1573591867983342,-0.4429097714722156,0.2502563250675797
1772615969850060800,5.157060791015625,1.0131406854778529,-0.609157733771205,0.2272065445980057
1772615969860128800,5.167128662109375,0.7441700153291225,-0.7640431750565767,0.05191412896942347
1772615969870197500,5.177197509765625,0.41902796062529085,-0.8814028955459594,-0.23244594308882952
1772615969880265700,5.187265625,0.04158288723230362,-0.9425088138937949,-0.4274808047372848
1772615969890333700,5.197333740234375,-0.28138883769512174,-0.9325678501158953,-0.45070437087118626
1772615969900401700,5.207401611328125,-0.5316396098047494,-0.8590519475281239,-0.2766342087802477
1772615969910469600,5.2174697265625,-0.6943921312034129,-0.7432751123160123,-0.1254362421022728
1772615969920537600,5.22753759765625,-0.7557301047414541,-0.5446066434055566,-0.06150890965815633
1772615969930605600,5.23760546875,-0.7752654108166694,-0.38941725073754785,-0.05369527676515281
1772615969940673500,5.247673583984375,-0.7355243520587682,-0.25369009890854355,-0.06547889100136235
1772615969950741500,5.257741455078125,-0.6072802494615316,-0.06895546280443668,-0.05229698167401366
1772615969960809700,5.267809814453125,-0.4546528162360191,0.11567395935952662,0.004549260802194476
1772615969970877700,5.277877685546875,-0.2981400660097599,0.2799585126310587,0.05445938387229107
1772615969980946400,5.287946533203125,-0.09703063368797302,0.35716625547409053,0.03341744522694498
1772615969991014700,5.2980146484375,0.1504664557993412,0.3784960437506437,-0.054351512184180314
1772615970001082600,5.30808251953125,0.3893003463596105,0.3928735286712646,-0.14809900514879262
1772615970011150600,5.318150634765625,0.5865595329940319,0.35381460695862765,-0.2221440370440483
1772615970021218600,5.328218505859375,0.7479477803021669,0.3013368162244558,-0.26563630156163126
1772615970031286800,5.338286865234375,0.8376590308874845,0.20497429105639456,-0.24005833605499938
1772615970041354800,5.348354736328125,0.8829320048093795,0.11592238116264343,-0.18461557630170136
1772615970051422700,5.358422607421875,0.814860339102149,0.008648585879802703,-0.12056360369776375
1772615970061490400,5.368490478515625,0.6394026499092579,-0.06720774235427379,-0.09511205931608564
1772615970071558700,5.37855859375,0.39237025532424447,-0.09696808984577655,-0.11207299399180337
1772615970081626600,5.388626708984375,0.11899112108349799,-0.09616671033501624,-0.15606902504675088
1772615970091694600,5.398694580078125,-0.1493289762020111,-0.053908115798234936,-0.22733433569613842
1772615970101763800,5.408763916015625,-0.3839654150724411,0.03388765655457973,-0.29255806462634354
1772615970111831600,5.41883154296875,-0.5879378356099129,0.18390461502075195,-0.31145861646197737
1772615970121899500,5.4288994140625,-0.6729033529728651,0.3154354842036962,-0.17438845252618193
1772615970131967500,5.438967529296875,-0.6095832657068967,0.4058540062755346,0.14239295726059936
1772615970142035700,5.44903564453125,-0.49157355687618254,0.5605021316736937,0.40315979875549673
1772615970152103700,5.459103759765625,-0.34591304005384443,0.7876812402755021,0.5019886775044724
1772615970162171600,5.469171630859375,-0.22712650163173675,1.0058487749040126,0.566505244546011
1772615970172239600,5.479239501953125,-0.20856968519985675,1.1523948423892258,0.6526702008266002
1772615970182307800,5.489307861328125,-0.1831003129005432,1.278103289029002,0.696921795811504
1772615970192375600,5.49937548828125,-0.17472879039645195,1.334797820675373,0.6907393808495252
1772615970202443500,5.509443603515625,-0.1996270848095417,1.3140092996686696,0.7063513760011643
1772615970212512800,5.5195126953125,-0.2676759541630745,1.181647240358591,0.7231645636361091
1772615970222580700,5.529580810546875,-0.32164252215027805,0.9655226097345352,0.6648449880711734
1772615970232648700,5.539648681640625,-0.3568716564416885,0.7870546328097582,0.5998215674860402
1772615970242716700,5.549716552734375,-0.411002475079894,0.6311860257059335,0.5598809310354292
1772615970252784600,5.55978466796875,-0.5291828643023967,0.4076408896923065,0.48446434592548754
1772615970262852600,5.5698525390625,-0.7151321368932724,0.18162673321664333,0.28308754963809624
1772615970272920600,5.579920654296875,-1.021844216415286,0.00814940418601036,0.0691243896305561
1772615970282988500,5.589988525390625,-1.3980284760922193,-0.1563514221847057,-0.171722649116721
1772615970293056800,5.600056884765625,-1.6163514935433865,-0.1852262190133333,-0.4346484313443303
1772615970303124700,5.610124755859375,-1.6477210297971963,-0.09099953683018684,-0.623848230163753
1772615970313192700,5.620192626953125,-1.5072235948264598,0.11655541836917399,-0.6574371960327029
1772615970323260700,5.6302607421875,-1.1457517511129378,0.3632178105980158,-0.4403040824858471
1772615970333329700,5.64032958984375,-0.5998252572804689,0.5864098953902721,-0.09260399461844936
1772615970343397600,5.650397705078125,0.03540449085831642,0.7364157479405403,0.24805256794560698
1772615970353465600,5.660465576171875,0.5828302833378315,0.7802548896670342,0.5392982347991317
1772615970363533800,5.670533935546875,0.9559808744072914,0.7117623681992292,0.6539090949717908
1772615970373601800,5.680601806640625,1.160123390814662,0.6492261247873305,0.597823854330182
1772615970383669500,5.69066943359375,1.2497066311061382,0.5767834043890238,0.4806333894604817
1772615970393737500,5.700737548828125,1.2172563138782977,0.44173312890827654,0.4399774808799848
1772615970403805700,5.7108056640625,1.0606564698904752,0.31228374217450616,0.47200354481376705
1772615970413873700,5.720873779296875,0.8229214804828167,0.21129589529335496,0.5268333055015653
1772615970423941600,5.730941650390625,0.5360509965062141,0.14116320540308952,0.5787942327547818
1772615970434009600,5.741009521484375,0.19809446841478345,0.06915244668126105,0.5948712881349026
1772615970444077800,5.751077880859375,-0.14804536613225935,0.039625323423743246,0.594134206032008
1772615970454146600,5.761146484375,-0.43928924288749693,0.029409634357690808,0.5771419355031102
1772615970464214500,5.771214599609375,-0.6651204440116882,-0.015353051954507826,0.5651271976584569
1772615970474282500,5.781282470703125,-0.8196019806712865,-0.07255319503545761,0.5197316568028182
1772615970484350700,5.791350830078125,-0.9215466898858546,-0.10402268453240394,0.42999205690585074
1772615970494418700,5.801418701171875,-0.9272925400614738,-0.15056699356436729,0.3821379804495722
1772615970504486700,5.811486572265625,-0.8258148638367653,-0.18280922099947927,0.40888299870789047
1772615970514554600,5.8215546875,-0.6383610319018364,-0.14738953257203102,0.425775754385069
1772615970524622600,5.83162255859375,-0.43335868379473685,-0.0906698664844036,0.4750357521165162
1772615970534690600,5.841690673828125,-0.21699030754268167,-0.05862579196989536,0.5135885509379208
1772615970544758500,5.851758544921875,-0.03773965580761433,-0.03116729167997837,0.5279393670473247
1772615970554826500,5.861826416015625,0.09992167895436287,-0.006292962664365768,0.5475611458295956
1772615970564895700,5.871895751953125,0.24549685558080672,-0.007787000614404678,0.6195908649802208
1772615970574963500,5.88196337890625,0.3901753756284714,-0.053257542935013766,0.6919179231096059
1772615970585031400,5.892031494140625,0.4750269112229347,-0.14718728799819947,0.6979596874918789
1772615970595099600,5.902099609375,0.5014350256770849,-0.26081600526571275,0.6512389259144663
1772615970605167600,5.912167724609375,0.5117079978883267,-0.38306875849366184,0.6021331323640421
1772615970615235600,5.922235595703125,0.4859808514356613,-0.49303310803472994,0.5447050622787326
1772615970625303600,5.932303466796875,0.301616217687726,-0.5264192448079585,0.4687500959757715
1772615970635371800,5.942371826171875,0.12487550294697283,-0.5729015945196151,0.38836339430306105
1772615970645439700,5.952439697265625,-0.0013519991308450698,-0.5762257705062628,0.43512624145653095
1772615970655507500,5.962507568359375,-0.1195440787911415,-0.573189179289341,0.4486836056333035
1772615970665575400,5.972575439453125,-0.266087808188796,-0.5411807606101036,0.3857059020642191
1772615970675643600,5.9826435546875,-0.3706441612064838,-0.46171325614154335,0.2801470209404826
1772615970685712600,5.992712646484375,-0.38395840080976484,-0.38382746790647504,0.24294852280486373
1772615970695780600,6.002780517578125,-0.33423137008845805,-0.337635041052103,0.3012805194599554
1772615970705848600,6.0128486328125,-0.191252639696002,-0.2767506565004587,0.44222602699175473
1772615970715916500,6.02291650390625,-0.012945990812778472,-0.2570353176832199,0.6729075176913291
1772615970725984500,6.032984619140625,0.1133925704240799,-0.31100422375798226,0.9035289487667382
1772615970736052500,6.043052490234375,0.16666238831877708,-0.3721428753316402,0.9553216067809611
1772615970746120700,6.05312060546875,0.14560031106770038,-0.452782346189022,0.804192522354424
1772615970756188700,6.063188720703125,0.025562311279773712,-0.5591834502905607,0.4843326823698356
1772615970766256600,6.073256591796875,-0.17605273247659206,-0.6188865161031484,0.20235084721762686
1772615970776324600,6.08332470703125,-0.33575288056731223,-0.6182640002906322,0.11125891939625143
1772615970786392600,6.093392578125,-0.40768063718080516,-0.602078004643321,0.18472104597017167
1772615970796461600,6.103461669921875,-0.39905075600147244,-0.47329964903891086,0.3059882404931821
1772615970806529500,6.113529541015625,-0.36763971869349477,-0.34188451519012447,0.4233984673270955
1772615970816597500,6.123597412109375,-0.4140244532495737,-0.30100831492245195,0.46184221628345545
1772615970826665700,6.133665771484375,-0.4929992057651281,-0.18693068484365938,0.403639216302894
1772615970836733700,6.143733642578125,-0.6276648658424615,-0.1068733977884054,0.3277476340923458
1772615970846801400,6.153801513671875,-0.7827472910046577,-0.07824526919722556,0.1927701681194827
1772615970856869400,6.163869384765625,-0.8584533971130848,0.04362637575864792,0.011011862678732722
1772615970866937600,6.1739375,-0.9287631971359253,0.13265548929870127,-0.13237910177642478
1772615970877005600,6.184005615234375,-0.9426374087095261,0.23429683165252208,-0.23879229817455633
1772615970887073500,6.194073486328125,-0.902776522964239,0.32960078767836093,-0.3001770334637724
1772615970897141500,6.2041416015625,-0.7756161239504814,0.4958844058126211,-0.2724367570904083
1772615970907210500,6.21421044921875,-0.603182166492939,0.6304840149164199,-0.19213316712388767
1772615970917278500,6.224278564453125,-0.37265257841944693,0.7411293324589728,-0.12382847811207175
1772615970927346400,6.234346435546875,-0.1281844813644886,0.8934446309953927,-0.14553857094310224
1772615970937414700,6.24441455078125,0.07973229288458823,1.0385200414061546,-0.20772760835252702
1772615970947482600,6.254482666015625,0.28253566964268684,1.1386194150149822,-0.23284148174505678
1772615970957550600,6.264550537109375,0.49112464406490325,1.217162205854058,-0.23051756884213537
1772615970967618600,6.27461865234375,0.6568693330168723,1.316304132607579,-0.19049608570765703
1772615970977686500,6.2846865234375,0.7340157010614872,1.351180215677619,-0.11585574566721915
1772615970987754500,6.29475439453125,0.7568786902546882,1.3238158234119415,-0.0021643384270370004
1772615970997822500,6.304822509765625,0.7679319991886615,1.1910235559910536,0.11296207005232572
1772615971007890400,6.314890380859375,0.7192658756971358,0.9829249954342841,0.1320973074266687
1772615971017958700,6.324958740234375,0.5796171665102243,0.7680150012969971,0.13228526774682103
1772615971028027600,6.335027587890625,0.45549628132283687,0.4870166242241859,0.1736882318349555
1772615971038095400,6.345095458984375,0.37655718464255333,0.22555881392359733,0.1519740108180791
1772615971048163600,6.35516357421875,0.277669524911046,-0.08230068206787108,-0.00293926832228899
1772615971058231600,6.3652314453125,0.11716215209066867,-0.3760615100800991,-0.135461925021559
1772615971068299500,6.375299560546875,-0.13888707716464996,-0.657707537406683,-0.29498317288141696
1772615971078367500,6.385367431640625,-0.36702480166554446,-0.7640788308918476,-0.4850835007371381
1772615971088435700,6.395435791015625,-0.5541933869183063,-0.8725304377824068,-0.6287738499976694
1772615971098503700,6.405503662109375,-0.7367536015927791,-0.9791454768955707,-0.7429821937840432
1772615971108571600,6.415571533203125,-0.8962497515439987,-0.9004197307050228,-0.7895766986332833
1772615971118639400,6.425639404296875,-0.9817793325304984,-0.7425941443145274,-0.8401029169082641
1772615971128707600,6.43570751953125,-1.017334630036354,-0.56444414729774,-0.9868113353483379
1772615971138776600,6.445776611328125,-0.907040025627613,-0.3127607120364904,-1.029964394506812
1772615971148844500,6.455844482421875,-0.5947141978770494,-0.10484101517796515,-0.7948236593760549
1772615971158912800,6.465912841796875,-0.14041326381862163,0.09997019427120685,-0.33824013080578297
1772615971168980500,6.47598046875,0.3398398576200008,0.30517011077702044,0.088850505570136
1772615971179048400,6.48604833984375,0.7961117994904517,0.4846691843152046,0.405337069729343
1772615971189116400,6.496116455078125,1.1638748523026705,0.5845721585690975,0.6036821153717116
1772615971199184600,6.5061845703125,1.4058961407274007,0.6282926423519849,0.6972282314121723
1772615971209252600,6.516252685546875,1.5674118138074873,0.6497258910030126,0.6960786229856312
1772615971219320600,6.526320556640625,1.6093799009650944,0.5814356141090393,0.6076899993062019
1772615971229388500,6.536388427734375,1.5483359419375657,0.4995891055494547,0.41928953417092557
1772615971239456800,6.546456787109375,1.4543617732107639,0.4242290363997221,0.19563089131284503
1772615971249524500,6.5565244140625,1.3253449326753615,0.27332477370500563,-0.0017508987879380582
1772615971259593500,6.566593505859375,1.1746417455106972,0.12705810768306255,-0.17265041321981697
1772615971269661700,6.57666162109375,1.0278490097880364,0.0146352590739727,-0.326683037068136
1772615971279729700,6.586729736328125,0.9152794461846351,-0.10260463442802428,-0.4810645839519799
1772615971289797600,6.596797607421875,0.7852204031199216,-0.21220248874425887,-0.568475813966617
1772615971299865600,6.606865478515625,0.643203211236,-0.2978665097653866,-0.5499075262926518
1772615971309933600,6.61693359375,0.5542588533699512,-0.3515437394171953,-0.41520752555429935
1772615971320001500,6.62700146484375,0.49235740073025225,-0.420254872071743,-0.23456879872800782
1772615971330069500,6.637069580078125,0.46288639157414435,-0.43813831928670405,-0.08346407242459244
1772615971340137500,6.647137451171875,0.4194534925609827,-0.4624351406753063,-0.049027540682442486
1772615971350205700,6.657205810546875,0.4114963960766792,-0.4928121587604284,-0.04321364850560203
1772615971360273700,6.667273681640625,0.42403029895722866,-0.509331331884861,-0.019335956711368636
1772615971370342400,6.67734228515625,0.45465106267035005,-0.518354011774063,-0.02475994538832456
1772615971380410600,6.68741064453125,0.49301440333425994,-0.5666939720511436,-0.03561656270641833
1772615971390478600,6.697478515625,0.5245318236261606,-0.5935983455896378,-0.05117130211233161
1772615971400546600,6.707546630859375,0.5820072765171528,-0.5858721352517604,-0.0423213210420683
1772615971410614500,6.717614501953125,0.611041063299775,-0.5797779100298881,-0.0014172189873177558
1772615971420682800,6.727682861328125,0.5931622922599316,-0.5663502731800079,0.027550142362434415
1772615971430750700,6.737750732421875,0.5249883352220058,-0.5116641587466001,0.024950947048934174
1772615971440818400,6.747818359375,0.43390579628348347,-0.45827334482073784,0.004797636939538642
1772615971450886400,6.757886474609375,0.3609866905450821,-0.41734687567055223,0.0008051880361977964
1772615971460954600,6.76795458984375,0.27538813597559925,-0.4381915107786655,0.01851553457342088
1772615971471022600,6.778022705078125,0.1921943044602871,-0.4744114096730947,0.007408011234179139
1772615971481090600,6.788090576171875,0.0884305631250143,-0.48587739106118677,-0.028289434688724576
1772615971491159600,6.79815966796875,0.08865794214010238,-0.47647594098746776,0.03209129292340949
1772615971501227500,6.8082275390625,0.16254033995270728,-0.552140546041727,0.21294603712055832
1772615971511295500,6.81829541015625,0.3946107277274132,-0.7187801380068063,0.2240918466435745
1772615971521363500,6.828363525390625,0.6842436621546745,-0.8317249646633863,0.16069743376607074
1772615971531431700,6.838431640625,0.573720509687066,-1.0025286905705928,0.09635395826911552
1772615971541499600,6.848499755859375,0.1998135472923517,-1.0296727180838585,-0.05906977287773042
1772615971551567600,6.858567626953125,-0.18356033162772653,-0.9915186362564563,-0.33641200206317007
1772615971561635600,6.868635498046875,-0.5062929871022701,-0.8670996449053286,-0.5862464849894866
1772615971571703600,6.87870361328125,-0.8518751877665519,-0.646664749866724,-0.6457192857101559
1772615971581771500,6.888771484375,-1.1331208175987004,-0.42333647147417064,-0.538678349335119
1772615971591839500,6.898839599609375,-1.2141560097754,-0.12883154709637165,-0.34667054389026014
1772615971601908700,6.90890869140625,-1.1051736570090054,0.11252864707112312,-0.14397512101866303
1772615971611976700,6.918976806640625,-0.874514305076003,0.32544659060835834,0.1288110157649964
1772615971622044700,6.929044677734375,-0.7127320900142192,0.4246224196314811,0.44362716249395157
1772615971632112400,6.9391123046875,-0.6453215185642242,0.39416532204747196,0.6083613957617432
1772615971642180600,6.9491806640625,-0.5989098960012197,0.3448562244772911,0.5262199959088116
1772615971652248600,6.95924853515625,-0.6315782398939133,0.23626199424564837,0.20725060195792466
1772615971662316500,6.969316650390625,-0.67457274748981,-0.054668578776717186,-0.1894024087194353
1772615971672384500,6.979384521484375,-0.707626291307807,-0.24966975735127925,-0.6165564657203852
1772615971682452700,6.98945263671875,-0.8130313701093196,-0.299434197473526,-1.087270336049795
1772615971692520700,6.999520751953125,-0.9540841008752584,-0.2577104404658079,-1.4033403187647462
1772615971702588700,7.009588623046875,-1.0220300943762064,-0.0789449418991804,-1.571963193501532
1772615971712656400,7.019656494140625,-0.9091577484339475,0.2571528065830469,-1.5626714874126015
1772615971722725600,7.0297255859375,-0.592805149385333,0.6434200688570737,-1.3013514781475066
1772615971732793600,7.039793701171875,-0.16433306858837604,0.9533563711225986,-0.8546313546068965
1772615971742861600,7.049861572265625,0.292548529613018,1.1856909627914427,-0.40990339126419273
1772615971752929800,7.0599296875,0.6814648450911045,1.4046996244192123,-0.051601519356295464
1772615971762997500,7.06999755859375,0.9180980107367038,1.476568344321847,0.19938648098669945
1772615971773065500,7.0800654296875,1.070478191202879,1.4784785618573426,0.37134153235349804
1772615971783133400,7.090133544921875,1.127519344329834,1.3949112208545207,0.43878724818211046
1772615971793201700,7.10020166015625,1.0653951888501643,1.2555670475721359,0.5028387549951673
1772615971803269600,7.11026953125,0.906266118645668,1.0524603039532898,0.5559246311577036
1772615971813337600,7.120337646484375,0.6838689836233854,0.789507286658883,0.5443179991899058
1772615971823405600,7.130405517578125,0.37536592903137206,0.4775029459476471,0.4744233558392152
1772615971833474300,7.140474365234375,0.07136544655561447,0.2820405796021223,0.30524248189348724
1772615971843542300,7.150542236328125,-0.1770750612616539,0.23323417085707188,0.14886225373940543
1772615971853610500,7.160610595703125,-0.45258243970274925,0.20099545055329798,0.18564448095802216
1772615971863678500,7.170678466796875,-0.7581950335502624,0.05503215139210224,0.3667350249387324
1772615971873746400,7.180746337890625,-1.0905834061205386,-0.09754676651656627,0.4430170312389731
1772615971883814400,7.190814453125,-1.3980109404355288,-0.14869886160492896,0.3276280263006687
1772615971893882600,7.200882568359375,-1.6955740833401678,-0.15928864468038081,0.07522460620179772
1772615971903950300,7.210950439453125,-1.8431243594318627,-0.0856681126743555,-0.15392985759358851
1772615971914018300,7.221018310546875,-1.7838170149385928,0.05030512287020683,-0.2605519475020468
1772615971924086300,7.231086181640625,-1.51449680069983,0.20399872402250765,-0.1720992090778425
1772615971934154500,7.241154541015625,-1.0478507643312216,0.35348142948150635,0.10825223012724891
1772615971944223500,7.251223388671875,-0.3970873469740152,0.4174696252673864,0.4544032984543592
1772615971954291500,7.26129150390625,0.12129296828508376,0.45889235350191593,0.8840234533078968
1772615971964359400,7.271359375,0.5145464361846447,0.5629436796069145,1.1549182233870028
1772615971974427400,7.281427490234375,0.7401449975967407,0.569472204592824,1.280875091829896
1772615971984495400,7.291495361328125,0.8640005098462105,0.4583294589221477,1.3097951891049742
1772615971994563300,7.301563232421875,0.9377098891794681,0.37909985486268993,1.2632082099750637
1772615972004631600,7.311631591796875,0.8676689692258834,0.28384558319747444,1.2109832249581813
1772615972014699500,7.321699462890625,0.6846037276387215,0.19183365445435047,1.118311371001601
1772615972024767500,7.331767578125,0.4271382018446922,0.20121406174004078,1.040676196526736
1772615972034835500,7.34183544921875,0.1008738651126623,0.20223522148132322,1.0209744478434324
1772615972044903400,7.3519033203125,-0.2554489252746105,0.21222470057606696,1.035831825235486
1772615972054971400,7.361971435546875,-0.5289648376375437,0.2669032162249088,1.0574418186929075
1772615972065040400,7.372040283203125,-0.7629530417323112,0.3222632843971252,1.0746289542067795
1772615972075108600,7.382108642578125,-0.9015630555212497,0.3553998303234577,1.0556003555446862
1772615972085176600,7.392176513671875,-0.91859017816782,0.31784722152054307,0.9824928145620971
1772615972095244300,7.402244384765625,-0.8195441130042076,0.24554770898520945,0.8841836123056709
1772615972105312300,7.412312255859375,-0.6177858613848686,0.2068377468407154,0.7483451821219176
1772615972115380500,7.42238037109375,-0.4077800059020519,0.203626968100667,0.6201006411332637
1772615972125448400,7.432448486328125,-0.22084815201461314,0.17190204253792762,0.5117557825528085
1772615972135516400,7.442516357421875,-0.022133505874872207,0.10315993022322655,0.4161704888349399
1772615972145584400,7.45258447265625,0.13821078533828257,0.02380173134803772,0.30516927052680404
1772615972155652600,7.462652587890625,0.27834464769363404,-0.03738485102057457,0.22987864988408982
1772615972165720600,7.472720458984375,0.3681646193504333,-0.10434066444039344,0.19220369334314016
1772615972175789300,7.482789306640625,0.43173020581007,-0.1806166793912649,0.21934231402892618
1772615972185857500,7.492857421875,0.411892117395997,-0.21469898173511026,0.25245807289555666
1772615972195925500,7.502925537109375,0.322619842749834,-0.16987550514638422,0.22599110439363865
1772615972205993500,7.512993408203125,0.2622375625014305,-0.08417232115864753,0.2290036571478471
1772615972216061400,7.5230615234375,0.21121932292580603,-0.005647065976262093,0.2920314834689721
1772615972226129400,7.53312939453125,0.1309685591250658,0.046671150282025335,0.37634887565411623
1772615972236197400,7.543197265625,0.06759878749847412,0.08078560132980346,0.4600593514546752
1772615972246265300,7.553265380859375,0.052824412214756006,0.09319441652595996,0.5556055918037891
1772615972256333300,7.563333251953125,0.022564883029460907,0.06487725358009339,0.6188434806790203
1772615972266401500,7.573401611328125,0.00902735606431961,0.06414192504286766,0.6358161697246134
1772615972276469500,7.583469482421875,-0.029514848297834396,0.0751630852729082,0.6517245905395597
1772615972286538200,7.593538330078125,-0.051100072640180585,0.0959159504443407,0.6678827483318746
1772615972296606500,7.6036064453125,-0.0037882863670587537,0.08401976094543934,0.7132983455948532
1772615972306674400,7.61367431640625,0.06394026499092578,0.05466390260159969,0.8127982189405709
1772615972316742400,7.623742431640625,0.11496434978544712,-0.09630816463232039,0.9336103449061512
1772615972326810400,7.633810302734375,0.14060440247654915,-0.28045243362784383,1.029691641980037
1772615972336878600,7.643878662109375,0.07462240252494812,-0.4241419426381588,0.9308483328469097
1772615972346946600,7.653946533203125,-0.11561609169244766,-0.4943862762093544,0.6859945974752306
1772615972357014500,7.6640146484375,-0.31522914797663687,-0.532798716711998,0.3768030491624027
1772615972367082200,7.674082275390625,-0.47394320763945574,-0.5827601407110691,0.20126559099787844
1772615972377150500,7.684150390625,-0.6126876614630222,-0.6175064599215984,0.12947534315893425
1772615972387218400,7.694218505859375,-0.7670300819128751,-0.5507423696815967,0.07233279375042766
1772615972397286400,7.704286376953125,-0.8880962557047605,-0.41131051811575886,-0.009418702602619304
1772615972407355600,7.714355712890625,-0.978497826641798,-0.24448797079920767,-0.051706450168648735
