time,seconds_elapsed,z,y,x
1772615964765677600,0.072677490234375,0.10473839938640594,-0.02937929332256317,-0.4217263460159302
1772615964775745500,0.08274560546875,0.09756650775671005,-0.025051390752196312,-0.35176190733909607
1772615964785813800,0.092813720703125,0.09680771082639694,-0.03314206004142761,-0.2699734568595886
1772615964795881700,0.1028818359375,0.10751814395189285,-0.04304555803537369,-0.18761280179023743
1772615964805949700,0.11294970703125,0.10686402022838593,-0.028548244386911392,-0.11348599940538406
1772615964816018200,0.12301806640625,0.09366379678249359,-0.01819334179162979,-0.03678056597709656
1772615964826086100,0.133086181640625,0.05836105719208717,-0.06873133033514023,0.03937524929642677
1772615964836155100,0.143155029296875,0.03497264161705971,-0.05278485640883446,0.12102457135915756
1772615964846223000,0.15322314453125,0.00007561140228062868,-0.03105236031115055,0.19432678818702698
1772615964856291000,0.163291015625,-0.042324576526880264,-0.013945013284683228,0.256087064743042
1772615964866359000,0.173359130859375,-0.06635983288288116,-0.003387527074664831,0.30460312962532043
1772615964876427300,0.18342724609375,-0.08754181861877441,0.002425354439765215,0.32978013157844543
1772615964886495200,0.1934951171875,-0.10909932851791382,0.00493611441925168,0.3378189504146576
1772615964896563000,0.20356298828125,-0.12199115753173828,-0.002791580045595765,0.319827675819397
1772615964906631000,0.213630859375,-0.11889924854040146,-0.06150667369365692,0.27524852752685547
1772615964916699100,0.22369921875,-0.08324218541383743,-0.15944042801856995,0.19346365332603455
1772615964926767000,0.23376708984375,-0.03651682659983635,-0.2271011769771576,0.07665276527404785
1772615964936835000,0.2438349609375,-0.018860870972275734,-0.25531309843063354,-0.050760313868522644
1772615964946904000,0.253904052734375,-0.033848267048597336,-0.29299208521842957,-0.15072061121463776
1772615964956972000,0.263971923828125,-0.0504101999104023,-0.31663936376571655,-0.22064536809921265
1772615964967040000,0.2740400390625,-0.08902069181203842,-0.2815142869949341,-0.26709359884262085
1772615964977108000,0.28410791015625,-0.14424480497837067,-0.20032009482383728,-0.2863676846027374
1772615964987176200,0.29417626953125,-0.20304834842681885,-0.10043801367282867,-0.27585482597351074
1772615964997244200,0.304244140625,-0.2391272485256195,0.00485325139015913,-0.22104138135910034
1772615965007312100,0.31431201171875,-0.257212370634079,0.08924209326505661,-0.14020591974258423
1772615965017380000,0.324380126953125,-0.23043696582317352,0.12097818404436111,-0.0481891892850399
1772615965027448000,0.334447998046875,-0.16459718346595764,0.13920797407627106,0.03998880460858345
1772615965037516000,0.34451611328125,-0.08887792378664017,0.1474027931690216,0.11653178185224533
1772615965047584000,0.354583984375,-0.029860416427254677,0.1503739058971405,0.19426143169403076
1772615965057652000,0.36465185546875,0.002910048235207796,0.15585416555404663,0.2731059491634369
1772615965067721200,0.37472119140625,-0.0012231208384037018,0.16445034742355347,0.36476439237594604
1772615965077789200,0.3847890625,-0.023273294791579247,0.1842983514070511,0.44333189725875854
1772615965087857000,0.39485693359375,-0.05108807235956192,0.1975555121898651,0.510499894618988
1772615965097925000,0.404925048828125,-0.08046753704547882,0.20385922491550446,0.5581874847412109
1772615965107993000,0.4149931640625,-0.09163045883178711,0.18042145669460297,0.6013904213905334
1772615965118061000,0.42506103515625,-0.09174444526433945,0.13041581213474274,0.6296353340148926
1772615965128129000,0.43512890625,-0.10014393925666809,0.077509805560112,0.6241455078125
1772615965138197200,0.445197265625,-0.11512022465467453,0.03136387839913368,0.5839741230010986
1772615965148265200,0.45526513671875,-0.1424485146999359,-0.014930648729205132,0.5057597756385803
1772615965158333200,0.465333251953125,-0.17103222012519836,-0.045823581516742706,0.39474642276763916
1772615965168401000,0.47540087890625,-0.19641104340553284,-0.06276802718639374,0.2614154517650604
1772615965178470100,0.48547021484375,-0.21636611223220825,-0.08258354663848877,0.11497436463832855
1772615965188538000,0.4955380859375,-0.22622162103652954,-0.09541681408882141,-0.026595406234264374
1772615965198606000,0.505606201171875,-0.22241783142089844,-0.09807810932397842,-0.149652898311615
1772615965208674300,0.51567431640625,-0.206440269947052,-0.1108301654458046,-0.2541503608226776
1772615965218742000,0.525741943359375,-0.1723712533712387,-0.11096944659948349,-0.3303804099559784
1772615965228810000,0.53581005859375,-0.1504935622215271,-0.10209643840789795,-0.3894950747489929
1772615965238878000,0.5458779296875,-0.13538357615470886,-0.09109891951084137,-0.4175749123096466
1772615965248946200,0.5559462890625,-0.12168331444263458,-0.08447643369436264,-0.4271378517150879
1772615965259014100,0.56601416015625,-0.09937667846679688,-0.06477995961904526,-0.41364094614982605
1772615965269082000,0.57608203125,-0.07946700602769852,-0.05000828206539154,-0.3929383456707001
1772615965279150000,0.586150146484375,-0.04814104735851288,-0.03202608600258827,-0.36157456040382385
1772615965289218300,0.59621826171875,-0.01861925609409809,-0.015205441042780876,-0.31522244215011597
1772615965299287000,0.606287109375,0.01652381755411625,0.0035946115385740995,-0.25129032135009766
1772615965309355000,0.61635498046875,0.03794287517666817,0.047841571271419525,-0.15964360535144806
1772615965319423000,0.626423095703125,0.036777742207050323,0.1068260595202446,-0.051138974726200104
1772615965329491200,0.6364912109375,0.03519999235868454,0.14823630452156067,0.07655231654644012
1772615965339559200,0.64655908203125,0.05733245611190796,0.1666395515203476,0.18627402186393738
1772615965349627100,0.656627197265625,0.10101921856403351,0.17487190663814545,0.26561224460601807
1772615965359694800,0.66669482421875,0.15943965315818787,0.1694427877664566,0.3026227355003357
1772615965369763000,0.67676318359375,0.21212594211101532,0.16045403480529785,0.314655065536499
1772615965379831000,0.6868310546875,0.251620888710022,0.1450420469045639,0.2951143682003021
1772615965389899000,0.69689892578125,0.2693365514278412,0.13151243329048157,0.25826627016067505
1772615965399967200,0.70696728515625,0.2762083113193512,0.11488711088895798,0.210898756980896
1772615965410035200,0.71703515625,0.2854231297969818,0.10308228433132172,0.13767534494400024
1772615965420104000,0.72710400390625,0.29546964168548584,0.09870617836713791,0.04696061462163925
1772615965430172000,0.737171875,0.30192872881889343,0.09817005693912506,-0.0542120486497879
1772615965440240000,0.747240234375,0.2976365089416504,0.10159861296415329,-0.1455954909324646
1772615965450308000,0.75730810546875,0.27912917733192444,0.11611055582761765,-0.2071925550699234
1772615965460376000,0.7673759765625,0.24294400215148926,0.1328650265932083,-0.2446131706237793
1772615965470444000,0.777444091796875,0.20955917239189148,0.1444719135761261,-0.2537660002708435
1772615965480512300,0.78751220703125,0.18307723104953766,0.15833818912506104,-0.25564780831336975
1772615965490580000,0.797580078125,0.1755618304014206,0.17300812900066376,-0.2461734116077423
1772615965500648000,0.80764794921875,0.1737154722213745,0.18152226507663727,-0.23440569639205933
1772615965510716000,0.8177158203125,0.1799994260072708,0.1932828575372696,-0.22030897438526154
1772615965520784100,0.8277841796875,0.18510550260543823,0.21397694945335388,-0.21791693568229675
1772615965530852000,0.83785205078125,0.18395116925239563,0.23116065561771393,-0.2160830795764923
1772615965540921000,0.847921142578125,0.1763337254524231,0.2428005337715149,-0.21137169003486633
1772615965550989000,0.857989013671875,0.1634334772825241,0.25375592708587646,-0.19716955721378326
1772615965561057000,0.86805712890625,0.1509200781583786,0.2822054326534271,-0.18546895682811737
1772615965571125000,0.878125,0.13850609958171844,0.3149774968624115,-0.18459129333496094
1772615965581193000,0.88819287109375,0.13333263993263245,0.33646973967552185,-0.17293250560760498
1772615965591261200,0.89826123046875,0.14197564125061035,0.3312402665615082,-0.1521075963973999
1772615965601329200,0.9083291015625,0.16405989229679108,0.34310463070869446,-0.12058962881565094
1772615965611397000,0.918397216796875,0.18489572405815125,0.3613225221633911,-0.09115781635046005
1772615965621465000,0.928465087890625,0.18579214811325073,0.38455939292907715,-0.04921703040599823
1772615965631533000,0.938532958984375,0.1772432029247284,0.39915531873703003,0.006404531188309193
1772615965641601000,0.94860107421875,0.17760832607746124,0.4101288914680481,0.053136616945266724
1772615965651669000,0.9586689453125,0.18274471163749695,0.4187455475330353,0.08208875358104706
1772615965661738200,0.96873828125,0.19996045529842377,0.4296674430370331,0.07928231358528137
1772615965671806200,0.97880615234375,0.2211265116930008,0.43791070580482483,0.055257558822631836
1772615965681874000,0.9888740234375,0.23984506726264954,0.45002809166908264,0.024617357179522514
1772615965691942000,0.99894189453125,0.2521367371082306,0.44967809319496155,-0.011264985427260399
1772615965702010000,1.009010009765625,0.2583232522010803,0.4538179934024811,-0.038624439388513565
1772615965712078000,1.019078125,0.266345351934433,0.4610793888568878,-0.05570536106824875
1772615965722146000,1.02914599609375,0.2698010802268982,0.46291112899780273,-0.05715571716427803
1772615965732214000,1.039214111328125,0.2684069573879242,0.4626040756702423,-0.043975017964839935
1772615965742282200,1.0492822265625,0.27031829953193665,0.46394312381744385,-0.01009774673730135
1772615965752350200,1.05935009765625,0.27091577649116516,0.4540376663208008,0.03829081356525421
1772615965762418000,1.06941796875,0.2768399715423584,0.4289783835411072,0.09380999952554703
1772615965772487200,1.079487060546875,0.29322755336761475,0.38352975249290466,0.12836886942386627
1772615965782555100,1.08955517578125,0.32479533553123474,0.33196642994880676,0.131864532828331
1772615965792623000,1.099623046875,0.36369845271110535,0.28933218121528625,0.10447753965854645
1772615965802691000,1.109691162109375,0.4002223610877991,0.24567924439907074,0.05546312779188156
1772615965812759000,1.119759033203125,0.4098506569862366,0.21190114319324493,-0.00924483872950077
1772615965822826800,1.12982666015625,0.3824576437473297,0.20686377584934235,-0.07370106130838394
1772615965832894700,1.139894775390625,0.3289283514022827,0.23210236430168152,-0.11690784990787506
1772615965842962700,1.149962646484375,0.28218188881874084,0.28395384550094604,-0.13726292550563812
1772615965853031000,1.160031005859375,0.24780158698558807,0.3511195182800293,-0.1351417899131775
1772615965863099000,1.170098876953125,0.2195984572172165,0.406099408864975,-0.0862051323056221
1772615965873166800,1.180166748046875,0.19609986245632172,0.4211605489253998,-0.00547582283616066
1772615965883234800,1.19023486328125,0.19133706390857697,0.4104618430137634,0.0892632007598877
1772615965893303800,1.2003037109375,0.21074306964874268,0.3709496259689331,0.17444424331188202
1772615965903371800,1.210371826171875,0.24886807799339294,0.32827460765838623,0.23407135903835297
1772615965913439700,1.220439697265625,0.2693374752998352,0.29870596528053284,0.2658613920211792
1772615965923508000,1.230508056640625,0.277130663394928,0.2864604592323303,0.2754106819629669
1772615965933576000,1.240575927734375,0.2645672559738159,0.28497955203056335,0.2601086497306824
1772615965943644000,1.250643798828125,0.24442653357982635,0.2861124575138092,0.2287275642156601
1772615965953711900,1.2607119140625,0.22293590009212494,0.2941530644893646,0.17856453359127045
1772615965963779800,1.27077978515625,0.2010846585035324,0.30410903692245483,0.11123155802488327
1772615965973847800,1.280847900390625,0.173772931098938,0.31801214814186096,0.038115132600069046
1772615965983915800,1.290915771484375,0.14109355211257935,0.3402940332889557,-0.04256400093436241
1772615965993983700,1.300983642578125,0.11236052960157394,0.3666021227836609,-0.10388132184743881
1772615966004052000,1.311052001953125,0.09203235805034637,0.38497820496559143,-0.14400584995746613
1772615966014120700,1.32112060546875,0.08373153209686279,0.395059734582901,-0.15270158648490906
1772615966024188700,1.331188720703125,0.08492676168680191,0.3943806290626526,-0.1407162994146347
1772615966034257000,1.3412568359375,0.10106999427080154,0.37281128764152527,-0.10702480375766754
1772615966044324900,1.351324951171875,0.12177606672048569,0.35045990347862244,-0.06719855964183807
1772615966054392800,1.361392822265625,0.14536483585834503,0.3425484001636505,-0.035698577761650085
1772615966064460800,1.371460693359375,0.17081746459007263,0.3324286639690399,-0.020612038671970367
1772615966074529000,1.381529052734375,0.1968241035938263,0.3348594307899475,-0.006893164478242397
1772615966084597000,1.391596923828125,0.21123553812503815,0.3540019690990448,-0.0034558228217065334
1772615966094664700,1.401664794921875,0.21272793412208557,0.37556540966033936,-0.006380172446370125
1772615966104732700,1.411732666015625,0.20796513557434082,0.4039866626262665,-0.012784541584551334
1772615966114801000,1.42180078125,0.2101237177848816,0.42510753870010376,-0.028203105553984642
1772615966124868900,1.431868896484375,0.22340142726898193,0.4555259048938751,-0.04689157009124756
1772615966134937900,1.441937744140625,0.2436472326517105,0.4697116017341614,-0.07606124877929688
1772615966145005800,1.452005859375,0.2682447135448456,0.47941669821739197,-0.10585403442382812
1772615966155073800,1.46207373046875,0.29117918014526367,0.4830528199672699,-0.1347159892320633
1772615966165141800,1.472141845703125,0.314697802066803,0.4964458644390106,-0.17489910125732422
1772615966175209700,1.482209716796875,0.3388241231441498,0.5218439698219299,-0.23104290664196014
1772615966185278000,1.49227783203125,0.36787790060043335,0.5360876321792603,-0.2779425084590912
1772615966195346000,1.502345947265625,0.3978865444660187,0.5463338494300842,-0.2938898503780365
1772615966205414000,1.512413818359375,0.41945362091064453,0.5679738521575928,-0.27895936369895935
1772615966215481900,1.52248193359375,0.429758220911026,0.5779355764389038,-0.24099472165107727
1772615966225549800,1.5325498046875,0.4439352750778198,0.5616028904914856,-0.17176824808120728
1772615966235617800,1.54261767578125,0.46347591280937195,0.546100914478302,-0.07412678748369217
1772615966245685800,1.552685791015625,0.4841226041316986,0.5288071632385254,0.024269022047519684
1772615966255754800,1.562754638671875,0.4980573058128357,0.5015738606452942,0.1099356859922409
1772615966265823000,1.572822998046875,0.5082830786705017,0.4833773076534271,0.18044927716255188
1772615966275891000,1.582890869140625,0.5091371536254883,0.473209410905838,0.22836187481880188
1772615966285958700,1.592958740234375,0.49599340558052063,0.4609098732471466,0.2614783048629761
1772615966296026600,1.603026611328125,0.48135906457901,0.45940178632736206,0.26352256536483765
1772615966306094800,1.6130947265625,0.4692288935184479,0.4603847563266754,0.2431294173002243
1772615966316162800,1.623162841796875,0.462589830160141,0.46909040212631226,0.19230546057224274
1772615966326230800,1.633230712890625,0.44646093249320984,0.4843929409980774,0.12659728527069092
1772615966336299000,1.643299072265625,0.42116865515708923,0.4779958426952362,0.044177450239658356
1772615966346367000,1.653366943359375,0.39358070492744446,0.47841423749923706,-0.04029429331421852
1772615966356435000,1.66343505859375,0.3800221383571625,0.4892328977584839,-0.11983967572450638
1772615966366502700,1.673502685546875,0.36501362919807434,0.5033950209617615,-0.2086837887763977
1772615966376572000,1.683572021484375,0.35270750522613525,0.5129917860031128,-0.2893863022327423
1772615966386640000,1.693639892578125,0.3375368118286133,0.5270889401435852,-0.35854458808898926
1772615966396707800,1.703707763671875,0.3201602101325989,0.5537732243537903,-0.4018690586090088
1772615966406775800,1.71377587890625,0.3019167482852936,0.5697511434555054,-0.40877199172973633
1772615966416843800,1.72384375,0.2912517786026001,0.5679671764373779,-0.38493815064430237
1772615966426911700,1.733911865234375,0.2837403416633606,0.56190425157547,-0.33389812707901
1772615966436979700,1.743979736328125,0.28677481412887573,0.5630281567573547,-0.2804345190525055
1772615966447047700,1.754047607421875,0.2923605144023895,0.5520541071891785,-0.23464412987232208
1772615966457116000,1.764115966796875,0.309455931186676,0.5207449793815613,-0.1800435185432434
1772615966467183900,1.774183837890625,0.3316557705402374,0.4937053620815277,-0.10318015515804291
1772615966477251800,1.784251953125,0.3545534014701843,0.48633596301078796,-0.025422655045986176
1772615966487319800,1.79431982421875,0.37552154064178467,0.48509305715560913,0.057385142892599106
1772615966497388800,1.804388916015625,0.39655280113220215,0.4923367202281952,0.11439568549394608
1772615966507456800,1.814456787109375,0.4206128716468811,0.5136834979057312,0.13459469377994537
1772615966517524700,1.824524658203125,0.43431881070137024,0.5351161956787109,0.138699471950531
1772615966527593000,1.834593017578125,0.44435253739356995,0.568877100944519,0.13194063305854797
1772615966537661000,1.844660888671875,0.45246759057044983,0.5884062051773071,0.12019771337509155
1772615966547729000,1.85472900390625,0.47110679745674133,0.6121901273727417,0.10283230245113373
1772615966557796600,1.864796630859375,0.4972814619541168,0.6384773850440979,0.07416564971208572
1772615966567864800,1.87486474609375,0.5176532864570618,0.6587352752685547,0.04609433561563492
1772615966577932800,1.884932861328125,0.5276588797569275,0.6664683818817139,0.034917622804641724
1772615966588000800,1.895000732421875,0.5331639051437378,0.6680420637130737,0.0529477559030056
1772615966598068700,1.90506884765625,0.5330881476402283,0.6745898723602295,0.08070267736911774
1772615966608137000,1.915136962890625,0.5333302021026611,0.6792693138122559,0.12399449944496155
1772615966618205700,1.925205810546875,0.5348971486091614,0.6908828616142273,0.16536352038383484
1772615966628273700,1.935273681640625,0.5344007015228271,0.6974952220916748,0.19712011516094208
1772615966638342000,1.945341796875,0.5335187911987305,0.6974180936813354,0.20506829023361206
1772615966648409900,1.955409912109375,0.5323704481124878,0.6917738318443298,0.19531846046447754
1772615966658477800,1.965477783203125,0.5175267457962036,0.6792070865631104,0.17264652252197266
1772615966668545800,1.9755458984375,0.5038543343544006,0.6571582555770874,0.1420430690050125
1772615966678614000,1.985614013671875,0.4999098479747772,0.6359661817550659,0.10585083067417145
1772615966688681700,1.995681640625,0.5023388862609863,0.6120153069496155,0.0644029825925827
1772615966698749700,2.005749755859375,0.5026465654373169,0.5871991515159607,0.03401836007833481
1772615966708817700,2.015817626953125,0.4896830916404724,0.573198676109314,0.006256503984332085
1772615966718886000,2.025885986328125,0.4583997130393982,0.5725513100624084,-0.005976599641144276
1772615966728953900,2.035953857421875,0.41221144795417786,0.5727300047874451,-0.011831825599074364
1772615966739022800,2.04602294921875,0.37525856494903564,0.5875308513641357,-0.02253231219947338
1772615966749090800,2.0560908203125,0.34938064217567444,0.6204181909561157,-0.03715919330716133
1772615966759158800,2.06615869140625,0.3345370888710022,0.646365761756897,-0.056115832179784775
1772615966769226800,2.076226806640625,0.3432043492794037,0.666627049446106,-0.07342611253261566
1772615966779294700,2.086294677734375,0.3568815588951111,0.6892042756080627,-0.09081175923347473
1772615966789363000,2.096363037109375,0.37924596667289734,0.703239917755127,-0.08198551088571548
1772615966799431000,2.106430908203125,0.39991533756256104,0.7123514413833618,-0.051532082259655
1772615966809499000,2.116498779296875,0.43137872219085693,0.7137229442596436,-0.00858062319457531
1772615966819567400,2.1265673828125,0.4671783149242401,0.7122427225112915,0.04430617392063141
1772615966829635300,2.13663525390625,0.506513237953186,0.7010198831558228,0.1076422706246376
1772615966839703300,2.146703369140625,0.5368525981903076,0.6846240162849426,0.17090624570846558
1772615966849771300,2.156771240234375,0.5660557746887207,0.6850234866142273,0.24701406061649323
1772615966859840500,2.166840576171875,0.5860289931297302,0.7003416419029236,0.32968592643737793
1772615966869908200,2.176908203125,0.5901083946228027,0.71690434217453,0.41007158160209656
1772615966879976200,2.18697607421875,0.5834292769432068,0.7292330861091614,0.4860149323940277
1772615966890044200,2.197044189453125,0.5762203335762024,0.7158904075622559,0.5390874743461609
1772615966900112400,2.2071123046875,0.5709367990493774,0.696361780166626,0.5668982863426208
1772615966910180400,2.217180419921875,0.5513809323310852,0.6840909719467163,0.5656546354293823
1772615966920248300,2.227248291015625,0.5257683992385864,0.665745198726654,0.5429922938346863
1772615966930316300,2.23731640625,0.48911961913108826,0.6520490646362305,0.49347612261772156
1772615966940384500,2.247384521484375,0.4476050138473511,0.6503080725669861,0.4414292871952057
1772615966950452200,2.2574521484375,0.3946259319782257,0.6509959697723389,0.3841084837913513
1772615966960520200,2.267520263671875,0.34470072388648987,0.6472164392471313,0.32589343190193176
1772615966970588200,2.277588134765625,0.29416751861572266,0.6579103469848633,0.26699814200401306
1772615966980657400,2.287657470703125,0.24689792096614838,0.6656491160392761,0.21972563862800598
1772615966990725400,2.297725341796875,0.21893206238746643,0.6614378094673157,0.18771949410438538
1772615967000793300,2.30779345703125,0.20500510931015015,0.6510043740272522,0.1729864925146103
1772615967010861300,2.317861328125,0.20013445615768433,0.645117998123169,0.15778543055057526
1772615967020929300,2.32792919921875,0.21335932612419128,0.6239123344421387,0.14851975440979004
1772615967030997200,2.337997314453125,0.22918781638145447,0.6051636338233948,0.1368982493877411
1772615967041065200,2.348065185546875,0.24820932745933533,0.5910206437110901,0.1236782968044281
1772615967051133400,2.358133544921875,0.25947079062461853,0.5649150013923645,0.10659998655319214
1772615967061201400,2.368201416015625,0.2758065462112427,0.5429518818855286,0.06757787615060806
1772615967071269400,2.378269287109375,0.3029276430606842,0.5342231392860413,0.018068110570311546
1772615967081337000,2.388337158203125,0.32457154989242554,0.5384024977684021,-0.03373781964182854
1772615967091405300,2.3984052734375,0.34073933959007263,0.5527540445327759,-0.0881912112236023
1772615967101473300,2.408473388671875,0.3513244092464447,0.582919716835022,-0.1444062441587448
1772615967111542300,2.418542236328125,0.36086973547935486,0.6170097589492798,-0.19131676852703094
1772615967121610500,2.428610595703125,0.3692840337753296,0.6621224880218506,-0.2388625144958496
1772615967131678500,2.438678466796875,0.3816661536693573,0.7183253169059753,-0.2779715955257416
1772615967141746200,2.44874609375,0.4022093117237091,0.7778527736663818,-0.3132703900337219
1772615967151814100,2.458814208984375,0.4216693043708801,0.8252056241035461,-0.3380438983440399
1772615967161882400,2.46888232421875,0.4516071081161499,0.8669695258140564,-0.3483032286167145
1772615967171950300,2.478950439453125,0.4895283877849579,0.9069869518280029,-0.3443353772163391
1772615967182018300,2.489018310546875,0.5237495303153992,0.9305185675621033,-0.327606201171875
1772615967192086300,2.499086181640625,0.5735000371932983,0.9488996863365173,-0.2997466027736664
1772615967202154500,2.509154541015625,0.6278320550918579,0.9700528383255005,-0.26430922746658325
1772615967212222500,2.519222412109375,0.6685861349105835,0.9932396411895752,-0.22665904462337494
1772615967222291200,2.529291259765625,0.6942222714424133,1.0190246105194092,-0.1818779855966568
1772615967232359400,2.539359375,0.7132731676101685,1.0358439683914185,-0.1338777095079422
1772615967242427400,2.549427490234375,0.7391476631164551,1.050860047340393,-0.0813848078250885
1772615967252495400,2.559495361328125,0.7847952842712402,1.0502249002456665,-0.02988779917359352
1772615967262563300,2.569563232421875,0.8348753452301025,1.048770546913147,0.021828895434737206
1772615967272631300,2.57963134765625,0.8758528232574463,1.039880394935608,0.0703708678483963
1772615967282699300,2.58969921875,0.9076865315437317,1.0242327451705933,0.10498188436031342
1772615967292767200,2.599767333984375,0.9244093298912048,1.0079257488250732,0.12775163352489471
1772615967302835200,2.609835205078125,0.9358528256416321,0.9803975820541382,0.14059150218963623
1772615967312903400,2.6199033203125,0.9430012702941895,0.9542078375816345,0.1307804137468338
1772615967322971400,2.629971435546875,0.946536660194397,0.9283398389816284,0.10200884938240051
1772615967333039400,2.640039306640625,0.9497985243797302,0.9185090661048889,0.05248310789465904
1772615967343107300,2.650107421875,0.9519038200378418,0.9244035482406616,-0.005980388261377811
1772615967353176300,2.66017626953125,0.9379499554634094,0.9448640942573547,-0.06899769604206085
1772615967363244300,2.670244384765625,0.9160337448120117,0.9645552635192871,-0.13353709876537323
1772615967373312300,2.680312255859375,0.8911731243133545,0.9782537817955017,-0.18786399066448212
1772615967383380500,2.69038037109375,0.8701738715171814,0.9876800775527954,-0.22640632092952728
1772615967393448400,2.700448486328125,0.8558388352394104,0.993615984916687,-0.24973560869693756
1772615967403516400,2.710516357421875,0.8462705612182617,0.9964571595191956,-0.25060829520225525
1772615967413584100,2.720584228515625,0.8281458616256714,0.9893728494644165,-0.2241700291633606
1772615967423652400,2.73065234375,0.8139281272888184,0.9815643429756165,-0.17518459260463715
1772615967433720300,2.74072021484375,0.8081541061401367,0.9520096182823181,-0.11103223264217377
1772615967443788300,2.750788330078125,0.8041045665740967,0.9373741149902344,-0.04380696639418602
1772615967453856300,2.760856201171875,0.798618495464325,0.9164435863494873,0.02437128871679306
1772615967463924500,2.770924560546875,0.7807765007019043,0.8946388959884644,0.07667651027441025
1772615967473993200,2.7809931640625,0.76540207862854,0.8787840604782104,0.10777530819177628
1772615967484061200,2.791061279296875,0.7464073300361633,0.8705410957336426,0.12149757891893387
1772615967494129400,2.80112939453125,0.7301630973815918,0.8520259857177734,0.1214110255241394
1772615967504197400,2.811197265625,0.7205014228820801,0.8324201703071594,0.10591575503349304
1772615967514265300,2.821265380859375,0.7140427231788635,0.81899493932724,0.07901889085769653
1772615967524333300,2.831333251953125,0.7025356888771057,0.8086159229278564,0.042762160301208496
1772615967534401500,2.841401611328125,0.680329442024231,0.8049542903900146,0.012223693542182446
1772615967544469200,2.85146923828125,0.6513254046440125,0.8105466961860657,-0.020647548139095306
1772615967554537200,2.861537109375,0.6300760507583618,0.8078427910804749,-0.04684719815850258
1772615967564605200,2.871605224609375,0.6121923923492432,0.8039429187774658,-0.07922081649303436
1772615967574673400,2.88167333984375,0.5954799652099609,0.8103912472724915,-0.10699412971735
1772615967584741400,2.891741455078125,0.5812950730323792,0.8196689486503601,-0.12886624038219452
1772615967594810400,2.901810302734375,0.5694645047187805,0.8275761604309082,-0.14014792442321777
1772615967604878300,2.91187841796875,0.557097315788269,0.8370962142944336,-0.1376093626022339
1772615967614946300,2.9219462890625,0.5408275723457336,0.8447245359420776,-0.12217075377702713
1772615967625014300,2.93201416015625,0.5282235145568848,0.8501474857330322,-0.09934648871421814
1772615967635082200,2.942082275390625,0.5098075270652771,0.8497607707977295,-0.07655861973762512
1772615967645150500,2.952150390625,0.49595677852630615,0.8512287139892578,-0.05248788371682167
1772615967655218400,2.962218505859375,0.4898323118686676,0.8473911285400391,-0.021987229585647583
1772615967665286400,2.972286376953125,0.48402440547943115,0.8481871485710144,0.012539206072688103
1772615967675354400,2.982354248046875,0.4766852855682373,0.8496817350387573,0.042095500975847244
1772615967685422300,2.99242236328125,0.4665234684944153,0.8545069098472595,0.0702354684472084
1772615967695490300,3.002490234375,0.448498398065567,0.8591575622558594,0.09782262146472931
1772615967705558300,3.012558349609375,0.42962244153022766,0.8635084629058838,0.1151006668806076
1772615967715627500,3.02262744140625,0.40990254282951355,0.8701815605163574,0.13243864476680756
1772615967725695500,3.032695556640625,0.40332382917404175,0.8675557374954224,0.15206992626190186
1772615967735763200,3.04276318359375,0.4145762026309967,0.8311241865158081,0.1640578806400299
1772615967745831200,3.0528310546875,0.44919735193252563,0.7878627181053162,0.14349718391895294
1772615967755899400,3.0628994140625,0.4849358797073364,0.7483360767364502,0.09466705471277237
1772615967765967400,3.07296728515625,0.5000789165496826,0.7200867533683777,0.031131776049733162
1772615967776035300,3.083035400390625,0.4890693724155426,0.7047115564346313,-0.02394772320985794
1772615967786103300,3.093103271484375,0.4514046609401703,0.7100649476051331,-0.058772966265678406
1772615967796171500,3.103171630859375,0.40307867527008057,0.7332985997200012,-0.06091601401567459
1772615967806239500,3.113239501953125,0.36251863837242126,0.7492798566818237,-0.05267413705587387
1772615967816307000,3.123306884765625,0.3422064483165741,0.7698324918746948,-0.01975587196648121
1772615967826374700,3.133374755859375,0.33586353063583374,0.7738110423088074,0.02289929986000061
1772615967836444000,3.14344384765625,0.33846303820610046,0.76279217004776,0.07625999301671982
1772615967846511900,3.153511962890625,0.3452141284942627,0.7424870729446411,0.13694386184215546
1772615967856579800,3.163579833984375,0.3483028709888458,0.7011913061141968,0.20839834213256836
1772615967866647800,3.173647705078125,0.3223683536052704,0.6280320882797241,0.2554580271244049
1772615967876715800,3.1837158203125,0.30942192673683167,0.5917438864707947,0.2792903780937195
1772615967886783700,3.19378369140625,0.29377827048301697,0.5582955479621887,0.27800825238227844
1772615967896851700,3.203851806640625,0.2722245156764984,0.5154825448989868,0.2519769072532654
1772615967906919700,3.213919677734375,0.24857072532176971,0.4767380952835083,0.20036613941192627
1772615967916988000,3.22398779296875,0.21993054449558258,0.4561827480792999,0.12994444370269775
1772615967927056000,3.234055908203125,0.1921331286430359,0.45537471771240234,0.048406198620796204
1772615967937123800,3.244123779296875,0.16401149332523346,0.4658510684967041,-0.024159081280231476
1772615967947191800,3.25419189453125,0.14347489178180695,0.4746707081794739,-0.08450435101985931
1772615967957260800,3.2642607421875,0.1324446052312851,0.4868522584438324,-0.12350767850875854
1772615967967328800,3.274328857421875,0.1382439136505127,0.5020972490310669,-0.1540059596300125
1772615967977396700,3.284396728515625,0.15218183398246765,0.5093961358070374,-0.17042994499206543
1772615967987465000,3.29446484375,0.1858859658241272,0.5055286288261414,-0.17035318911075592
1772615967997533000,3.304532958984375,0.22760704159736633,0.5006654262542725,-0.15370257198810577
1772615968007601000,3.314600830078125,0.2638913094997406,0.5026249885559082,-0.12524057924747467
1772615968017668600,3.324668701171875,0.30113106966018677,0.489934504032135,-0.09447148442268372
1772615968027736800,3.33473681640625,0.33469513058662415,0.474844366312027,-0.07016932219266891
1772615968037804800,3.3448046875,0.3717080056667328,0.46669724583625793,-0.054833777248859406
1772615968047872800,3.354872802734375,0.39498674869537354,0.4706103205680847,-0.05106488615274429
1772615968057940700,3.364940673828125,0.41015663743019104,0.4782746434211731,-0.04870692268013954
1772615968068009000,3.375009033203125,0.4084383249282837,0.48529237508773804,-0.05117298290133476
1772615968078077700,3.38507763671875,0.3952855169773102,0.49595141410827637,-0.04343250393867493
1772615968088145700,3.395145751953125,0.3912537395954132,0.5087490081787109,-0.036340467631816864
1772615968098214000,3.4052138671875,0.38906461000442505,0.5231186151504517,-0.025694482028484344
1772615968108281900,3.41528173828125,0.39423513412475586,0.5260411500930786,-0.010327775962650776
1772615968118349800,3.425349853515625,0.407070517539978,0.531011164188385,-0.0058965422213077545
1772615968128417800,3.435417724609375,0.415179044008255,0.5333998203277588,-0.006086922716349363
1772615968138486000,3.445486083984375,0.4136165678501129,0.5379143953323364,-0.02191249094903469
1772615968148553700,3.4555537109375,0.399509459733963,0.5572385787963867,-0.04021121561527252
1772615968158621700,3.46562158203125,0.3774654269218445,0.5751882791519165,-0.06049118936061859
1772615968168689700,3.475689697265625,0.35841310024261475,0.5838955640792847,-0.08070025593042374
1772615968178758000,3.4857578125,0.35010430216789246,0.598373293876648,-0.10279916226863861
1772615968188825900,3.495825927734375,0.3398454487323761,0.6087722182273865,-0.13174587488174438
1772615968198894800,3.505894775390625,0.34583383798599243,0.614256739616394,-0.14995603263378143
1772615968208962800,3.515962890625,0.3598121106624603,0.5772590637207031,-0.1451624482870102
1772615968219030800,3.52603076171875,0.3688066899776459,0.6152608394622803,-0.1596423089504242
1772615968229098800,3.5360986328125,0.38905569911003113,0.5984389185905457,-0.14827553927898407
1772615968239166700,3.546166748046875,0.4060932695865631,0.6038501858711243,-0.12899957597255707
1772615968249235000,3.55623486328125,0.4363005459308624,0.5747848153114319,-0.1036001667380333
1772615968259303000,3.566302978515625,0.471110463142395,0.5714425444602966,-0.08917169272899628
1772615968269371000,3.576370849609375,0.5215501189231873,0.5351186990737915,-0.06866489350795746
1772615968279438800,3.58643896484375,0.5375413298606873,0.44931936264038086,-0.04961983487010002
1772615968289506800,3.5965068359375,0.5627298355102539,0.37463074922561646,-0.00773348705843091
1772615968299574800,3.60657470703125,0.5684322118759155,0.3397790193557739,0.015096994116902351
1772615968309642800,3.616642822265625,0.5592657923698425,0.2812197804450989,0.04116471856832504
1772615968319712000,3.6267119140625,0.536665141582489,0.24416376650333405,0.0859803855419159
1772615968329780000,3.636780029296875,0.5003480911254883,0.2229100912809372,0.13174927234649658
1772615968339847700,3.64684765625,0.4606257379055023,0.22331541776657104,0.193568155169487
1772615968349915600,3.65691552734375,0.41682934761047363,0.23515339195728302,0.2615741491317749
1772615968359983900,3.66698388671875,0.3837238848209381,0.2615112364292145,0.319964736700058
1772615968370051800,3.6770517578125,0.3628603518009186,0.2972426116466522,0.3568011522293091
1772615968380119800,3.687119873046875,0.3363392651081085,0.3197689652442932,0.3500013053417206
1772615968390187800,3.697187744140625,0.3190820813179016,0.33965328335762024,0.2934530973434448
1772615968400256000,3.707256103515625,0.29810571670532227,0.3681320548057556,0.19137200713157654
1772615968410324000,3.717323974609375,0.2856234014034271,0.3885115385055542,0.05705694481730461
1772615968420391700,3.7273916015625,0.27874207496643066,0.4018358588218689,-0.11253394931554794
1772615968430459600,3.737459716796875,0.28442755341529846,0.41214990615844727,-0.29151982069015503
1772615968440529000,3.74752880859375,0.28455114364624023,0.420243501663208,-0.45010945200920105
1772615968450596900,3.757596923828125,0.28980445861816406,0.43849068880081177,-0.5652610063552856
1772615968460664800,3.767664794921875,0.2897533178329468,0.46116989850997925,-0.6329864859580994
1772615968470732800,3.77773291015625,0.2836078703403473,0.4800686240196228,-0.6329764723777771
1772615968480800800,3.78780078125,0.2651881277561188,0.49715331196784973,-0.5982459783554077
1772615968490868700,3.79786865234375,0.23879222571849823,0.5140995979309082,-0.527892529964447
1772615968500936700,3.807936767578125,0.21350684762001038,0.5076597929000854,-0.44185560941696167
1772615968511005000,3.8180048828125,0.19128072261810303,0.48764699697494507,-0.33499035239219666
1772615968521073000,3.828072998046875,0.1852840781211853,0.45703980326652527,-0.2125789225101471
1772615968531140900,3.838140869140625,0.18709684908390045,0.415887713432312,-0.08978873491287231
1772615968541208800,3.848208740234375,0.20090480148792267,0.38217049837112427,0.028601564466953278
1772615968551276800,3.85827685546875,0.22078420221805573,0.3383933901786804,0.1300845593214035
1772615968561345800,3.868345703125,0.25312724709510803,0.3020223379135132,0.1980380415916443
1772615968571413800,3.878413818359375,0.28772908449172974,0.2876342236995697,0.2158065289258957
1772615968581482000,3.88848193359375,0.3121638596057892,0.27121850848197937,0.2059275358915329
1772615968591550000,3.898550048828125,0.3247356712818146,0.2590465843677521,0.1717776507139206
1772615968601618000,3.908617919921875,0.320186972618103,0.26296862959861755,0.12505674362182617
1772615968611685600,3.918685546875,0.28928887844085693,0.2819196581840515,0.07993128150701523
1772615968621753900,3.92875390625,0.2609887719154358,0.2936551570892334,0.0431453101336956
1772615968631821800,3.93882177734375,0.2334953397512436,0.31155920028686523,0.003325297264382243
1772615968641889800,3.948889892578125,0.22512875497341156,0.32892781496047974,-0.021091096103191376
1772615968651957800,3.958957763671875,0.22518640756607056,0.33166471123695374,-0.03056206926703453
1772615968662026000,3.96902587890625,0.2272690087556839,0.3223034143447876,-0.023411214351654053
1772615968672094700,3.9790947265625,0.23072640597820282,0.31065475940704346,-0.0037892507389187813
1772615968682162700,3.98916259765625,0.23105743527412415,0.2976846396923065,0.035445503890514374
1772615968692231000,3.99923095703125,0.2321809083223343,0.2812674939632416,0.07732423394918442
1772615968702299000,4.009298828125,0.2245035469532013,0.26277557015419006,0.12234870344400406
1772615968712366800,4.019366943359375,0.20837090909481049,0.25438299775123596,0.17101289331912994
1772615968722434800,4.029434814453125,0.18836231529712677,0.2511563003063202,0.20699113607406616
1772615968732503000,4.0395029296875,0.17848660051822662,0.23448368906974792,0.2160595953464508
1772615968742570800,4.04957080078125,0.17118766903877258,0.23023009300231934,0.2022138237953186
1772615968752638700,4.059638671875,0.1662999987602234,0.22892701625823975,0.15068396925926208
1772615968762706700,4.069706787109375,0.14878199994564056,0.2445824146270752,0.09075351804494858
1772615968772775000,4.07977490234375,0.11797227710485458,0.2693091332912445,0.021175511181354523
1772615968782843000,4.0898427734375,0.07764057070016861,0.3188316822052002,-0.04749702662229538
1772615968792912000,4.099911865234375,0.05002898350358009,0.38283276557922363,-0.09518583863973618
1772615968802979600,4.1099794921875,0.04252525791525841,0.45087119936943054,-0.12977604568004608
1772615968813047600,4.120047607421875,0.050568096339702606,0.5128893256187439,-0.14344115555286407
1772615968823115500,4.130115478515625,0.0683167353272438,0.5638042092323303,-0.131943479180336
1772615968833183700,4.140183837890625,0.10477473586797714,0.583528459072113,-0.09588348120450974
1772615968843251700,4.150251708984375,0.1463908851146698,0.5847143530845642,-0.05516614764928818
1772615968853319700,4.160319580078125,0.19958637654781342,0.5661168098449707,-0.002029291819781065
1772615968863387600,4.1703876953125,0.2741197347640991,0.547562301158905,0.03951841965317726
1772615968873455900,4.180455810546875,0.3484002947807312,0.5260888934135437,0.07792933285236359
1772615968883523600,4.190523681640625,0.4062556028366089,0.5017960667610168,0.11467695981264114
1772615968893591600,4.200591552734375,0.45146581530570984,0.48810845613479614,0.16898496448993683
1772615968903659500,4.210659423828125,0.4940103590488434,0.4741622805595398,0.2356492131948471
1772615968913728800,4.220728759765625,0.5317092537879944,0.47132134437561035,0.3196712136268616
1772615968923796700,4.230796630859375,0.5314698219299316,0.4747922420501709,0.3976901173591614
1772615968933864700,4.24086474609375,0.5213753581047058,0.4785252809524536,0.4625570774078369
1772615968943932700,4.2509326171875,0.5058110356330872,0.46886971592903137,0.5065745711326599
1772615968954000600,4.261000732421875,0.48357415199279785,0.45821133255958557,0.5103634595870972
1772615968964068600,4.271068603515625,0.4609828293323517,0.45974692702293396,0.4795442819595337
1772615968974136600,4.281136474609375,0.43493926525115967,0.46791011095046997,0.4201118052005768
1772615968984204800,4.291204833984375,0.4015616178512573,0.49596890807151794,0.34321117401123047
1772615968994272800,4.301272705078125,0.36819154024124146,0.515324592590332,0.2625567615032196
1772615969004340700,4.3113408203125,0.329630047082901,0.524657666683197,0.20012132823467255
1772615969014408700,4.32140869140625,0.29259246587753296,0.5372620820999146,0.1530134230852127
1772615969024476700,4.3314765625,0.2699180245399475,0.5541025400161743,0.12574025988578796
1772615969034545700,4.341545654296875,0.2592674195766449,0.5581940412521362,0.11099687963724136
1772615969044613600,4.351613525390625,0.25701358914375305,0.5593216419219971,0.11375085264444351
1772615969054681900,4.361681884765625,0.26021796464920044,0.5492404699325562,0.1259908825159073
1772615969064749800,4.371749755859375,0.2701987028121948,0.5242735743522644,0.14680002629756927
1772615969074817500,4.381817626953125,0.2897101938724518,0.49988189339637756,0.16901904344558716
1772615969084885500,4.391885498046875,0.30630171298980713,0.47410035133361816,0.17623913288116455
1772615969094953700,4.40195361328125,0.3184707760810852,0.4452592432498932,0.16972263157367706
1772615969105021700,4.412021728515625,0.32204315066337585,0.42680272459983826,0.1473534107208252
1772615969115089700,4.422089599609375,0.32146793603897095,0.422291100025177,0.11771446466445923
1772615969125157600,4.43215771484375,0.3198505938053131,0.4213683307170868,0.07932206988334656
1772615969135225900,4.442225830078125,0.3213593661785126,0.4304802715778351,0.02617666870355606
1772615969145293800,4.4522939453125,0.33029478788375854,0.43051621317863464,-0.038906194269657135
1772615969155362600,4.462362548828125,0.35017019510269165,0.42649903893470764,-0.11067567020654678
1772615969165430800,4.4724306640625,0.3683018088340759,0.4309025704860687,-0.17790503799915314
1772615969175498800,4.482498779296875,0.382918119430542,0.4420975148677826,-0.2329961210489273
1772615969185566700,4.492566650390625,0.39601075649261475,0.45356589555740356,-0.26406189799308777
1772615969195634700,4.502634765625,0.41325584053993225,0.45766812562942505,-0.28289490938186646
1772615969205702700,4.51270263671875,0.44025149941444397,0.4761885404586792,-0.2903730571269989
1772615969215770600,4.5227705078125,0.47557634115219116,0.49618810415267944,-0.29163026809692383
1772615969225838600,4.532838623046875,0.5147224068641663,0.5138541460037231,-0.30016836524009705
1772615969235906600,4.542906494140625,0.5568235516548157,0.5300044417381287,-0.2970905900001526
1772615969245974800,4.552974853515625,0.588334858417511,0.5630449652671814,-0.28578123450279236
1772615969256042800,4.563042724609375,0.6027137637138367,0.6090644001960754,-0.23740436136722565
1772615969266110700,4.57311083984375,0.6104795336723328,0.6502067446708679,-0.16406330466270447
1772615969276179700,4.5831796875,0.6209369897842407,0.6763170957565308,-0.07153758406639099
1772615969286247700,4.59324755859375,0.6472599506378174,0.6977888345718384,0.025491226464509964
1772615969296315600,4.603315673828125,0.6833077669143677,0.6951074004173279,0.11316368728876114
1772615969306383600,4.613383544921875,0.7239960432052612,0.6849943399429321,0.17594584822654724
1772615969316451800,4.623451904296875,0.751247227191925,0.669133722782135,0.22926951944828033
1772615969326519800,4.633519775390625,0.7812642455101013,0.6429058313369751,0.2663561701774597
1772615969336587800,4.643587890625,0.8080751895904541,0.600826621055603,0.2870365083217621
1772615969346655500,4.653655517578125,0.8398584127426147,0.554887592792511,0.29712191224098206
1772615969356723700,4.6637236328125,0.834486186504364,0.5155724883079529,0.2622998356819153
1772615969366791700,4.673791748046875,0.8264255523681641,0.49189963936805725,0.18689802289009094
1772615969376859600,4.683859619140625,0.8092487454414368,0.4769040644168854,0.0971306636929512
1772615969386929000,4.693928955078125,0.7756755948066711,0.4470215439796448,0.014994248747825623
1772615969396996900,4.703996826171875,0.7357670664787292,0.43583226203918457,-0.049315646290779114
1772615969407064600,4.714064697265625,0.6932190656661987,0.433889240026474,-0.09110730141401291
1772615969417132500,4.724132568359375,0.6521498560905457,0.4293309152126312,-0.11092356592416763
1772615969427200800,4.73420068359375,0.6128267049789429,0.43152615427970886,-0.11184954643249512
1772615969437268700,4.744268798828125,0.5861620306968689,0.43124857544898987,-0.09773953258991241
1772615969447336700,4.754336669921875,0.5583871603012085,0.42464926838874817,-0.07166532427072525
1772615969457404700,4.76440478515625,0.5274725556373596,0.40787193179130554,-0.025831367820501328
1772615969467473000,4.774472900390625,0.488818883895874,0.3893802762031555,0.03127852454781532
1772615969477540600,4.78454052734375,0.4559174180030823,0.3664403557777405,0.08332494646310806
1772615969487608600,4.794608642578125,0.4379352033138275,0.3347727060317993,0.12809108197689056
1772615969497676500,4.804676513671875,0.43937698006629944,0.29790496826171875,0.1631551831960678
1772615969507745800,4.814745849609375,0.44496244192123413,0.28320059180259705,0.19007228314876556
1772615969517813800,4.824813720703125,0.42756327986717224,0.2897542119026184,0.19238537549972534
1772615969527881700,4.8348818359375,0.3922063708305359,0.29983800649642944,0.18785426020622253
1772615969537949700,4.84494970703125,0.3517094552516937,0.31508001685142517,0.17351359128952026
1772615969548017700,4.855017578125,0.3229571580886841,0.33119267225265503,0.14118866622447968
1772615969558085600,4.865085693359375,0.30069953203201294,0.3386940360069275,0.08444073796272278
1772615969568153600,4.875153564453125,0.2950488328933716,0.33168938755989075,0.027302613481879234
1772615969578221800,4.885221923828125,0.29894161224365234,0.3152241110801697,-0.03748130053281784
1772615969588289800,4.895289794921875,0.3021283447742462,0.3052537441253662,-0.09104865789413452
1772615969598357800,4.905357666015625,0.3004111051559448,0.30511200428009033,-0.13181574642658234
1772615969608425700,4.91542578125,0.2824622094631195,0.3146514594554901,-0.1522672176361084
1772615969618493700,4.92549365234375,0.2673538327217102,0.3352241516113281,-0.1547500491142273
1772615969628562700,4.935562744140625,0.2426346242427826,0.35555845499038696,-0.14089414477348328
1772615969638630700,4.945630615234375,0.21953263878822327,0.3739975690841675,-0.12447923421859741
1772615969648699000,4.955698974609375,0.20642615854740143,0.3929305076599121,-0.10576147586107254
1772615969658766800,4.965766845703125,0.19695106148719788,0.4137224555015564,-0.0821467787027359
1772615969668834600,4.97583447265625,0.18777061998844147,0.4331832230091095,-0.062232986092567444
1772615969678902500,4.985902587890625,0.18030956387519836,0.4380382299423218,-0.0380835235118866
1772615969688970800,4.995970703125,0.172454833984375,0.4349114000797272,-0.02088829129934311
1772615969699038700,5.006038818359375,0.16550782322883606,0.43212181329727173,0.0010780026204884052
1772615969709106700,5.016106689453125,0.163904070854187,0.4222297668457031,0.026683229953050613
1772615969719174700,5.026174560546875,0.16122692823410034,0.4102407693862915,0.06143079698085785
1772615969729243000,5.036242919921875,0.14864829182624817,0.40342575311660767,0.1006743386387825
1772615969739310800,5.046310791015625,0.12201095372438431,0.41323891282081604,0.1405157893896103
1772615969749379600,5.056379638671875,0.0866502970457077,0.42901867628097534,0.1817345917224884
1772615969759447800,5.06644775390625,0.047558773308992386,0.448421835899353,0.2084970623254776
1772615969769515800,5.076515869140625,0.018380647525191307,0.4522210955619812,0.22325311601161957
1772615969779583700,5.086583740234375,0.005285162478685379,0.4521467089653015,0.2146834433078766
1772615969789651700,5.096651611328125,0.004437744617462158,0.44870510697364807,0.19113311171531677
1772615969799720000,5.106719970703125,0.010175083763897419,0.43661147356033325,0.1556018441915512
1772615969809787600,5.11678759765625,0.02158353291451931,0.40722402930259705,0.11157392710447311
1772615969819856600,5.126856689453125,0.0367710255086422,0.37285611033439636,0.06255864351987839
1772615969829924600,5.136924560546875,0.060769833624362946,0.3366653621196747,0.003041522577404976
1772615969839992600,5.14699267578125,0.08409077674150467,0.32136163115501404,-0.058250103145837784
1772615969850060800,5.157060791015625,0.08470756560564041,0.32596439123153687,-0.1261197030544281
1772615969860128800,5.167128662109375,0.05804184824228287,0.34325748682022095,-0.17403607070446014
1772615969870197500,5.177197509765625,0.01392658706754446,0.37249475717544556,-0.19080759584903717
1772615969880265700,5.187265625,-0.018327578902244568,0.39602693915367126,-0.18386590480804443
1772615969890333700,5.197333740234375,-0.023430995643138885,0.4109310507774353,-0.1585051566362381
1772615969900401700,5.207401611328125,-0.007895479910075665,0.42485588788986206,-0.11854007095098495
1772615969910469600,5.2174697265625,0.00972932018339634,0.43327468633651733,-0.06585608422756195
1772615969920537600,5.22753759765625,0.021944168955087662,0.4155367612838745,-0.0009928967338055372
1772615969930605600,5.23760546875,0.02633039467036724,0.39348044991493225,0.06506175547838211
1772615969940673500,5.247673583984375,0.03324373438954353,0.36880916357040405,0.1225222647190094
1772615969950741500,5.257741455078125,0.05173672363162041,0.3542528748512268,0.17243549227714539
1772615969960809700,5.267809814453125,0.07417163997888565,0.3449993133544922,0.21756590902805328
1772615969970877700,5.277877685546875,0.10418413579463959,0.333885133266449,0.2538805305957794
1772615969980946400,5.287946533203125,0.11866221576929092,0.31672975420951843,0.2725922167301178
1772615969991014700,5.2980146484375,0.12798088788986206,0.3063887059688568,0.2657018005847931
1772615970001082600,5.30808251953125,0.1296517252922058,0.29818642139434814,0.2406008243560791
1772615970011150600,5.318150634765625,0.12719282507896423,0.2871420383453369,0.1925419420003891
1772615970021218600,5.328218505859375,0.1311793327331543,0.28130921721458435,0.12797701358795166
1772615970031286800,5.338286865234375,0.13562922179698944,0.2726939022541046,0.04970778152346611
1772615970041354800,5.348354736328125,0.14153505861759186,0.26894986629486084,-0.024136101827025414
1772615970051422700,5.358422607421875,0.15041802823543549,0.27450522780418396,-0.08891616761684418
1772615970061490400,5.368490478515625,0.15212014317512512,0.28538060188293457,-0.13791698217391968
1772615970071558700,5.37855859375,0.14685854315757751,0.3060632348060608,-0.16381143033504486
1772615970081626600,5.388626708984375,0.13194845616817474,0.340971440076828,-0.1755480170249939
1772615970091694600,5.398694580078125,0.10562551021575928,0.39444559812545776,-0.1633230298757553
1772615970101763800,5.408763916015625,0.07347647100687027,0.4490041732788086,-0.12345998734235764
1772615970111831600,5.41883154296875,0.05534300208091736,0.47782009840011597,-0.06653864681720734
1772615970121899500,5.4288994140625,0.06349042057991028,0.48362550139427185,-0.02380320057272911
1772615970131967500,5.438967529296875,0.09150980412960052,0.492246150970459,0.004388489760458469
1772615970142035700,5.44903564453125,0.11810766160488129,0.5101713538169861,0.017375541850924492
1772615970152103700,5.459103759765625,0.1529250293970108,0.5003275275230408,0.028220999985933304
1772615970162171600,5.469171630859375,0.18176136910915375,0.48430702090263367,0.03777080401778221
1772615970172239600,5.479239501953125,0.22265607118606567,0.4722924530506134,0.04132852330803871
1772615970182307800,5.489307861328125,0.262138307094574,0.45866692066192627,0.04484368860721588
1772615970192375600,5.49937548828125,0.30366870760917664,0.43211308121681213,0.037576187402009964
1772615970202443500,5.509443603515625,0.33922475576400757,0.4008648991584778,0.025856563821434975
1772615970212512800,5.5195126953125,0.36712536215782166,0.3700534701347351,-0.004174571484327316
1772615970222580700,5.529580810546875,0.3835426867008209,0.33209294080734253,-0.04271475225687027
1772615970232648700,5.539648681640625,0.4070195257663727,0.28429239988327026,-0.09350523352622986
1772615970242716700,5.549716552734375,0.42590582370758057,0.25972625613212585,-0.15291523933410645
1772615970252784600,5.55978466796875,0.43457043170928955,0.2436136156320572,-0.21182090044021606
1772615970262852600,5.5698525390625,0.4301982820034027,0.23641756176948547,-0.2395579218864441
1772615970272920600,5.579920654296875,0.4075307846069336,0.24215641617774963,-0.22776944935321808
1772615970282988500,5.589988525390625,0.366177499294281,0.26000797748565674,-0.17710095643997192
1772615970293056800,5.600056884765625,0.3047008216381073,0.2852582037448883,-0.09656775742769241
1772615970303124700,5.610124755859375,0.2442551702260971,0.30928656458854675,0.0009876179974526167
1772615970313192700,5.620192626953125,0.20237722992897034,0.3166355788707733,0.08877819031476974
1772615970323260700,5.6302607421875,0.1988665908575058,0.3185555636882782,0.14259251952171326
1772615970333329700,5.64032958984375,0.21394167840480804,0.3074203431606293,0.14589883387088776
1772615970343397600,5.650397705078125,0.24935093522071838,0.2808307409286499,0.10844945907592773
1772615970353465600,5.660465576171875,0.2799040675163269,0.25572192668914795,0.04072393849492073
1772615970363533800,5.670533935546875,0.28986015915870667,0.24847130477428436,-0.04249752685427666
1772615970373601800,5.680601806640625,0.2865234911441803,0.25092166662216187,-0.12943801283836365
1772615970383669500,5.69066943359375,0.2764422297477722,0.2509675920009613,-0.2119770497083664
1772615970393737500,5.700737548828125,0.27328798174858093,0.25443053245544434,-0.2799718379974365
1772615970403805700,5.7108056640625,0.27104267477989197,0.2580578625202179,-0.33264970779418945
1772615970413873700,5.720873779296875,0.26955878734588623,0.2546101212501526,-0.35734492540359497
1772615970423941600,5.730941650390625,0.26700344681739807,0.2418643981218338,-0.36045095324516296
1772615970434009600,5.741009521484375,0.26086485385894775,0.2353753298521042,-0.3359474837779999
1772615970444077800,5.751077880859375,0.24738243222236633,0.22028619050979614,-0.28538087010383606
1772615970454146600,5.761146484375,0.23414677381515503,0.19695156812667847,-0.22580941021442413
1772615970464214500,5.771214599609375,0.21021343767642975,0.1805216372013092,-0.1605144441127777
1772615970474282500,5.781282470703125,0.18050773441791534,0.1776704490184784,-0.09658897668123245
1772615970484350700,5.791350830078125,0.14590805768966675,0.15643729269504547,-0.03753069415688515
1772615970494418700,5.801418701171875,0.11334558576345444,0.1430988609790802,0.017958929762244225
1772615970504486700,5.811486572265625,0.0871637612581253,0.1322128027677536,0.05556118115782738
1772615970514554600,5.8215546875,0.06754612177610397,0.11998383700847626,0.08381039649248123
1772615970524622600,5.83162255859375,0.05293816700577736,0.10817869007587433,0.10154996067285538
1772615970534690600,5.841690673828125,0.041349686682224274,0.09917055070400238,0.11495524644851685
1772615970544758500,5.851758544921875,0.03916211798787117,0.10337261110544205,0.12311607599258423
1772615970554826500,5.861826416015625,0.03914906829595566,0.09232768416404724,0.12706582248210907
1772615970564895700,5.871895751953125,0.04748053476214409,0.07939007133245468,0.12292131036520004
1772615970574963500,5.88196337890625,0.056729692965745926,0.07229167968034744,0.10718043148517609
1772615970585031400,5.892031494140625,0.05854765698313713,0.05865608528256416,0.08891656994819641
1772615970595099600,5.902099609375,0.054193124175071716,0.04724843427538872,0.06444238126277924
1772615970605167600,5.912167724609375,0.04519539326429367,0.04907036945223808,0.037003520876169205
1772615970615235600,5.922235595703125,0.03001830354332924,0.057265449315309525,0.03220343962311745
1772615970625303600,5.932303466796875,0.01701011136174202,0.06567689031362534,0.04302437603473663
1772615970635371800,5.942371826171875,0.010441425256431103,0.07435240596532822,0.05610662326216698
1772615970645439700,5.952439697265625,0.002074930351227522,0.08586370199918747,0.07097914814949036
1772615970655507500,5.962507568359375,-0.008946561254560947,0.10780229419469833,0.09225966036319733
1772615970665575400,5.972575439453125,-0.026937896385788918,0.130148246884346,0.13663099706172943
1772615970675643600,5.9826435546875,-0.05596688389778137,0.13323591649532318,0.18822096288204193
1772615970685712600,5.992712646484375,-0.08216077089309692,0.13979128003120422,0.2301587611436844
1772615970695780600,6.002780517578125,-0.10072353482246399,0.13645274937152863,0.26105567812919617
1772615970705848600,6.0128486328125,-0.09852027148008347,0.11745690554380417,0.26177069544792175
1772615970715916500,6.02291650390625,-0.07347457110881805,0.09655801206827164,0.2387641966342926
1772615970725984500,6.032984619140625,-0.046238455921411514,0.08023101091384888,0.19361938536167145
1772615970736052500,6.043052490234375,-0.03876056894659996,0.07623893767595291,0.13802562654018402
1772615970746120700,6.05312060546875,-0.0644112378358841,0.08605460077524185,0.0896182432770729
1772615970756188700,6.063188720703125,-0.10973478108644485,0.11284946650266647,0.0602683424949646
1772615970766256600,6.073256591796875,-0.15393757820129395,0.12806212902069092,0.041849732398986816
1772615970776324600,6.08332470703125,-0.17355257272720337,0.14983586966991425,0.026675308123230934
1772615970786392600,6.093392578125,-0.1752723753452301,0.17684419453144073,0.006553958635777235
1772615970796461600,6.103461669921875,-0.16189958155155182,0.1812482625246048,-0.012803228572010994
1772615970806529500,6.113529541015625,-0.13894829154014587,0.18039043247699738,-0.02706717699766159
1772615970816597500,6.123597412109375,-0.11365065723657608,0.17726175487041473,-0.02743416093289852
1772615970826665700,6.133665771484375,-0.0897027999162674,0.16372396051883698,-0.009879744611680508
1772615970836733700,6.143733642578125,-0.08158095926046371,0.16436125338077545,0.019122347235679626
1772615970846801400,6.153801513671875,-0.08051590621471405,0.18866854906082153,0.0446011982858181
1772615970856869400,6.163869384765625,-0.08246294409036636,0.24344897270202637,0.08921926468610764
1772615970866937600,6.1739375,-0.09247557818889618,0.2874991297721863,0.13713236153125763
1772615970877005600,6.184005615234375,-0.10141394287347794,0.3268286883831024,0.19215193390846252
1772615970887073500,6.194073486328125,-0.09795823693275452,0.3638397455215454,0.2446812242269516
1772615970897141500,6.2041416015625,-0.09017860889434814,0.3765925467014313,0.28914642333984375
1772615970907210500,6.21421044921875,-0.07988671213388443,0.3759114742279053,0.31913504004478455
1772615970917278500,6.224278564453125,-0.07999669760465622,0.36949220299720764,0.3273136019706726
1772615970927346400,6.234346435546875,-0.08423365652561188,0.3635174334049225,0.3229997754096985
1772615970937414700,6.24441455078125,-0.09753961116075516,0.3587983250617981,0.30308544635772705
1772615970947482600,6.254482666015625,-0.10792422294616699,0.3534334897994995,0.271315336227417
1772615970957550600,6.264550537109375,-0.11090057343244553,0.33457085490226746,0.24449622631072998
1772615970967618600,6.27461865234375,-0.10597603768110275,0.29332369565963745,0.22479663789272308
1772615970977686500,6.2846865234375,-0.0833737924695015,0.23756910860538483,0.2042197287082672
1772615970987754500,6.29475439453125,-0.04784197360277176,0.18035541474819183,0.18080776929855347
1772615970997822500,6.304822509765625,-0.012659217230975628,0.12547138333320618,0.15648698806762695
1772615971007890400,6.314890380859375,0.027945583686232567,0.07468610256910324,0.13324855268001556
1772615971017958700,6.324958740234375,0.07667451351881027,0.043934307992458344,0.10976798832416534
1772615971028027600,6.335027587890625,0.11801756173372269,0.016495686024427414,0.07008901238441467
1772615971038095400,6.345095458984375,0.14936615526676178,-0.006645052693784237,0.02638094685971737
1772615971048163600,6.35516357421875,0.16601665318012238,-0.03697347268462181,-0.024847362190485
1772615971058231600,6.3652314453125,0.172805055975914,-0.04341033101081848,-0.07564609497785568
1772615971068299500,6.375299560546875,0.16611462831497192,-0.03080315887928009,-0.1194758340716362
1772615971078367500,6.385367431640625,0.14704187214374542,-0.010705079883337021,-0.1747303009033203
1772615971088435700,6.395435791015625,0.14288610219955444,0.018578827381134033,-0.19879107177257538
1772615971098503700,6.405503662109375,0.14437000453472137,0.0699796974658966,-0.21270981431007385
1772615971108571600,6.415571533203125,0.13604098558425903,0.14292988181114197,-0.19179366528987885
1772615971118639400,6.425639404296875,0.11273887008428574,0.24790875613689423,-0.14568661153316498
1772615971128707600,6.43570751953125,0.08326728641986847,0.354343444108963,-0.07441619038581848
1772615971138776600,6.445776611328125,0.06891444325447083,0.42214325070381165,0.011197783052921295
1772615971148844500,6.455844482421875,0.09624890238046646,0.4576953053474426,0.08033710718154907
1772615971158912800,6.465912841796875,0.14824765920639038,0.47030216455459595,0.12265526503324509
1772615971168980500,6.47598046875,0.21547217667102814,0.4645248353481293,0.13344907760620117
1772615971179048400,6.48604833984375,0.2912231385707855,0.4364343583583832,0.11961155384778976
1772615971189116400,6.496116455078125,0.3641321361064911,0.3935854732990265,0.09691181033849716
1772615971199184600,6.5061845703125,0.4315207600593567,0.3328065574169159,0.06271415948867798
1772615971209252600,6.516252685546875,0.48226645588874817,0.276869535446167,0.02317752316594124
1772615971219320600,6.526320556640625,0.5197951793670654,0.2388017773628235,-0.017927302047610283
1772615971229388500,6.536388427734375,0.5358220338821411,0.21116484701633453,-0.060246940702199936
1772615971239456800,6.546456787109375,0.5367229580879211,0.1845017969608307,-0.10657183080911636
1772615971249524500,6.5565244140625,0.5286349654197693,0.16506879031658173,-0.14353841543197632
1772615971259593500,6.566593505859375,0.5061386823654175,0.15350161492824554,-0.17742660641670227
1772615971269661700,6.57666162109375,0.4596824645996094,0.1518070101737976,-0.21920619904994965
1772615971279729700,6.586729736328125,0.418693482875824,0.1738729029893875,-0.24189525842666626
1772615971289797600,6.596797607421875,0.36976099014282227,0.1751171499490738,-0.24927908182144165
1772615971299865600,6.606865478515625,0.3377907872200012,0.18026183545589447,-0.2547191083431244
1772615971309933600,6.61693359375,0.3243212401866913,0.19676460325717926,-0.24543198943138123
1772615971320001500,6.62700146484375,0.3094741106033325,0.19580692052841187,-0.2249232530593872
1772615971330069500,6.637069580078125,0.29700878262519836,0.20435814559459686,-0.19348753988742828
1772615971340137500,6.647137451171875,0.2858482599258423,0.2153031975030899,-0.15567517280578613
1772615971350205700,6.657205810546875,0.2730030417442322,0.23810306191444397,-0.1186244934797287
1772615971360273700,6.667273681640625,0.25774499773979187,0.2552911043167114,-0.09142349660396576
1772615971370342400,6.67734228515625,0.2359299212694168,0.2744247019290924,-0.0708608627319336
1772615971380410600,6.68741064453125,0.2140539139509201,0.29369720816612244,-0.05986413359642029
1772615971390478600,6.697478515625,0.18168433010578156,0.30633416771888733,-0.06512320041656494
1772615971400546600,6.707546630859375,0.1548204869031906,0.32048192620277405,-0.0830119177699089
1772615971410614500,6.717614501953125,0.12993796169757843,0.3290397524833679,-0.10496130585670471
1772615971420682800,6.727682861328125,0.10743212699890137,0.33298760652542114,-0.11355799436569214
1772615971430750700,6.737750732421875,0.08623205125331879,0.33929088711738586,-0.11453192681074142
1772615971440818400,6.747818359375,0.06703172624111176,0.3424496650695801,-0.1119832769036293
1772615971450886400,6.757886474609375,0.04880940914154053,0.3427301347255707,-0.09714354574680328
1772615971460954600,6.76795458984375,0.033382516354322433,0.3444177806377411,-0.07869184017181396
1772615971471022600,6.778022705078125,0.007733530830591917,0.35107824206352234,-0.038632702082395554
1772615971481090600,6.788090576171875,-0.007059529889374971,0.33797919750213623,0.011594248935580254
1772615971491159600,6.79815966796875,0.002675239462405443,0.32193297147750854,0.041384149342775345
1772615971501227500,6.8082275390625,0.02623036503791809,0.33471935987472534,0.01228165440261364
1772615971511295500,6.81829541015625,0.050401393324136734,0.32229405641555786,-0.05915054678916931
1772615971521363500,6.828363525390625,0.06595239043235779,0.3038681745529175,-0.12909500300884247
1772615971531431700,6.838431640625,0.06469801813364029,0.3063085675239563,-0.17773257195949554
1772615971541499600,6.848499755859375,0.03970399126410484,0.33068156242370605,-0.19624394178390503
1772615971551567600,6.858567626953125,-0.000920019403565675,0.36873558163642883,-0.17697352170944214
1772615971561635600,6.868635498046875,-0.03717975690960884,0.39318951964378357,-0.11478818207979202
1772615971571703600,6.87870361328125,-0.05525488778948784,0.40977028012275696,-0.010958170518279076
1772615971581771500,6.888771484375,-0.05558032542467117,0.42406371235847473,0.09998006373643875
1772615971591839500,6.898839599609375,-0.044578880071640015,0.41367000341415405,0.20584407448768616
1772615971601908700,6.90890869140625,-0.008109021931886673,0.3752725422382355,0.27948978543281555
1772615971611976700,6.918976806640625,0.05591505020856857,0.31076347827911377,0.3288840353488922
1772615971622044700,6.929044677734375,0.13189902901649475,0.24016788601875305,0.34912699460983276
1772615971632112400,6.9391123046875,0.20204374194145203,0.18318772315979004,0.3520442545413971
1772615971642180600,6.9491806640625,0.24663305282592773,0.1299644559621811,0.3320404589176178
1772615971652248600,6.95924853515625,0.26547539234161377,0.09991835802793503,0.28401345014572144
1772615971662316500,6.969316650390625,0.25477081537246704,0.1075722798705101,0.22004298865795135
1772615971672384500,6.979384521484375,0.2123943269252777,0.14163124561309814,0.16685880720615387
1772615971682452700,6.98945263671875,0.1560831218957901,0.19419832527637482,0.14283417165279388
1772615971692520700,6.999520751953125,0.0916508212685585,0.2464936077594757,0.1614481806755066
1772615971702588700,7.009588623046875,0.03168362379074097,0.29739248752593994,0.20388884842395782
1772615971712656400,7.019656494140625,0.000029172515496611595,0.3218063712120056,0.24423035979270935
1772615971722725600,7.0297255859375,0.001631063874810934,0.3224492371082306,0.26201891899108887
1772615971732793600,7.039793701171875,0.031011449173092842,0.30083829164505005,0.2607797682285309
1772615971742861600,7.049861572265625,0.07444840669631958,0.2689216434955597,0.23435084521770477
1772615971752929800,7.0599296875,0.12668029963970184,0.22036941349506378,0.1954096257686615
1772615971762997500,7.06999755859375,0.17163872718811035,0.17434386909008026,0.1418401300907135
1772615971773065500,7.0800654296875,0.21821048855781555,0.12242713570594788,0.09398951381444931
1772615971783133400,7.090133544921875,0.2579432427883148,0.08208663761615753,0.03916940838098526
1772615971793201700,7.10020166015625,0.3000016510486603,0.05506182089447975,-0.0066817449405789375
1772615971803269600,7.11026953125,0.33760014176368713,0.03336131572723389,-0.05848501995205879
1772615971813337600,7.120337646484375,0.36458098888397217,0.024767721071839333,-0.10262684524059296
1772615971823405600,7.130405517578125,0.36727556586265564,0.03936557471752167,-0.13683193922042847
1772615971833474300,7.140474365234375,0.3607891798019409,0.06640268117189407,-0.16283610463142395
1772615971843542300,7.150542236328125,0.35315442085266113,0.06629376113414764,-0.16747958958148956
1772615971853610500,7.160610595703125,0.3596252202987671,0.027289438992738724,-0.16767212748527527
1772615971863678500,7.170678466796875,0.36460667848587036,-0.016947796568274498,-0.14521396160125732
1772615971873746400,7.180746337890625,0.3484325706958771,-0.04881630837917328,-0.10998181998729706
1772615971883814400,7.190814453125,0.29418399930000305,-0.06007109582424164,-0.051469504833221436
1772615971893882600,7.200882568359375,0.2153492420911789,-0.052672747522592545,0.031412068754434586
1772615971903950300,7.210950439453125,0.1238371729850769,-0.034919049590826035,0.12215502560138702
1772615971914018300,7.221018310546875,0.041130777448415756,-0.010176449082791805,0.20393599569797516
1772615971924086300,7.231086181640625,-0.027368653565645218,0.006727432832121849,0.23869876563549042
1772615971934154500,7.241154541015625,-0.05016542226076126,0.0083882175385952,0.22303588688373566
1772615971944223500,7.251223388671875,-0.03728504106402397,0.0171649307012558,0.17976564168930054
1772615971954291500,7.26129150390625,-0.012087834067642689,0.014468145556747913,0.10379450023174286
1772615971964359400,7.271359375,0.021646693348884583,0.023277349770069122,0.011544200591742992
1772615971974427400,7.281427490234375,0.051641739904880524,0.031920935958623886,-0.08168058097362518
1772615971984495400,7.291495361328125,0.0717608630657196,0.03331616520881653,-0.1781919300556183
1772615971994563300,7.301563232421875,0.08643174916505814,0.03667013719677925,-0.265604704618454
1772615972004631600,7.311631591796875,0.09442948549985886,0.05584622919559479,-0.344725638628006
1772615972014699500,7.321699462890625,0.09802622348070145,0.08874721080064774,-0.40614214539527893
1772615972024767500,7.331767578125,0.10610785335302353,0.1119939461350441,-0.4292043447494507
1772615972034835500,7.34183544921875,0.11954782158136368,0.12796251475811005,-0.4145275056362152
1772615972044903400,7.3519033203125,0.1395239233970642,0.12435846030712128,-0.3667091429233551
1772615972054971400,7.361971435546875,0.16977976262569427,0.11064457148313522,-0.2813540995121002
1772615972065040400,7.372040283203125,0.1977866291999817,0.08650754392147064,-0.17966105043888092
1772615972075108600,7.382108642578125,0.2231772541999817,0.062422316521406174,-0.0720641240477562
1772615972085176600,7.392176513671875,0.24364657700061798,0.0351875014603138,0.022369975224137306
1772615972095244300,7.402244384765625,0.252833753824234,0.010954120196402073,0.09120586514472961
1772615972105312300,7.412312255859375,0.26098889112472534,0.00023090234026312828,0.14478786289691925
1772615972115380500,7.42238037109375,0.26226675510406494,0.004397508688271046,0.1729264259338379
1772615972125448400,7.432448486328125,0.2664108872413635,0.009785882197320461,0.17648786306381226
1772615972135516400,7.442516357421875,0.258070707321167,0.024138305336236954,0.15921272337436676
1772615972145584400,7.45258447265625,0.2447167932987213,0.04126828908920288,0.12861061096191406
1772615972155652600,7.462652587890625,0.23176541924476624,0.05500008538365364,0.089067243039608
1772615972165720600,7.472720458984375,0.21808262169361115,0.06315868347883224,0.04401055723428726
1772615972175789300,7.482789306640625,0.2025509923696518,0.0723746120929718,0.008053774945437908
1772615972185857500,7.492857421875,0.18033330142498016,0.07927539199590683,-0.013395324349403381
1772615972195925500,7.502925537109375,0.1510937660932541,0.08768726140260696,-0.014663461595773697
1772615972205993500,7.512993408203125,0.13054294884204865,0.09670606255531311,-0.008813295513391495
1772615972216061400,7.5230615234375,0.12037472426891327,0.10824744403362274,0.0030612421687692404
1772615972226129400,7.53312939453125,0.1152457445859909,0.11805374175310135,0.02180883102118969
1772615972236197400,7.543197265625,0.11297700554132462,0.11287437379360199,0.03647961467504501
1772615972246265300,7.553265380859375,0.10888825356960297,0.11317317932844162,0.05318775773048401
1772615972256333300,7.563333251953125,0.1031443178653717,0.1096114069223404,0.06503647565841675
1772615972266401500,7.573401611328125,0.09258595108985901,0.11117654293775558,0.09988393634557724
1772615972276469500,7.583469482421875,0.08154281228780746,0.0833008661866188,0.12871146202087402
1772615972286538200,7.593538330078125,0.07660477608442307,0.08492247015237808,0.1352580338716507
1772615972296606500,7.6036064453125,0.07136466354131699,0.09559673815965652,0.11606506258249283
1772615972306674400,7.61367431640625,0.07564809173345566,0.0659743994474411,0.07621777802705765
1772615972316742400,7.623742431640625,0.086032435297966,0.0299321711063385,0.00504000298678875
1772615972326810400,7.633810302734375,0.08578874915838242,0.007580259814858437,-0.07311978191137314
1772615972336878600,7.643878662109375,0.05532512813806534,-0.004598747938871384,-0.14229243993759155
1772615972346946600,7.653946533203125,0.007234563585370779,-0.010198044590651989,-0.19159367680549622
1772615972357014500,7.6640146484375,-0.044824328273534775,-0.008060986176133156,-0.23377585411071777
1772615972367082200,7.674082275390625,-0.08119165897369385,0.007589612156152725,-0.2736857235431671
1772615972377150500,7.684150390625,-0.10546673089265823,0.046017151325941086,-0.29448747634887695
1772615972387218400,7.694218505859375,-0.11544319987297058,0.10729489475488663,-0.2840063273906708
1772615972397286400,7.704286376953125,-0.1228073388338089,0.15291327238082886,-0.23338690400123596
1772615972407355600,7.714355712890625,-0.11785013228654861,0.18364854156970978,-0.1659327745437622
