time,seconds_elapsed,z,y,x
1772614475864383000,0.064383056640625,0.261263164511323,0.06753624365627765,0.0776946495771408
1772614475874450000,0.074449951171875,0.18634090225696562,0.09589549217820167,0.11170439814142882
1772614475884516900,0.084516845703125,0.1181952945306897,0.03465864092707634,0.05901687364671379
1772614475894584000,0.094583984375,0.09950725293457507,0.009985971963405608,-0.16761588965132831
1772614475904651000,0.104651123046875,0.06385170992463826,-0.06872691474556923,-0.25624522675145417
1772614475914718000,0.114718017578125,0.003819850549101829,-0.12698679601252078,-0.1742580310795456
1772614475924785000,0.124784912109375,-0.06845335850119591,-0.14157412429153918,-0.026291063945740458
1772614475934850800,0.134850830078125,-0.041763942887634034,-0.015312135422229766,0.00831635825075209
1772614475944918000,0.14491796875,-0.03611278525814414,0.013583704194426536,0.01601297716796398
1772614475954985000,0.15498486328125,-0.04214344372451305,-0.03916062852144241,0.0383173460977152
1772614475965052000,0.165052001953125,-0.027435119414329526,-0.008436404433846472,-0.008072904883697628
1772614475975118800,0.175118896484375,-0.010886574064940214,-0.026140403428673742,-0.05290127684324979
1772614475985185800,0.185185791015625,0.012421674677729606,-0.03617605975270271,-0.03112126058116555
1772614475995252700,0.195252685546875,0.04663023374974727,0.012666589349508284,0.03544317890089005
1772614476005320000,0.20531982421875,0.09861877966225147,0.013727496579289436,0.03329772783741355
1772614476015387000,0.215386962890625,0.14893047840371726,-0.013231822016835213,-0.03712678460627794
1772614476025453800,0.225453857421875,0.1463194191224873,-0.029345921471714973,-0.06731668262146413
1772614476035520800,0.235520751953125,0.13452274447530507,0.022540917631983754,-0.05803710536174476
1772614476045588000,0.245587890625,0.12512509379386902,0.015903087052702904,-0.07372545368522405
1772614476055655000,0.255655029296875,0.11969371639490127,0.006684007808566093,-0.03342376536987722
1772614476065721300,0.265721435546875,0.03325345030426979,0.04727963756918907,0.02644950591046363
1772614476075787300,0.275787353515625,-0.09762333888411522,-0.06297931100428104,0.007214461423456668
1772614476085854200,0.285854248046875,-0.014642711728066206,0.0639396804690361,-0.23608678380921483
1772614476095921200,0.295921142578125,-0.024742227068543433,0.0826706844240427,-0.15401150799505411
1772614476105988400,0.30598828125,-0.1352951901525259,0.12122341018021106,0.04248111471366137
1772614476116055300,0.31605517578125,-0.12113134798258542,0.21060966659486294,0.09169387576989829
1772614476126122200,0.326122314453125,-0.09212474146783352,0.1509808350622654,0.010590294532105325
1772614476136189200,0.336189208984375,-0.10411854612231254,0.08256547048389912,-0.12372330070454626
1772614476146256100,0.346256103515625,-0.09673428108990192,0.05872340712547302,-0.1658684979947284
1772614476156323000,0.356322998046875,-0.09109130676686764,-0.046289457488059994,-0.17267331917136908
1772614476166390300,0.366390380859375,-0.10317980396747589,-0.1114572184473276,-0.17037735372129828
1772614476176457200,0.376457275390625,-0.08050678438842296,-0.05608896696865558,-0.18461831624805927
1772614476186524400,0.3865244140625,-0.021876023982465267,-0.020995441755652426,-0.1913917559057474
1772614476196591400,0.39659130859375,-0.036842999228835105,-0.03998538890779018,-0.17306754265334456
1772614476206658300,0.406658203125,-0.0602624532610178,0.0005003507375717163,-0.13846381025128066
1772614476216724500,0.416724365234375,-0.05548018742054701,0.038054128584265705,-0.12817019711080938
1772614476226791400,0.42679150390625,-0.08087620222270488,-0.11107727921903132,-0.20219426841642707
1772614476236858400,0.4368583984375,-0.07857581632584333,-0.15229425574839114,-0.260077900249511
1772614476246925300,0.44692529296875,-0.0366154740832746,-0.05306172810196876,-0.23269589926190673
1772614476256992300,0.4569921875,0.0020154314756393433,0.0514566309928894,-0.10492562472149729
1772614476267059200,0.46705908203125,0.06789543235749006,0.10714636951088904,-0.0183387897670269
1772614476277126400,0.47712646484375,0.09361468776464461,0.11717559609413146,-0.059216195611096915
1772614476287193300,0.487193359375,0.08722294090092182,0.14730185428857803,-0.08092500980049372
1772614476297260300,0.49726025390625,0.10415025643482803,0.2291542080670595,-0.005590805744379758
1772614476307327200,0.5073271484375,0.12000322073549032,0.23653788857758043,0.038459311851672826
1772614476317394200,0.517394287109375,0.12128420045673846,0.13768003946244717,-0.08802443000953644
1772614476327461000,0.527461181640625,0.07161269931495189,0.0021229835033416745,-0.27860695189163087
1772614476337528300,0.5375283203125,0.10846797350347041,0.011017068576812743,-0.34801874362882224
1772614476347595300,0.54759521484375,0.0723141255825758,-0.07192892565727234,-0.3084643665494397
1772614476357661200,0.5576611328125,0.0366647200524807,-0.12394260601103305,-0.17326660888940096
1772614476367728000,0.56772802734375,0.09698621002435684,-0.012741408151388167,-0.0869365251749754
1772614476377795300,0.57779541015625,0.12875643603354692,0.06679097824692726,-0.0028077508971095086
1772614476387862300,0.5878623046875,0.1759085017003119,0.062380760589241975,-0.016291246120072902
1772614476397929200,0.59792919921875,0.17594810305833816,0.08215338255167007,-0.024876265244372187
1772614476407996200,0.60799609375,0.1175491055816412,0.12494096939861773,0.018298713484965264
1772614476418063000,0.61806298828125,0.06792553523480892,0.12439210334420203,0.013214103697054088
1772614476428130300,0.62813037109375,0.03692950846850872,-0.01360357793867588,-0.058497562480345364
1772614476438197200,0.638197265625,-0.028112872545421122,-0.05966448736786842,-0.17322602115068583
1772614476448264400,0.648264404296875,-0.04871346976459026,-0.07834580696225166,-0.2208634226489812
1772614476458331400,0.658331298828125,-0.023971096565574408,-0.09095569768846035,-0.1795532879434526
1772614476468398300,0.6683984375,0.014907792405039071,-0.11295125639736651,-0.11689287016261368
1772614476478465300,0.67846533203125,0.04085954139381647,-0.10699673190712929,-0.06067742727007717
1772614476488532200,0.6885322265625,0.04184036912471056,-0.09252923061549663,-0.046932833425514395
1772614476498598400,0.698598388671875,0.037003158226609226,-0.06620762540102004,-0.02825388845130801
1772614476508665300,0.708665283203125,0.04536269803196191,-0.06878712050020694,-0.057654791513271623
1772614476518732300,0.718732177734375,0.02119534824192524,-0.09481529572606086,-0.07623422163575887
1772614476528799200,0.72879931640625,-0.0438362191170454,-0.07180909866988658,-0.06125796710439026
1772614476538866200,0.7388662109375,-0.08744301339238882,-0.04644201770126819,-0.0849775000616908
1772614476548933400,0.748933349609375,-0.10220043754130602,-0.02686462604999542,-0.11452270696517079
1772614476559000300,0.759000244140625,-0.10596768112033605,0.04773322655558586,-0.04352255005799233
1772614476569067300,0.7690673828125,-0.10690759231895208,0.09992869321703911,0.042186515681259334
1772614476579134200,0.77913427734375,-0.1182458556741476,0.11860124498307704,0.08548548611644655
1772614476589201200,0.789201171875,-0.15697890643328427,0.08976619564294815,-0.004658164536766708
1772614476599268000,0.79926806640625,-0.15793343067914248,0.0803565622627735,-0.09450140747129916
1772614476609335300,0.809335205078125,-0.1592953666821122,0.042080315360426904,-0.1825737317431718
1772614476619402200,0.81940234375,-0.1588213194295764,-0.047584757995605464,-0.15697992934659122
1772614476629469400,0.829469482421875,-0.09890227277874945,-0.04436579594910144,-0.09178345374949276
1772614476639536400,0.839536376953125,-0.006022913551330566,-0.012409399718046188,-0.06039561465401202
1772614476649602000,0.84960205078125,0.07988572988063096,-0.017461422410607337,-0.03825184311345219
1772614476659669200,0.859669189453125,0.11695903073400259,-0.051554830670356745,-0.07342957601118832
1772614476669736400,0.869736328125,0.1249123278260231,-0.12106851187944412,-0.12700571990869938
1772614476679803400,0.879803466796875,0.09686725981980561,-0.0903477949231863,-0.1222045667046681
1772614476689870300,0.889870361328125,0.023616730169951913,-0.024441782817244528,-0.09353698288593441
1772614476699937300,0.899937255859375,-0.0732525754764676,-0.006871639335155486,-0.07149689091555773
1772614476710004200,0.910004150390625,-0.1340922441035509,0.03560848899781704,-0.06243351368978619
1772614476720071400,0.920071533203125,-0.14020166689455507,0.10833996320962905,-0.051663076817803084
1772614476730138400,0.930138427734375,-0.14851269138306378,0.11302665972113608,-0.12483162727262824
1772614476740205300,0.940205322265625,-0.1018897641569376,0.05731470937132835,-0.18154026050958783
1772614476750272300,0.950272216796875,-0.04224325083717704,0.01045651208460331,-0.1877996862305328
1772614476760339200,0.960339111328125,0.043389790523797274,-0.02976210105717182,-0.15826711961291728
1772614476770406100,0.97040625,0.16666764901578426,-0.027440964633226393,-0.14596892518438398
1772614476780473300,0.980473388671875,0.1882978815436363,-0.04344575849473476,-0.15978300406858323
1772614476790540300,0.990540283203125,0.1785176612854004,-0.07515314840078353,-0.1658860701840371
1772614476800606200,1.000606201171875,0.16344766405597327,-0.08946399782598018,-0.1554048620495945
1772614476810673200,1.010673095703125,0.12077975806593894,-0.0864087019085884,-0.12952015041504056
1772614476820740000,1.020739990234375,0.08643880478590726,-0.003772504276037216,-0.12242482185922562
1772614476830807300,1.030807373046875,0.07583353188037872,0.04443418501019478,-0.09949530676845461
1772614476840874200,1.040874267578125,0.07654489502012729,0.060089434781670566,-0.07387012285292148
1772614476850941200,1.050941162109375,0.10268968236297368,0.13882277975678442,-0.05310304649304598
1772614476861008100,1.061008056640625,0.06562076542377472,0.12098843238055705,-0.08497823071405292
1772614476871075300,1.071075439453125,0.00670592737942934,0.08696984292268753,-0.08090550138242543
1772614476881142300,1.081142333984375,0.024150398655235765,0.11728256359994411,-0.09701781073901802
1772614476891209500,1.09120947265625,0.04069353717714548,0.06392623646557331,-0.1172730285866186
1772614476901276400,1.1012763671875,0.046181320938467975,-0.008684826236963272,-0.14706072074277327
1772614476911343400,1.11134326171875,0.10764905833601951,-0.0435574021756649,-0.16113494840050116
1772614476921410300,1.121410400390625,0.11646014130115509,-0.08251052542626858,-0.165466346934624
1772614476931477200,1.131477294921875,0.09130494951754808,-0.10038754290044308,-0.12875225304877386
1772614476941543400,1.14154345703125,0.0718497229412198,-0.09163374308049678,-0.08408942864816635
1772614476951610400,1.1516103515625,0.03370265537649393,-0.06233867501318455,-0.04343644267711788
1772614476961677300,1.16167724609375,0.012690847007930278,-0.02792962493300438,-0.04585727661587297
1772614476971744300,1.171744140625,0.011736907283961772,-0.01586743121743202,-0.07006483055213465
1772614476981811200,1.181811279296875,0.003186228820681572,0.015838789644837377,-0.063448901277408
1772614476991878100,1.191878173828125,-0.035974984222650525,0.03338146059811115,-0.028266346074081957
1772614477001945300,1.2019453125,-0.07967559426128863,0.03996668420732021,-0.02849522292651236
1772614477012012300,1.21201220703125,-0.08514496558308601,0.03539572302997112,-0.100137988586165
1772614477022079200,1.222079345703125,-0.11910218024253845,-0.0050029228538274765,-0.1501406396447681
1772614477032146200,1.232146240234375,-0.13216770578175782,0.010750526595115661,-0.1492509973286651
1772614477042213000,1.242213134765625,-0.11743132442086934,0.0417360319674015,-0.07300420847227797
1772614477052280000,1.252280029296875,-0.09605857378542422,0.06872165404856205,-0.040478944578394294
1772614477062347300,1.26234716796875,-0.024702479580044744,0.0637134704977274,-0.07156363600883632
1772614477072414700,1.272414794921875,0.028099136281013487,0.013514146089553833,-0.10857316917730495
1772614477082481700,1.282481689453125,0.04536445159763097,-0.03500935406088829,-0.14920129470173268
1772614477092547600,1.292547607421875,0.052638241992890834,-0.029608371800184247,-0.16731115281740203
1772614477102614500,1.302614501953125,0.015123334851860999,0.013914543583989143,-0.11813043086724355
1772614477112681700,1.312681640625,-0.05131108504235744,0.08284253385961056,-0.05621991813825443
1772614477122748700,1.322748779296875,-0.11863164012134074,0.12732055801153183,-0.043541930611897255
1772614477132815600,1.332815673828125,-0.14428689038157463,0.15518179388344286,-0.04980082660987973
1772614477142882600,1.342882568359375,-0.14082652079463004,0.13009352985620498,-0.06962033818764611
1772614477152949800,1.35294970703125,-0.13088380345106124,0.12283142989873885,-0.09240863644313067
1772614477163016700,1.3630166015625,-0.09428367306739091,0.08791150768697262,-0.06204988466706127
1772614477173084000,1.373083984375,-0.03936988735795021,0.0580225653797388,-0.07040558854751289
1772614477183150800,1.38315087890625,0.04098492133915424,0.0027262100934982297,-0.13840586951896547
1772614477193217800,1.3932177734375,0.11400602614730596,-0.055114568978548044,-0.1741425880063325
1772614477203284700,1.40328466796875,0.1188406066969037,-0.06731704794764519,-0.1633239463447593
1772614477213351700,1.4133515625,0.11370499737411736,-0.03669160805940628,-0.09187823762716725
1772614477223418600,1.423418701171875,0.07627572268992662,-0.0036018238842487334,-0.06027617125911638
1772614477233484800,1.43348486328125,0.034540567505359644,0.032283728489279746,-0.02250051255635917
1772614477243551700,1.4435517578125,0.0004985971719026565,0.03508008120954036,-0.04027576842280105
1772614477253618700,1.45361865234375,-0.02808423097282648,-0.01040858128964901,-0.11479909448744728
1772614477263685600,1.463685546875,-0.01570318056643009,0.014133739292621612,-0.1303558523205109
1772614477273752600,1.473752685546875,0.031926293353736396,-0.012267945420742034,-0.13864879316305742
1772614477283819800,1.48381982421875,0.027732641056179997,-0.09532149168252944,-0.1219413491912186
1772614477293886700,1.49388671875,0.023764029686152932,-0.07125731000602245,-0.055269978735968464
1772614477303953700,1.50395361328125,0.04360182583928108,-0.04577215561568737,0.009968436306715012
1772614477314020600,1.5140205078125,0.03504530215710401,-0.04673603221178055,0.0011904884262010453
1772614477324087600,1.524087646484375,0.07672405097931623,-0.009589666122198104,-0.061009070377238094
1772614477334154500,1.534154541015625,0.09731851071864366,-0.024894202759861945,-0.13781714637819678
1772614477344221700,1.5442216796875,0.09772738378047943,-0.03641805181503296,-0.1347779978780076
1772614477354288600,1.55428857421875,0.15399024601131678,0.007705752071738243,-0.11075721695180982
1772614477364355800,1.56435595703125,0.15492431199103593,0.011276011773943901,-0.053249688422121105
1772614477374422800,1.5744228515625,0.08404138825535774,0.04282265816032886,-0.009855952375568449
1772614477384488700,1.58448876953125,0.02460018824934959,0.03232113789021969,-0.02984391585541889
1772614477394556000,1.594555908203125,-0.047881987376511094,0.0018821604847908018,-0.08621546262511982
1772614477404622800,1.604622802734375,-0.0819821176379919,0.004873158994317055,-0.09666258582687005
1772614477414689800,1.614689697265625,-0.11869535300731658,0.03371346903145313,-0.09829678116627037
1772614477424756700,1.6247568359375,-0.12007073301374911,0.03051145811975002,-0.1236346908393316
1772614477434823700,1.63482373046875,-0.06569675326943397,0.020694412982463835,-0.13549988241177052
1772614477444890600,1.644890625,-0.012745499804615973,0.03619710254073143,-0.10336747202668338
1772614477454957800,1.654957763671875,0.042564007224142546,0.029721769046783447,-0.07345487484922632
1772614477465024800,1.665024658203125,0.03690846568048,0.0001543137788772583,-0.08012916498137637
1772614477475091700,1.675091796875,0.03984627269804478,0.0137900404214859,-0.10949885092116891
1772614477485158700,1.68515869140625,0.02967442277371883,0.030911271092295644,-0.07287499260203913
1772614477495225600,1.6952255859375,0.028874796828627584,0.03456628646850586,-0.05670331774102524
1772614477505292500,1.70529248046875,0.006267828223109245,0.023668460357189176,-0.10681196819106116
1772614477515359700,1.71535986328125,-0.0012295417949557304,-0.022774141865968704,-0.19736569748250765
1772614477525425700,1.72542578125,0.000384030881524086,0.02003624133467674,-0.16883850851515306
1772614477535492600,1.73549267578125,-0.000933189196884632,0.027322891211509704,-0.07550378846935928
1772614477545559600,1.7455595703125,-0.024821429784595964,0.03677461016774177,-0.02591355413654819
1772614477555626800,1.755626708984375,-0.04640986899733543,0.0705798491358757,-0.07119124076617882
1772614477565693700,1.765693603515625,-0.03793020994365215,0.04663081827163696,-0.13232981927460058
1772614477575760600,1.7757607421875,-0.05135054026991129,0.03841536311209202,-0.11723845046358182
1772614477585827600,1.78582763671875,-0.043567046786844726,0.04524842400252819,-0.09358562606694176
1772614477595894800,1.795894775390625,-0.006688391722738742,-0.0059440030962228775,-0.13821675842134282
1772614477605961700,1.805961669921875,0.0248918646723032,-0.04270867639183998,-0.1590141203216277
1772614477616028700,1.816028564453125,0.07330196757614613,0.024110358905792235,-0.1067349026331678
1772614477626095900,1.826095947265625,0.09982231023311615,0.06511924564242362,-0.01881188717149198
1772614477636162800,1.836162841796875,0.04161678950190544,0.03008183453083038,-0.023680388257000595
1772614477646229800,1.846229736328125,0.00938245311230421,0.03965747212767601,-0.06379899335671216
1772614477656296700,1.856296630859375,-0.038763153636455536,0.03251519915759563,-0.06750778474677353
1772614477666363000,1.86636279296875,-0.060003217802941794,-0.0035591537863016126,-0.1006656109231524
1772614477676429800,1.876429931640625,-0.0766752434015274,0.023901100069284437,-0.11995297011928632
1772614477686496800,1.886496826171875,-0.064680269703269,0.02576806298494339,-0.12448471353109926
1772614477696563700,1.896563720703125,-0.06659194854348897,0.008501286363601684,-0.11340522897625341
1772614477706630700,1.906630615234375,-0.05906944408416748,0.01590367157459259,-0.0881469969432801
1772614477716697600,1.916697509765625,-0.02391103694140911,0.038086861810088156,-0.12106847534682601
1772614477726764800,1.926764892578125,-0.0015697335347533226,0.005970306581258774,-0.15976366004729642
1772614477736831700,1.936831787109375,0.043477322676777834,-0.04284253190457821,-0.18298242214191704
1772614477746898700,1.946898681640625,0.05719751273244619,-0.021140987706184385,-0.12675273152831942
1772614477756965600,1.956965576171875,0.04470803351551294,0.016185411125421524,-0.07449751576995477
1772614477767032600,1.967032470703125,0.017797814758121967,0.05837503207921981,-0.015643869860935956
1772614477777099500,1.977099609375,0.01958615947961807,0.12474515456557272,0.0029508856948465105
1772614477787166700,1.987166748046875,0.02960486466884613,0.1219926409870386,-0.03285529956584796
1772614477797233700,1.997233642578125,0.05131897608786821,0.07179390110075473,-0.10327062405608593
1772614477807300900,2.00730078125,0.05831161145418882,0.037917350462079044,-0.16820835738545284
1772614477817366500,2.017366455078125,0.0918377412199974,-0.055929977014660834,-0.2040419238434173
1772614477827433500,2.02743359375,0.13038929793238638,-0.10075462264716624,-0.2165213383240625
1772614477837501000,2.0375009765625,0.1811228753477335,-0.08754735054969787,-0.18653810532949863
1772614477847568000,2.04756787109375,0.21496669276058672,-0.07217968554794787,-0.13438300721105187
1772614477857634800,2.057634765625,0.1975000096529722,-0.08478139296770096,-0.1300213779354468
1772614477867701800,2.06770166015625,0.1432248141080141,-0.07670330045223235,-0.13063658722434193
1772614477877768700,2.077768798828125,0.07848024699687957,-0.015575754794478416,-0.12241550604160874
1772614477887835600,2.087835693359375,0.035713702937960626,0.006198270118236542,-0.0869683450853452
1772614477897902800,2.09790283203125,-0.036028467975556845,0.005583353090286254,-0.09346141516538337
1772614477907969800,2.1079697265625,-0.12070815413445234,0.02939385226666927,-0.10558167747743427
1772614477918036700,2.11803662109375,-0.14666940160393713,0.0436795672506094,-0.1371274836136028
1772614477928103700,2.128103759765625,-0.14945727875679732,0.028529344391822812,-0.17678124768054113
1772614477938170600,2.138170654296875,-0.12887100232392548,0.045215106254816055,-0.11910764186894521
1772614477948237600,2.148237548828125,-0.11509411364495753,0.09276713102459908,-0.05659432267490774
1772614477958303700,2.1583037109375,-0.06975596553236246,0.08892623768746852,-0.046419075217097996
1772614477968370700,2.16837060546875,-0.04144084841310978,0.07531330739855766,-0.08576324361190199
1772614477978437600,2.178437744140625,-0.07312924135774374,0.0771066205561161,-0.12349531890125945
1772614477988504600,2.188504638671875,-0.055448915499448775,0.10294073451459407,-0.10915790112954564
1772614477998571500,2.198571533203125,0.0009308511093258857,0.07216448797881603,-0.0745366239376366
1772614478008638700,2.208638671875,0.001578209102153778,0.059600189960002894,-0.0817068352274131
1772614478018705700,2.21870556640625,0.0053343467652797695,0.07792845833301544,-0.11291691573634743
1772614478028772600,2.228772705078125,0.006733107647299766,0.07331424253582954,-0.104764022685308
1772614478038839600,2.238839599609375,-0.012024492053687571,0.06315116043984889,-0.060626427735202014
1772614478048906800,2.24890673828125,-0.04778378769904375,0.08109598245322704,-0.008457419822411612
1772614478058973700,2.2589736328125,-0.0925040961742401,0.06518003591895104,0.01901412261216901
1772614478069040600,2.26904052734375,-0.11069237155467271,0.029240707531571385,-0.04323140335800126
1772614478079107800,2.27910791015625,-0.09083820878863334,-0.025428455767035483,-0.11463509043161757
1772614478089174800,2.2891748046875,-0.06204056884944439,-0.02291150451004505,-0.12143765571909025
1772614478099241700,2.29924169921875,0.004119125756621361,-0.012872341054677962,-0.10637643545116297
1772614478109307600,2.3093076171875,0.036571781072020526,-0.048097968214750285,-0.12156481662956066
1772614478119374800,2.319374755859375,0.049019466973841186,-0.054120881766080854,-0.10498200368438847
1772614478129441800,2.32944189453125,0.04776859012991189,-0.04356207835078239,-0.059316897772904484
1772614478139508700,2.3395087890625,0.0341264337465167,-0.09656009356677532,-0.1266206478475593
1772614478149575700,2.34957568359375,-0.004944470664858818,-0.1211217033714056,-0.16955431036800145
1772614478159642600,2.359642578125,0.0002916764229536056,-0.06678396398425102,-0.1269789323664736
1772614478169709600,2.36970947265625,0.058144730454683304,-0.03668751640617847,-0.077121142271813
1772614478179776800,2.37977685546875,0.09844926831424236,-0.04813946926891804,-0.059202285816753276
1772614478189843700,2.38984375,0.12188684252500534,-0.015647650986909865,-0.04781383577743545
1772614478199910700,2.39991064453125,0.13675357226729393,0.06058627838790416,-0.008666980053018778
1772614478209977600,2.4099775390625,0.18341215532869098,0.016091303101181984,-0.06660315492409281
1772614478220044500,2.42004443359375,0.18464841912537813,-0.06212240191400051,-0.20562435246296226
1772614478230111500,2.430111572265625,0.07313830144703387,-0.022979309049248695,-0.20481188530260697
1772614478240178700,2.4401787109375,-0.0068199091479182235,0.03293137874305248,-0.0672428502002731
1772614478250244600,2.45024462890625,-0.07745908725559711,0.06207797825038433,0.007840758361946792
1772614478260311600,2.4603115234375,-0.09027239159941673,0.0476356114000082,-0.030683344087935983
1772614478270378500,2.47037841796875,-0.08604454477131367,0.04998012869954109,-0.10477862659939564
1772614478280445700,2.48044580078125,-0.06452595592439174,0.07535013227760791,-0.13278721678643488
1772614478290512600,2.4905126953125,-0.01568622943162918,0.06163666422367096,-0.11782727406905032
1772614478300579600,2.50057958984375,0.003901391352713108,-0.001315174251794815,-0.17903185788523404
1772614478310646800,2.510646728515625,0.031216099257767197,0.009213234025239945,-0.1823652400916442
1772614478320713700,2.520713623046875,0.0638917496740818,0.07968260852396487,-0.0637016887283884
1772614478330780700,2.53078076171875,0.04952917006164789,0.0977285528242588,0.05547655242504552
1772614478340847600,2.54084765625,0.03868775031268597,0.07354629772603512,0.041220611524861304
1772614478350914800,2.550914794921875,-0.0037149288699030872,0.01941021839082241,-0.0789162089950405
1772614478360981800,2.560981689453125,-0.04476531666070223,-0.013265139764547348,-0.14998762277383357
1772614478371048700,2.571048583984375,-0.08000175747573375,-0.011809095737338066,-0.19512045757267624
1772614478381115600,2.58111572265625,-0.13211246846318245,0.0034369887113571166,-0.18331488723298534
1772614478391182600,2.5911826171875,-0.1470823663190007,0.006415712261199951,-0.10814343599053099
1772614478401248800,2.601248779296875,-0.10510872620344161,0.02561024207472801,-0.061326264833938327
1772614478411315700,2.611315673828125,-0.05762158336341381,0.009442951127886772,-0.07251611442808062
1772614478421382700,2.621382568359375,-0.024569500850141045,0.02492109076678753,-0.05994733203039504
1772614478431449600,2.63144970703125,-0.045859249377250666,-0.01373684892952442,-0.048491387979127464
1772614478441516500,2.6415166015625,0.049176411101222034,0.04743979656696319,-0.17275369093120096
1772614478451583700,2.651583740234375,0.08360796527415514,-0.014594927063584328,-0.14931596145681106
1772614478461650700,2.661650634765625,0.04627776705026626,-0.05211655620634555,-0.06817483382076024
1772614478471717600,2.671717529296875,0.07940291479974984,-0.006753565913438796,-0.05058599477135576
1772614478481784600,2.68178466796875,0.08928221151828765,0.014856792870163917,-0.03629986879546195
1772614478491851500,2.6918515625,0.05033522574752569,0.020824761363863943,-0.02593544630794786
1772614478501918500,2.70191845703125,0.05413257220387459,0.05235270304977894,-0.053228819164028385
1772614478511985700,2.711985595703125,0.0710962742254138,-0.01811784049272537,-0.089535674822703
1772614478522052900,2.722052978515625,0.18646043698340653,-0.1078974801391363,-0.06295329064703546
1772614478532119800,2.732119873046875,0.23981442603021857,-0.0922258637547493,-0.04426063680788502
1772614478542185500,2.742185546875,0.2690656549558043,-0.10771335574388503,-0.08340457905600779
1772614478552252700,2.752252685546875,0.2792410120114684,-0.1641775857657194,-0.11946380749600939
1772614478562320000,2.76231982421875,0.2886547370448708,-0.21122224553525445,-0.06443006693501957
1772614478572386800,2.77238671875,0.3022100919276476,-0.17514730806946754,-0.050360122726764524
1772614478582453800,2.782453857421875,0.34719518881887196,-0.14471125327348708,-0.03715773230039049
1772614478592520700,2.792520751953125,0.46940702551454305,-0.1396206521362066,0.031502318620891305
1772614478602587600,2.802587646484375,0.6363073142424226,-0.13289514327347277,0.11554611346246674
1772614478612654600,2.812654541015625,0.7048930669516325,-0.05780103158354759,0.12576075221574864
1772614478622721800,2.8227216796875,0.6405857222139835,-0.060515551239252084,0.07286563111864962
1772614478632788700,2.832788818359375,0.597066898483038,-0.06792904236614704,0.011825631313608028
1772614478642855700,2.842855712890625,0.5592348882168531,-0.07288812607824802,0.05395653978353366
1772614478652922600,2.852922607421875,0.6223360720351337,-0.07427285843491553,0.0977092818682082
1772614478662989600,2.862989501953125,0.5574009507879615,-0.048398996987938876,-0.01410305645999033
1772614478673056500,2.873056396484375,0.4383589763000607,-0.017932547053694722,-0.21822253448506815
1772614478683123700,2.883123779296875,0.25502047072947026,-0.004969020584225654,-0.3507200750093907
1772614478693189600,2.893189697265625,-0.10204466245770454,0.015683306822180748,-0.3234343374704942
1772614478703256600,2.903256591796875,-0.35509763250648974,0.11327975769937038,-0.24876926484759895
1772614478713323500,2.913323486328125,-0.49213937406539915,0.14998071810901165,-0.21615305300094187
1772614478723390500,2.923390380859375,-0.5319309939667582,0.17130816829800605,-0.1807662256634794
1772614478733457700,2.933457763671875,-0.49674569881707425,0.16496727483868598,-0.15695634754160417
1772614478743524600,2.943524658203125,-0.4076832675293088,0.1671188999146223,-0.16892644252693279
1772614478753591600,2.953591552734375,-0.4251292001098394,0.16823709028959274,-0.16882813325161114
1772614478763658800,2.96365869140625,-0.42959260925948617,0.19284312375783919,-0.09176089485781266
1772614478773725700,2.9737255859375,-0.34935353589653967,0.20297639523744582,0.01766075807472225
1772614478783792600,2.983792724609375,-0.252337222994864,0.17370938422083854,0.0789818855092395
1772614478793859800,2.99385986328125,-0.15060498748719692,0.17181494877636433,0.006721586172864772
1772614478803926800,3.0039267578125,-0.12205226221978664,0.1699865643054247,-0.0832165000048466
1772614478813993700,3.01399365234375,-0.143320091176033,0.11824936280548572,-0.16309169022515416
1772614478824060700,3.024060791015625,-0.23995938745886086,0.05851414828896522,-0.22486613721800966
1772614478834127600,3.034127685546875,-0.3228463449820876,0.0367255103290081,-0.22036230472642926
1772614478844193800,3.04419384765625,-0.3621101416170597,0.06277472834289073,-0.18704130561128257
1772614478854260700,3.0542607421875,-0.3615101298972964,0.10455226136445998,-0.1604771420788951
1772614478864327700,3.06432763671875,-0.3606520517632365,0.14545008894205091,-0.10837272383491509
1772614478874394600,3.07439453125,-0.2919064323171973,0.1665600969880819,-0.08308717453675345
1772614478884461600,3.084461669921875,-0.25597850210666656,0.13950667036771774,-0.12404086048742756
1772614478894528500,3.094528564453125,-0.26204554706066846,0.12071662970185279,-0.16393857111176474
1772614478904595700,3.104595703125,-0.23096242653280497,0.10040098690390586,-0.15559695055559278
1772614478914662700,3.11466259765625,-0.16397037275582552,0.11641045694053172,-0.11091683709346689
1772614478924729600,3.1247294921875,-0.12005115153044461,0.13315700908005237,-0.0692430932399351
1772614478934796500,3.134796630859375,-0.08669161050319671,0.1160579902410507,-0.07443898594917263
1772614478944863500,3.144863525390625,-0.06671323683559895,0.036705636584758755,-0.14068530395934356
1772614478954930400,3.154930419921875,-0.042049920222163195,0.019117957445979116,-0.15242531651584432
1772614478964998000,3.164997802734375,-0.008521160107851028,0.003514145600795746,-0.12097887910092249
1772614478975064800,3.17506494140625,0.029691373908519742,-0.048638650962710375,-0.1512313757572323
1772614478985131800,3.1851318359375,0.0631377164363861,-0.06074293025434017,-0.19256858113277703
1772614478995197700,3.19519775390625,0.14477701198607681,-0.10708674827814102,-0.18073183020353317
1772614479005264600,3.2052646484375,0.21997546083331107,-0.16977555190324783,-0.1838449207227677
1772614479015331800,3.215331787109375,0.29476795922815796,-0.175493345028162,-0.18578463834738357
1772614479025398800,3.225398681640625,0.30193828924894334,-0.15189853442907333,-0.18659147948455065
1772614479035465700,3.2354658203125,0.2509972065627575,-0.14078677330613135,-0.10148836201550439
1772614479045532700,3.24553271484375,0.25238018535375595,-0.08204641504585743,-0.022433055077027527
1772614479055599600,3.255599609375,0.27633915309011936,-0.03888005801439285,0.007083414355735294
1772614479065666600,3.26566650390625,0.3003510200574994,-0.0017950667232275008,0.039997266575251704
1772614479075733800,3.275733642578125,0.3223117997139692,0.024321955829858778,0.043389132936671376
1772614479085801000,3.285801025390625,0.3325064459919929,-0.02119827085137367,0.007835662061721087
1772614479095868000,3.295867919921875,0.31456279302239415,-0.05678688610494136,-0.06226866025058552
1772614479105934800,3.305934814453125,0.26891163343787194,-0.04755670094490051,-0.09279854907616972
1772614479116001800,3.316001708984375,0.17546207310706377,-0.06599310586750506,-0.06787443523523397
1772614479126068700,3.32606884765625,0.09586509703993797,-0.07480068170130252,-0.04978967046162579
1772614479136136000,3.336135986328125,0.03699497492015361,-0.0342202495098114,0.007073774311132729
1772614479146201900,3.346201904296875,-0.0025628362253308293,0.006249123522639274,0.046683786001312545
1772614479156268800,3.356268798828125,-0.03464022848755121,-0.017853052076697348,-0.0626812779057771
1772614479166335700,3.366335693359375,-0.027168869693577288,-0.053340545043349265,-0.14790575673216952
1772614479176402700,3.376402587890625,-0.01076104798913002,0.027893969097733496,-0.1124635916114319
1772614479186470000,3.386469970703125,-0.01932867758721113,0.07740764932930469,-0.017805692103900945
1772614479196536800,3.396536865234375,-0.07242839961200952,0.05929039335846901,0.0077240960126044225
1772614479206603800,3.406603759765625,-0.13765987345725297,0.061056233987212175,-0.077962095741136
1772614479216670700,3.416670654296875,-0.1547998088285327,0.12422025390863418,-0.09744369886773638
1772614479226737700,3.426737548828125,-0.18877952758073804,0.14857611200809479,-0.04091086972225457
1772614479236804600,3.4368046875,-0.20655308468043804,0.1511895093768835,-0.017116960921068673
1772614479246871800,3.446871826171875,-0.1771554330214858,0.17668401611745357,-0.07533154630814679
1772614479256938800,3.456938720703125,-0.1277963588297367,0.1418833363711834,-0.13068181460555642
1772614479267005700,3.467005615234375,-0.02970072625875473,0.13948562757968902,-0.09990573246655986
1772614479277072600,3.47707275390625,0.04197627046406269,0.174945063495636,0.01802701127096079
1772614479287138800,3.487138916015625,0.07504121245890856,0.1779541821837425,0.10426369021404534
1772614479297205800,3.497205810546875,0.025695874531567096,0.17694003670513628,0.11707611777503042
1772614479307272700,3.507272705078125,-0.05108312150537967,0.14411387190222738,0.04793219232694246
1772614479317340000,3.51733984375,-0.10556757588684558,0.07933247991204262,-0.05102234492858406
1772614479327406800,3.52740673828125,-0.18694237528145313,0.0512257448464632,-0.04206377065100241
1772614479337473800,3.537473876953125,-0.2096624488726258,0.08215279802978039,-0.02022772020261036
1772614479347540700,3.547540771484375,-0.14755787487626074,0.05225274980664253,-0.04163002344281412
1772614479357608000,3.55760791015625,-0.11156360143125056,-0.09009820407629013,-0.10139703047024086
1772614479367675000,3.5676748046875,-0.02375058568269014,-0.09276654650270938,-0.10215553895365447
1772614479377741800,3.577741943359375,-0.025630992601811883,-0.07013385893404483,-0.036027171067614105
1772614479387808800,3.587808837890625,-0.05837327851355076,-0.09855974295139312,-0.031421145426749716
1772614479397875700,3.597875732421875,-0.056280690148472784,-0.12672259211838244,-0.05553814185259398
1772614479407942700,3.607942626953125,0.002477203768491745,-0.07317103467285632,-0.010718745500652585
1772614479418009900,3.618009765625,0.07060206096768379,-0.04240881666243076,-0.003953803387017979
1772614479428076800,3.628076904296875,0.1431120013833046,-0.01382277364730835,-0.010583210629125823
1772614479438142700,3.638142822265625,0.19378186591267585,0.04856675477027893,0.02377980949388584
1772614479448209700,3.648209716796875,0.2057142957687378,0.04595043479204178,0.03559893343489384
1772614479458276900,3.65827685546875,0.16059329753816126,0.038061142846941946,-0.006194790957184159
1772614479468343800,3.66834375,0.10520867944657802,0.04003507326841354,-0.04178530533607117
1772614479478410800,3.67841064453125,0.07205459786355495,0.011060323196649551,-0.12674047483494505
1772614479488477700,3.688477783203125,0.05367664512991905,-0.06348784504830837,-0.23387970221899448
1772614479498544600,3.698544677734375,0.020076573345065116,-0.10712181959152221,-0.2936507735001854
1772614479508611600,3.708611572265625,0.0013224807754158973,-0.11475918260216712,-0.2696626162019558
1772614479518678800,3.7186787109375,-0.006763210524618625,-0.09293488880693912,-0.20075828079655766
1772614479528746000,3.72874609375,0.013252864804863929,-0.01409457632601261,-0.14986076325746253
1772614479538813000,3.73881298828125,0.05614011263400316,0.01317395434975624,-0.12767565505951642
1772614479548880000,3.7488798828125,0.0790697373226285,-0.00857376707792282,-0.1206363310072571
1772614479558946800,3.75894677734375,0.11809037285149097,0.04766074584126472,-0.10983540766546503
1772614479569013800,3.769013671875,0.12145312728285788,0.13468378025591374,-0.021471710648026783
1772614479579080700,3.779080810546875,0.09511953936964272,0.18002631228268146,0.037174363774782976
1772614479589147000,3.78914697265625,0.04009118736982345,0.12699322575330735,-0.04801046802781056
1772614479599213800,3.7992138671875,0.009868775324523448,0.09377017058730125,-0.1533166941313073
1772614479609280800,3.80928076171875,0.021963994526863095,0.09422200600802898,-0.13762894859602673
1772614479619347700,3.81934765625,0.032921149609982964,0.04791618190705776,-0.10859923520032316
1772614479629415000,3.829414794921875,0.05259498737305402,-0.028477906465530393,-0.1707300030838698
1772614479639481900,3.83948193359375,0.09732114106714725,-0.04094400480687618,-0.21011180007532237
1772614479649548800,3.849548828125,0.09966244349628686,-0.03913023338317871,-0.15738947826186195
1772614479659615700,3.85961572265625,0.04757394434064626,-0.03359013491272926,-0.09620572717115282
1772614479669682700,3.8696826171875,0.0209115628644824,0.009162380620837211,-0.05875964291605632
1772614479679749600,3.87974951171875,0.013999006997048855,0.07316109780073166,-0.03866033714937512
1772614479689816800,3.88981689453125,-0.0046446109354496,0.053528761091828345,-0.08433607861930503
1772614479699883800,3.8998837890625,0.0018085107266902923,-0.005994271978735924,-0.10509248745469375
1772614479709950700,3.90995068359375,0.024732582457363605,0.010941665253043175,-0.08512885469850152
1772614479720017700,3.920017578125,0.05077566299140453,0.010529577320814132,-0.06077869568746536
1772614479730084900,3.9300849609375,0.06133621997237205,-0.03729483464956283,-0.09066074246303178
1772614479740150800,3.94015087890625,0.03240150965005159,-0.07240238838791847,-0.13118411070504224
1772614479750217700,3.9502177734375,0.0336430341437459,-0.08329904545545577,-0.15365679453955963
1772614479760284700,3.96028466796875,0.03413490931391716,-0.16003274104595183,-0.22813301179315892
1772614479770351900,3.970351806640625,0.015293722982704639,-0.151664141151309,-0.23684015945978462
1772614479780418800,3.980418701171875,0.01614770946353674,-0.10572247418761253,-0.1658061916145496
1772614479790485800,3.99048583984375,-0.0003194412127137184,-0.03914776903986931,-0.040740266962279566
1772614479800553000,4.000552978515625,0.04898614922612905,0.03543196338713169,0.040542753362492655
1772614479810620000,4.010619873046875,0.10658581301867961,0.07946984255611896,0.034932051040977234
1772614479820686800,4.020686767578125,0.13978636409193276,0.1223632278650999,0.016582739879935977
1772614479830753800,4.03075390625,0.10888970604687928,0.1326981593966484,0.029975887655036056
1772614479840820700,4.04082080078125,0.0791696905657649,0.101031101500988,-0.050956741479621266
1772614479850887700,4.0508876953125,0.035708442240953445,0.006740706431865692,-0.17288663312848657
1772614479860955000,4.060954833984375,-0.004927519530057906,-0.05553133308589458,-0.2297573067930527
1772614479871021800,4.071021728515625,-0.01362228263914585,-0.05203413861989974,-0.24941468661166727
1772614479881088800,4.0810888671875,0.013640987339615822,-0.04649696275889873,-0.16410589050268753
1772614479891154700,4.09115478515625,0.044507834768295285,0.002305354332923889,-0.08020446784044616
1772614479901221600,4.1012216796875,0.1136687570169568,0.037626258561015126,-0.019823157989711033
1772614479911288800,4.111288818359375,0.08294570197314023,0.0703057083696127,0.03636911865636939
1772614479921355800,4.121355712890625,0.05858458317667246,0.10376607942283153,0.0354342192762997
1772614479931422700,4.131422607421875,-0.021731062553822993,0.10264613548219204,-0.059494259067228994
1772614479941489700,4.14148974609375,-0.12281681685149669,-0.00449906498491764,-0.1764032081483863
1772614479951556600,4.151556640625,-0.19860680185109375,-0.005628361275792122,-0.21705405696127564
1772614479961623600,4.16162353515625,-0.2196428678780794,0.0667494771927595,-0.12618714266796596
1772614479971691000,4.17169091796875,-0.1952235891535878,0.12790040372610093,0.016177216402522752
1772614479981758000,4.181758056640625,-0.13092092059105634,0.0965349591255188,0.0007770978778076824
1772614479991825000,4.191824951171875,-0.05194821390211582,0.007903320470452307,-0.12245897985715418
1772614480001891800,4.201891845703125,0.04530716845244169,0.013202595922350882,-0.14150587222776376
1772614480011958800,4.211958740234375,0.10872545539587736,0.057195466905832285,-0.04029164184536785
1772614480022025700,4.222025634765625,0.11355623655319214,0.008217793247103691,-0.007880282088159583
1772614480032093000,4.232093017578125,0.08145984732955694,-0.05058043268024921,-0.07224232072168961
1772614480042158800,4.242158935546875,0.053524377177655694,-0.011006547182798384,-0.09908393122227861
1772614480052225800,4.252225830078125,0.044649873587489126,0.03058160074651241,-0.07983987231175414
1772614480062292700,4.262292724609375,-0.014333938039839266,0.015322656816244125,-0.09692263413569889
1772614480072359700,4.272359619140625,-0.062201896890997886,0.032494740891456604,-0.07123592472469899
1772614480082426600,4.282426513671875,-0.07713467760682105,0.094486794424057,-0.013233146324241532
1772614480092493600,4.29249365234375,-0.06832359464168548,0.020812486404180524,-0.031995954206597524
1772614480102560500,4.302560546875,-0.011327741961181163,-0.026027006182074545,-0.16384070022786035
1772614480112627500,4.31262744140625,0.0936976898729801,-0.016941197928786275,-0.18115277729565277
1772614480122694400,4.3226943359375,0.14727759663015602,0.0007756605476140976,-0.038333836008212524
1772614480132761600,4.33276171875,0.13920593385547397,0.010972060391306876,0.014899658189289039
1772614480142828500,4.34282861328125,0.14202274484187363,0.033118425747752187,0.01445154110409785
1772614480152895700,4.352895751953125,0.12115472885817288,0.07076514257490635,0.0063613243259955194
1772614480162962700,4.362962646484375,0.1045996076375246,0.06389759489297867,-0.028531273770716504
1772614480173029600,4.373029541015625,0.06430091499686241,0.0882435161203146,-0.036445592842507174
1772614480183096600,4.3830966796875,0.0021826047360897064,0.12533143002092836,0.0011901847488130443
1772614480193162800,4.393162841796875,-0.02413549334704876,0.11758476141691207,0.00200053301731823
1772614480203229700,4.403229736328125,-0.052335167393088335,0.08803075015246868,-0.008637932055047712
1772614480213296600,4.413296630859375,-0.060651160317659374,0.08923018907010555,-0.03489779714492615
1772614480223363600,4.423363525390625,-0.015762801799178123,0.032035891208052635,-0.07274238833147101
1772614480233430500,4.433430419921875,0.01371726744621992,-0.05886018524765968,-0.054967506924364716
1772614480243497700,4.443497802734375,0.04978022221326828,-0.10523264484405517,-0.035893151158094404
1772614480253564700,4.453564697265625,0.06366700100749731,-0.11075754574537276,-0.02561768559566699
1772614480263631600,4.463631591796875,0.04335661890655756,-0.1033095678269863,-0.04468295843976084
1772614480273698600,4.473698486328125,-0.003633680327236652,-0.08621464064121245,-0.07335818214225583
1772614480283765500,4.483765625,-0.07192541852593422,-0.05350771830379963,-0.05252400906265247
1772614480293832400,4.49383251953125,-0.12776216429919005,-0.043047699087858195,-0.03151773081915453
1772614480303899600,4.503899658203125,-0.1319184071958065,-0.038383214408159255,-0.07949052915112115
1772614480313966600,4.513966552734375,-0.11200286963135003,-0.0365296954959631,-0.11490764202899299
1772614480324033500,4.524033447265625,-0.04749035771042108,-0.047854807108640665,-0.15362305666673928
1772614480334099500,4.534099365234375,0.028521745607256888,-0.05377601385116577,-0.16665323689794168
1772614480344166400,4.54416650390625,0.09215835147649049,-0.04811959552466869,-0.11569996145046316
1772614480354233600,4.554233642578125,0.1198728723540902,-0.012065116325020789,-0.04971892504666466
1772614480364300500,4.564300537109375,0.13133505434989928,0.011667056918144226,-0.0046757275929208844
1772614480374367500,4.574367431640625,0.12321604530215263,0.023442250385880468,-0.05968023292627185
1772614480384434400,4.584434326171875,0.12205372352451085,0.04757365207970142,-0.08867784328381531
1772614480394501600,4.594501708984375,0.11734043126702308,0.07423895616531372,-0.09793216737126931
1772614480404568600,4.604568603515625,0.09551789103746414,0.06359598159790039,-0.0610486169363372
1772614480414635800,4.6146357421875,0.0425900184482336,0.06125438690781593,-0.033428345646872186
1772614480424702700,4.62470263671875,0.032870588466525075,0.07795826894938945,-0.038701171483262437
1772614480434769700,4.634769775390625,0.021623802787065504,0.07301146019697188,-0.08277068333295173
1772614480444836600,4.644836669921875,0.013197335225343703,0.0458230090200901,-0.11110599385686218
1772614480454903600,4.654903564453125,0.04096387855112552,0.04732289218902588,-0.11072936083050444
1772614480464970500,4.664970458984375,0.05094312851279974,0.03585866436660289,-0.10707387053025885
1772614480475037700,4.67503759765625,0.07996990103274583,0.0038940848290920254,-0.08200764480489306
1772614480485104600,4.685104736328125,0.10146189413368702,0.01336392396390438,-0.06053389974669553
1772614480495170600,4.695170654296875,0.11377864713221787,0.008759060516953467,-0.051739863814483394
1772614480505237500,4.705237548828125,0.15902824017852543,0.0019306758016347885,-0.06800484754871576
1772614480515304400,4.715304443359375,0.15199994897693395,-0.0026660043388605117,-0.08928230284983292
1772614480525371600,4.72537158203125,0.10895809510797262,0.006202946293354034,-0.0942127267230302
1772614480535438600,4.7354384765625,0.04514905528128147,0.01211480068564415,-0.057848085595667356
1772614480545505500,4.745505615234375,0.016233926442265508,0.010821838265657423,-0.07810119368457234
1772614480555572500,4.755572509765625,-0.014282207852602005,0.003168693163990974,-0.11861712753879837
1772614480565639400,4.765639404296875,-0.04071779483556747,-0.028660861817002295,-0.10861097130388953
1772614480575706400,4.775706298828125,-0.04493015183359384,-0.00881166748702526,-0.09257728014145977
1772614480585773600,4.785773681640625,-0.051070262023806566,0.02393149520754814,-0.06983522304734215
1772614480595840500,4.795840576171875,-0.022604922778904437,0.03175356713533401,-0.06944183981558308
1772614480605907700,4.80590771484375,-0.013981179079413413,0.034463410615921015,-0.04023474229266867
1772614480615974700,4.815974609375,-0.01251519818007946,0.07941022132337093,-0.027218133929092437
1772614480626041600,4.82604150390625,0.03926233533024788,0.10803367373943329,-0.02844746566149406
1772614480636108500,4.836108642578125,0.03261047622561455,0.08983516922593117,0.01770397159536369
1772614480646174700,4.8461748046875,0.049119712477922434,0.09104980571269988,0.01331336282044649
1772614480656241700,4.85624169921875,0.06433890891969203,0.035548867765069006,-0.0637775213104207
1772614480666308600,4.86630859375,0.06298340265750885,-0.012860066094994545,-0.07645644041853956
1772614480676375600,4.87637548828125,0.0614168839931488,-0.0008685995280742645,-0.07357904008501209
1772614480686442500,4.8864423828125,0.03793196350932121,-0.04625497069656849,-0.07326117890803142
1772614480696509700,4.896509765625,0.015541852524876594,-0.10406886176168918,-0.13501035446231252
1772614480706576600,4.90657666015625,-0.0343248789280653,-0.11595745247602463,-0.15822116157934069
1772614480716643600,4.9166435546875,-0.06534224074333905,-0.06465279717445373,-0.11199113352778367
1772614480726710500,4.92671044921875,-0.0892433408126235,-0.007260346391797065,-0.10176639350559562
1772614480736777500,4.936777587890625,-0.09926818348169326,0.01296177290380001,-0.06985381814995781
1772614480746844400,4.946844482421875,-0.07242518474161624,0.03603577449917793,-0.0509245060107205
1772614480756911600,4.95691162109375,-0.03280512201488018,0.04929916069805622,-0.050079515687096864
1772614480766978600,4.966978515625,0.028536650915443895,0.04984335057735443,-0.09356190726463683
1772614480777045500,4.97704541015625,0.0656733723938465,0.06912789676189422,-0.052571113307122136
1772614480787112400,4.987112548828125,0.09343523954451084,0.07816109804511069,-0.01694561837557703
1772614480797178600,4.9971787109375,0.1044990698724985,0.051063832283020014,-0.059902168581262225
1772614480807245600,5.00724560546875,0.11380115122497081,-0.006964578315615653,-0.0983102708355058
1772614480817312500,5.0173125,0.11921090131402015,0.018428806138038635,-0.09212869612374343
1772614480827379500,5.02737939453125,0.1253735155969858,0.054062429577112193,-0.06631268407753668
1772614480837446700,5.03744677734375,0.08631663971096276,0.033959552747011186,-0.09077895288206636
1772614480847513600,5.047513671875,0.056360185125470155,0.027948329633474347,-0.14498963182345032
1772614480857580500,5.05758056640625,0.01518646321594715,0.04387655112743377,-0.14704436326301656
1772614480867647700,5.067647705078125,-0.02017214267402887,0.02382686578929424,-0.09842757707224227
1772614480877714700,5.077714599609375,-0.007551146031916141,0.007025368592143058,-0.05930678737084381
1772614480887781600,5.08778173828125,0.004741641569137573,-0.02585164961516857,-0.09713686140826902
1772614480897848600,5.0978486328125,0.06849398277252912,-0.05290273814797401,-0.11326869744923897
1772614480907915500,5.10791552734375,0.09912409883588552,-0.05317278726100921,-0.06067742727007717
1772614480917982500,5.117982421875,0.08000000391006469,-0.021536124503612517,-0.002198459892347455
1772614480928049700,5.128049560546875,0.029988018767535686,0.02207622272968292,0.02497106738835573
1772614480938116600,5.13811669921875,-0.023966566520929336,0.052312955561280246,-0.0015172909614630042
1772614480948182500,5.1481826171875,-0.06501490848511457,0.03812719382047653,-0.08493364265365526
1772614480958249500,5.15824951171875,-0.0707236415207386,0.023871873974800107,-0.15010017977021634
1772614480968316700,5.168316650390625,-0.04766425297260284,0.04500993907153606,-0.11495109757822937
1772614480978383600,5.178383544921875,-0.02834434321373701,0.05416004473268986,-0.06574590790709481
1772614480988450600,5.188450439453125,-0.010156067833304404,0.0015448913544416428,-0.11174009964247233
1772614480998517500,5.198517578125,0.014603987152874469,-0.016181319472193718,-0.11487318263696505
1772614481008584400,5.20858447265625,0.03955255044847727,0.03847439982295036,-0.09368250143700278
1772614481018651400,5.2186513671875,0.03766191439628601,0.031202362993359566,-0.051563406702456994
1772614481028718600,5.228718505859375,0.030529578298330307,0.02796878789961338,-0.06070265304287895
1772614481038785500,5.23878564453125,0.006397592082619667,0.056121700194478034,-0.06718415141613222
1772614481048852700,5.248852783203125,-0.045456806056201456,0.06267360605597495,-0.07790031908391974
1772614481058919700,5.258919677734375,-0.03095160310268402,-0.002233458140492439,-0.12715006028283388
1772614481068986400,5.268986328125,-0.022322306445240973,-0.015353051954507826,-0.14028313463293016
1772614481079053300,5.27905322265625,-0.018758476483821868,0.012166238611936568,-0.10878301253570243
1772614481089120500,5.28912060546875,0.004259703271090984,-0.008596563431620597,-0.09774513863287866
1772614481099187500,5.2991875,-0.003655892159044742,-0.027181436914205548,-0.10789172625178471
1772614481109253400,5.30925341796875,-0.02199000575095415,-0.013164601999521255,-0.12457809090297668
1772614481119320300,5.3193203125,0.011291501604020595,0.009839841490983962,-0.09609391909344121
1772614481129386500,5.329386474609375,0.08238339191526174,0.06055529872775078,-0.06822934048697352
1772614481139453400,5.339453369140625,0.06724953566938638,0.057711599734425544,0.0010280370066408067
1772614481149520400,5.349520263671875,0.0857706962659955,0.12789046685397623,0.030031848776107654
1772614481159587300,5.35958740234375,0.03429243796318769,0.09340133727490901,0.038425181253207846
1772614481169654300,5.369654296875,-0.040168344259262086,-0.006650690060853958,-0.027395481523685157
1772614481179721500,5.379721435546875,-0.061573243598639964,-0.07852525518238544,-0.14551288851257413
1772614481189788400,5.389788330078125,-0.08603256207257509,-0.12347265041172503,-0.20582968404302374
1772614481199855400,5.39985546875,-0.09441460597068072,-0.09067571170330047,-0.15832074949629604
1772614481209922300,5.40992236328125,-0.07632043861448765,-0.0013759645283222197,-0.06195914677684195
1772614481219989200,5.4199892578125,-0.05011982943117618,0.0678957246184349,0.03537379432595335
1772614481230056200,5.43005615234375,-0.027220892141759392,0.10513795229792594,0.03582008592188358
1772614481240122400,5.440122314453125,-0.02099748758226633,0.11876608015596866,0.014816597857093437
1772614481250189300,5.450189208984375,-0.02834521999657154,0.03711947808265686,-0.10659981414456851
1772614481260256300,5.46025634765625,-0.04975976394712925,-0.022972879308462143,-0.13038481355351395
1772614481270323500,5.470323486328125,-0.063926820987463,-0.002243395012617111,-0.08730065491278656
1772614481280390400,5.480390380859375,-0.04293137923181057,-0.0098556235820055,-0.029920753084449095
1772614481290457600,5.49045751953125,-0.0265802561506629,-0.02977905219197273,-0.06473687699502334
1772614481300524500,5.500524658203125,-0.01720949347615242,-0.027411154016852377,-0.1153775610956829
1772614481310591500,5.510591552734375,-0.03837152397036552,-0.01046820252239704,-0.09879597199321724
1772614481320658400,5.520658447265625,-0.036732816852629184,0.012782324683666229,-0.06166146073821
1772614481330725400,5.530725341796875,-0.043563831916451454,0.036350831797719,-0.005583544886531308
1772614481340792300,5.540792236328125,-0.01847118397504091,0.05899637884795665,-0.0004451042858418077
1772614481350859500,5.550859619140625,0.006169044023752212,0.034522447326779365,-0.03370471946941688
1772614481360926500,5.560926513671875,-0.00905745894163847,0.024342998617887496,-0.06802356138234027
1772614481370993400,5.570993408203125,-0.049907063463330265,0.05092646963894367,-0.0644888935833238
1772614481381060400,5.581060302734375,-0.09078355599194765,0.03744505677521229,-0.08815711647849529
1772614481391127300,5.591127197265625,-0.10539543419033288,0.04176934971511364,-0.07963677835455164
1772614481401193500,5.601193359375,-0.08120148865431547,0.084870824816823,-0.07347713234680704
1772614481411260400,5.611260498046875,-0.05502805973887443,0.08526537709236144,-0.10085761723075992
1772614481421327400,5.621327392578125,-0.04374211109280586,0.06906418387591838,-0.08334953353367745
1772614481431394300,5.631394287109375,-0.023118425258994102,0.07114332823753357,-0.07174425327274948
1772614481441461200,5.641461181640625,-0.028619068501889704,0.044432431444525716,-0.10251414313297719
1772614481451528200,5.651528076171875,-0.01279313833862543,0.022354455149173735,-0.11066048771222121
1772614481461595400,5.661595458984375,0.029707448260486123,0.02981120089590549,-0.09333802624773234
1772614481471662600,5.67166259765625,0.04433218594044447,0.05886193881332874,-0.0729587527622003
1772614481481729500,5.6817294921875,0.061868134891986844,0.06187690272033214,-0.07617302950043231
1772614481491796500,5.69179638671875,0.07808189532905817,0.04863046765625476,-0.05684636120721698
1772614481501863400,5.701863525390625,0.037891339237987993,0.042405309531092644,-0.05928369875620119
1772614481511930400,5.711930419921875,0.01791267330944538,0.004705401211977005,-0.11099434104277751
1772614481521997600,5.72199755859375,-0.005635667799413204,-0.03159983787834644,-0.1588706749966368
1772614481532064500,5.732064453125,-0.014103051893413066,-0.04863222122192382,-0.11945269244695082
1772614481542131500,5.74213134765625,0.009964052392542362,-0.07967851687073707,-0.12134046982177532
1772614481552198400,5.752198486328125,0.06366232483237981,-0.07608604533672332,-0.11741712236558087
1772614481562265300,5.762265380859375,0.06534311752617358,-0.015986673682928085,-0.052972524581709875
1772614481572332300,5.772332275390625,0.05805471408367156,0.007951835787296295,-0.027863172100670634
1772614481582399500,5.7823994140625,0.06750438721328973,0.02357201424539089,-0.0660737972877454
1772614481592466400,5.792466552734375,0.06218231540769338,0.004023848688602448,-0.11512306574480607
1772614481602533400,5.802533447265625,0.047667175582051274,-0.031163784548640248,-0.09613745684106834
1772614481612600300,5.812600341796875,0.03643032677471637,-0.03074059070050716,-0.04312105658501386
1772614481622667300,5.822667236328125,-0.006959025357663631,-0.014584990191459654,-0.021988644910929722
1772614481632734200,5.832734130859375,-0.08391074761301279,-0.02299158400893211,-0.006556216710433363
1772614481642801400,5.842801513671875,-0.07743044568300246,-0.0063601826816797255,0.010827044163737445
1772614481652868600,5.85286865234375,-0.0622121260240674,0.06002163024246692,-0.06824131405255757
1772614481662934300,5.862934326171875,-0.04897621235400438,0.07498129896521567,-0.08656641322094946
1772614481673001200,5.873001220703125,-0.0331286548808217,0.0820171889513731,-0.044976639590132976
1772614481683068400,5.883068359375,-0.005659633196890354,0.0996364322721958,-0.027849298838945102
1772614481693135600,5.893135498046875,0.030951018580794333,0.11279869618415832,0.0013587759315036236
1772614481703202600,5.90320263671875,0.030640637457370758,0.10518646761476994,0.005662190480157732
1772614481713269500,5.91326953125,0.031106793664395806,0.06688216366171837,-0.04225752595770173
1772614481723336400,5.92333642578125,0.05044716168940067,0.05251344656944275,-0.07483925101286731
1772614481733403400,5.9334033203125,0.03658025663942099,0.03918634748458862,-0.06159718159665353
1772614481743470300,5.94347021484375,0.018883271907269954,0.0012345102310180663,-0.04898610356035642
1772614481753537500,5.95353759765625,0.024415187071263788,-0.01768354072868824,-0.050185286749666554
1772614481763604500,5.9636044921875,0.014530921916663646,-0.02273205628991127,-0.0901821012337692
1772614481773671400,5.97367138671875,-0.008307517357170582,-0.07248480597436428,-0.16404029618687926
1772614481783738400,5.98373828125,-0.00002367313653230667,-0.09489069904983043,-0.18096063399072734
1772614481793805300,5.993805419921875,0.02945961097925901,-0.06528817246854304,-0.16259831721764056
1772614481803872300,6.003872314453125,0.08420797699391841,-0.0436924267321825,-0.11599273385195992
1772614481813939500,6.013939453125,0.11500351275205611,0.014381576573848724,-0.033713752159243444
1772614481824005400,6.02400537109375,0.12203764917254448,0.049557519373297686,-0.021057949065230785
1772614481834072300,6.034072265625,0.10869389121383428,0.019813538494706153,-0.08357962509565986
1772614481844139300,6.04413916015625,0.09616407998651265,0.03200724963545799,-0.12005422940352
1772614481854206200,6.054206298828125,0.04717150101959705,0.04976794725358486,-0.08839262400111184
1772614481864273400,6.0642734375,-0.016706220129132268,0.024849194574356078,-0.121310376077611
1772614481874340400,6.07434033203125,-0.032876433685421945,0.007822071927785872,-0.1373167408416979
1772614481884407600,6.084407470703125,-0.028074586361646652,0.008692425021529197,-0.10211596499509178
1772614481894474500,6.094474609375,-0.006473579928278923,0.0018196166425943374,-0.04255762314912863
1772614481904541400,6.10454150390625,0.011912263850867747,0.007491817060112952,-0.0429942244681064
1772614481914608400,6.1146083984375,-0.007798398791253566,0.02964753476679325,-0.07302887712265364
1772614481924675600,6.124675537109375,-0.0775116942256689,0.007386018598079681,-0.08917614819477311
1772614481934742500,6.134742431640625,-0.0908858473226428,0.010897241589426994,-0.09512467220248653
1772614481944809500,6.1448095703125,-0.09238368466496467,0.018477905976772308,-0.07868603523466736
1772614481954876400,6.15487646484375,-0.07726940990239381,0.05473872140347957,-0.05210155043345876
1772614481964943400,6.164943359375,-0.06896072350144386,0.08334872981607913,-0.020274534469423816
1772614481975010300,6.17501025390625,-0.00623275690972805,0.07657587468028068,-0.02734473771713674
1772614481985076500,6.185076416015625,0.02084375832527876,0.040321488994359965,-0.062098874907940624
1772614481995143400,6.195143310546875,0.06624532706290483,-0.0025841712743043897,-0.11551822080854326
1772614482005210400,6.20521044921875,0.09356500340402125,-0.06746084033250808,-0.14377719642692244
1772614482015277300,6.21527734375,0.14843611901551484,-0.11634148335754871,-0.10865425332318991
1772614482025344300,6.22534423828125,0.2076370805248618,-0.09817454302608966,-0.09212037581996992
1772614482035411500,6.235411376953125,0.273385563981533,-0.037972295519709584,-0.03446273476248607
1772614482045478400,6.245478515625,0.24964959134608505,0.018334113591909406,0.0483020165866008
1772614482055545300,6.25554541015625,0.17157441801875828,0.03550035244822502,0.09123503521964885
1772614482065612300,6.2656123046875,0.09093114776909351,0.0629635289132595,0.10054118082588538
1772614482075679500,6.275679443359375,-0.0009893032982945442,0.026703298008441925,0.05345746312101837
1772614482085746700,6.28574658203125,-0.05264642529934645,-0.021401684468984602,-0.10888256392003967
1772614482095813600,6.295813720703125,-0.06286416019201278,-0.05449614481925964,-0.16846795816970989
1772614482105880800,6.305880859375,-0.018884148690104484,-0.05263970329761505,-0.12114963255794718
1772614482115947800,6.31594775390625,0.04203063099980354,-0.06867489229738712,-0.08796358493408188
1772614482126014700,6.3260146484375,0.09568155716657638,-0.044774961271882054,-0.046113635130273174
1772614482136081700,6.33608154296875,0.13751403524577616,0.012532149314880371,-0.015514156233775429
1772614482146147800,6.34614794921875,0.10511457142233847,0.0264168822824955,-0.013543664444983004
1772614482156214800,6.35621484375,0.011215221497416496,0.021724925073981285,-0.04869825849572662
1772614482166281700,6.36628173828125,-0.04007423623502254,0.07710077533721924,-0.05075317716496065
1772614482176348700,6.3763486328125,-0.08200403720885514,0.11782558443546294,-0.03190759321984369
1772614482186415600,6.38641552734375,-0.10224836833626032,0.0836293003231287,-0.06832821601787582
1772614482196482600,6.396482666015625,-0.10839257017970085,0.08782266035974025,-0.0924841310984455
1772614482206549800,6.4065498046875,-0.09076222094297408,0.062684711971879,-0.12283285467084497
1772614482216616700,6.41661669921875,-0.11792875254899263,-0.005741758522391319,-0.17156996103934943
1772614482226683600,6.42668359375,-0.13575287079215048,-0.016389993786811826,-0.15715070106992496
1772614482236750600,6.43675048828125,-0.13768559242039918,0.019607786789536476,-0.0773054127975367
1772614482246817500,6.446817626953125,-0.1105775130033493,0.04444704449176788,-0.018636868531303478
1772614482256884500,6.456884521484375,-0.04881985274851322,0.06704466074705123,-0.011705886524613015
1772614482266951700,6.46695166015625,-0.004802724106609821,0.08985153583884238,-0.046302997389645315
1772614482277018600,6.4770185546875,0.013662030127644538,0.0412087932229042,-0.11163178956294431
1772614482287085800,6.4870859375,0.03490823177397251,0.022263854256272315,-0.1303001218115911
1772614482297151500,6.4971513671875,0.05589490570127964,0.049853871971368785,-0.12235261513954028
1772614482307218400,6.507218505859375,0.09144844964146613,0.07155190903842448,-0.06806151877255179
1772614482317285600,6.51728564453125,0.10456979702115059,0.08955869037210941,-0.010385520074469969
1772614482327352800,6.527352783203125,0.10148293692171573,0.08034253373742103,0.03032391335812863
1772614482337419800,6.537419677734375,0.10016367101669311,0.058465632972121234,0.0180629365342902
1772614482347486700,6.54748681640625,0.11232552571445703,0.0058604164659976955,0.0014882566632237284
1772614482357553700,6.5575537109375,0.05351239447891712,-0.023188567885756493,-0.024026452615158633
1772614482367620600,6.56762060546875,0.03731207804530859,-0.03990823201835155,-0.09278141527827828
1772614482377687800,6.577687744140625,0.02562543964385986,-0.024750994896888732,-0.09400252717160619
1772614482387754800,6.587754638671875,-0.02292027233839035,-0.006239771172404289,-0.09136979491468518
1772614482397821700,6.59782177734375,-0.030490707592666148,0.034162381842732424,-0.032780046939128074
1772614482407888600,6.607888671875,-0.021091011084616182,0.07626607807874679,-0.00818346171923913
1772614482417955600,6.61795556640625,0.017014555425941942,0.07387713711559772,0.015770939439861104
1772614482428022500,6.6280224609375,0.07544044090956449,0.03849193547964096,-0.012747477132570928
1772614482438089700,6.63808984375,0.09923545025587081,0.007789923223853111,-0.015933007266931237
1772614482448156700,6.64815673828125,0.04143821806460619,0.03372515946924686,-0.011100143750384449
1772614482458223600,6.6582236328125,-0.035376726068556304,0.04509294117987156,-0.022903759595006703
1772614482468289500,6.66828955078125,-0.11289952621012926,0.04090951801538467,-0.04310953967715613
1772614482478356500,6.6783564453125,-0.1296554306998849,0.08173428035676479,-0.09003987975148484
1772614482488423700,6.688423583984375,-0.12317249842137097,0.06601473317742347,-0.10423017153693362
1772614482498490600,6.69849072265625,-0.07073679326325655,-0.017532149559259413,-0.1053795333683025
1772614482508557600,6.7085576171875,-0.003503331945836544,-0.012316460737586021,-0.03282846179127227
1772614482518624500,6.71862451171875,0.026998189301788805,0.01438040753006935,0.013246864322340115
1772614482528691700,6.728691650390625,0.03855623288750648,0.0070411506831645964,0.001260379891213961
1772614482538758700,6.738758544921875,0.024447628036141394,-0.037486557829380034,-0.05404843301780056
1772614482548825900,6.748825927734375,-0.016296470284461975,-0.04624912547767162,-0.07723885036734864
1772614482558892800,6.758892822265625,-0.016637538807094097,0.017597031489014623,-0.025633536185347472
1772614482568959700,6.768959716796875,-0.017707213865220547,0.05567395642697811,0.03326739206465427
1772614482579026700,6.779026611328125,-0.008200257590413092,0.024510171878337858,-0.007049891112046316
1772614482589093600,6.78909375,0.0015279402196407318,-0.04128010489344597,-0.11503625511103309
1772614482599160600,6.79916064453125,0.018256956702470777,-0.03825461959242821,-0.2035825809696689
1772614482609227800,6.809227783203125,0.013867781832814216,-0.011373042407631873,-0.1663637889646925
1772614482619293700,6.819293701171875,0.014518646956980227,-0.024580899026989934,-0.08297005096310749
1772614482629360600,6.829360595703125,0.03510346208512783,-0.00244037888944149,-0.03500394266683143
1772614482639427600,6.839427490234375,0.07396306183338165,0.039348260048031804,-0.018856667028134686
1772614482649494500,6.84949462890625,0.09091507341712712,0.049233109724521634,-0.02934100326800253
1772614482659561700,6.859561767578125,0.08586977272629738,0.055123921328783035,-0.039011694170581174
1772614482669628700,6.869628662109375,0.09289075740426778,0.08552315124571323,-0.03873843018715269
1772614482679695600,6.879695556640625,0.08458908526599407,0.10980886671841143,-0.003977004739036783
1772614482689762600,6.889762451171875,0.07970160548537969,0.05365326425433158,-0.010831432644487358
1772614482699829500,6.89982958984375,0.04041881188899278,-0.005932897180318832,-0.10508340909909457
1772614482709896400,6.909896484375,0.027950083199143407,-0.0045627778708934785,-0.13999346750397235
1772614482719963600,6.919963623046875,0.005286415970325469,0.030529578298330307,-0.08676544292438775
1772614482730030600,6.930030517578125,-0.02774783862531185,-0.023753216031193732,-0.08041464912556111
1772614482740097800,6.940097900390625,-0.009181085321307183,-0.04770867663621902,-0.06239713176873046
1772614482750164700,6.950164794921875,0.010496844094991683,-0.012870002967119216,-0.04800806600817013
1772614482760231700,6.960231689453125,0.024134324303269384,-0.026842998740077017,-0.0490598811826203
1772614482770298600,6.970298583984375,0.01760726062208414,-0.04981003282964229,-0.06310321137858554
1772614482780364800,6.98036474609375,-0.0168313078135252,-0.010557049849629402,-0.06107962856253143
1772614482790431700,6.990431640625,-0.03404313937723637,0.03177402540147305,-0.060158125236863265
1772614482800498700,7.000498779296875,-0.022891338504850863,0.019356442376971244,-0.04184054265464656
1772614482810565600,7.010565673828125,0.02030307557731867,0.029136078113317487,-0.05783766009977553
1772614482820632600,7.020632568359375,0.05759031144231558,0.028176293170452116,-0.09891727855163626
1772614482830699800,7.03069970703125,0.04791618190705776,-0.0006236848562955855,-0.06317990704372059
1772614482840766700,7.0407666015625,0.04478519040495157,0.008434650868177414,-0.05631080672552343
1772614482850833700,7.050833740234375,0.0462719218313694,0.013135375905036925,-0.038436090806289576
1772614482860900600,7.060900634765625,0.032418460784852506,0.009224339941143989,-0.03312918003720697
1772614482870967600,7.070967529296875,0.05232523052096367,-0.0006932429611682891,-0.04283438969731796
1772614482881034500,7.081034423828125,0.06309329277276993,-0.02161737304627895,-0.09783352016923018
1772614482891101700,7.091101806640625,0.0864005186021328,-0.03313245427310466,-0.1482304129761178
1772614482901168600,7.101168701171875,0.09105623545348644,0.0016746552139520643,-0.11037546022576279
1772614482911235600,7.111235595703125,0.09287029913812875,0.03593406769037247,-0.017362003457010722
1772614482921302500,7.121302490234375,0.1369052556976676,0.06989245139360427,0.04185810571080074
1772614482931369500,7.131369384765625,0.1646831972002983,0.11570669258534907,0.05470654073350597
1772614482941435600,7.141435546875,0.12955664650052784,0.08331716563403606,0.07146655970937572
1772614482951502600,7.151502685546875,0.05553396343439817,-0.013589549413323401,0.005070106338523328
1772614482961569500,7.161569580078125,0.008915127861499787,-0.07140344047844409,-0.13764496814906596
1772614482971636700,7.17163671875,-0.029806816981732844,-0.08546411453485489,-0.19141791326031088
1772614482981703700,7.18170361328125,-0.052929626154899594,-0.08571545894742011,-0.18337710228161885
1772614482991770600,7.1917705078125,-0.028375030612945554,-0.011177812096476555,-0.11824806589754297
1772614483001837800,7.201837890625,-0.028267478585243224,0.04636895246505737,-0.05247905567607376
1772614483011904800,7.21190478515625,-0.00044102176576852795,0.03388298037946224,-0.05737544941550586
1772614483021971700,7.2219716796875,0.027210078486800193,0.05299216999709606,-0.06604648458913434
1772614483032038700,7.23203857421875,0.026084873849153516,0.10014029014110565,-0.027041101428330876
1772614483042105600,7.242105712890625,0.021205577374994754,0.11593991681933402,0.02366010808737483
1772614483052172500,7.252172607421875,0.03190232795625925,0.07141863804757595,-0.027244300416810436
1772614483062239700,7.26223974609375,0.04455401199758052,0.012053425887227057,-0.1332912481852807
1772614483072306200,7.27230615234375,0.074437985868752,-0.012921440893411636,-0.1733431447243318
1772614483082373000,7.282373046875,0.0830406867802143,0.0013408932149410247,-0.10861218601344153
1772614483092440000,7.292440185546875,0.07326338913142681,-0.055958618587255475,-0.09099170971675775
1772614483102507000,7.302507080078125,0.056198564822971815,-0.053093876805901524,-0.10546770484209991
1772614483112573200,7.3125732421875,0.04924216981381178,0.01214227321445942,-0.0752534167377511
1772614483122640100,7.32264013671875,-0.008479074531793593,0.04559036930799484,-0.06611712953939568
1772614483132707000,7.33270703125,-0.05019026431888342,0.05097089330255985,-0.09939031202401966
1772614483142774000,7.34277392578125,-0.023726912546157837,0.06161854404509067,-0.08267017296738922
1772614483152841200,7.35284130859375,0.014145429730415344,0.058922144567966454,-0.05819362479744013
1772614483162908200,7.362908203125,0.0884083512932062,0.009887187764048577,-0.0688338411521865
1772614483172975400,7.372975341796875,0.1408560391500592,-0.03439092990159988,-0.09988291784655302
1772614483183042300,7.383042236328125,0.13259382223933935,-0.066079030585289,-0.08423037148881703
1772614483193109200,7.393109130859375,0.11086422099024057,-0.07194996844530105,-0.07074808184225112
1772614483203176200,7.40317626953125,0.10447598125785588,-0.02932254059612751,-0.019261069410829803
1772614483213243100,7.4132431640625,0.027665713299810886,-0.0040057285100221635,0.051207222809083755
1772614483223310300,7.423310302734375,0.018708499862253664,0.042163901990652085,0.005780556162819266
1772614483233377300,7.433377197265625,0.05410246932655573,0.020810732838511467,-0.035737508505233564
1772614483243444200,7.4434443359375,0.06075637425780296,-0.004174655336141586,-0.026241589647671208
1772614483253511200,7.45351123046875,0.06887479878365993,-0.013209025663137435,-0.030995250448165458
1772614483263577300,7.463577392578125,0.08052519682794809,-0.03312602453231811,-0.046189581876737065
1772614483273644300,7.473644287109375,0.028031039480865,-0.0500537784576416,-0.056601647464837875
1772614483283711200,7.483711181640625,0.013118717031180858,-0.03803483936190605,-0.08069437938239425
1772614483293778200,7.493778076171875,-0.027263854500651358,0.0025800796210765837,-0.06276591484877281
1772614483303845000,7.50384521484375,-0.08392740648686885,0.03494154952168464,-0.025547081744601016
1772614483313912000,7.513912109375,-0.11369301467537879,0.01511807415485382,-0.06431459646234289
1772614483323979300,7.523979248046875,-0.11073036547750234,0.0009720599025487899,-0.07717924740090966
1772614483334046200,7.534046142578125,-0.07348404614478349,0.05213467638492584,-0.044880398974311536
1772614483344113200,7.544113037109375,-0.018691840988397598,0.03822831610739231,-0.049845227440609596
1772614483354180000,7.55418017578125,0.025017536878585815,0.03655599898099899,-0.05442343120949808
1772614483364247000,7.5642470703125,0.03294219239801168,0.10114566779136658,0.0022888324563857167
1772614483374314200,7.574314208984375,0.04848667527139187,0.14833938064277172,0.016465168781718238
1772614483384381200,7.584381103515625,0.04565846610814333,0.1369680918008089,-0.054377418376994315
1772614483394448400,7.594448486328125,0.034167350278794764,0.09352934756875038,-0.14411264805952087
1772614483404515300,7.604515380859375,0.06021539924889802,0.0884480987817049,-0.1188845554364845
1772614483414582300,7.614582275390625,0.06910948432236909,0.09372574692368507,-0.04384662634662818
1772614483424648200,7.624648193359375,0.061902621683478355,0.014392097967863083,-0.0737901712181978
1772614483434715400,7.63471533203125,0.04673603221178055,-0.051447863164544104,-0.1704419616564177
1772614483444782300,7.6447822265625,0.0307367913082242,-0.051315176695585246,-0.15858816826082764
1772614483454849300,7.654849365234375,0.02531564304232597,-0.02324526650905609,-0.0804510356131941
1772614483464916200,7.664916259765625,0.022966157306730746,-0.023600071296095846,-0.03275957953983452
1772614483474983200,7.674983154296875,0.01148819321990013,-0.023413608813285827,-0.05587866238595452
1772614483485050000,7.685050048828125,0.041807635898888106,0.003588379880785942,-0.057016064351471135
1772614483495117300,7.695117431640625,0.05831745667308569,0.02426175007522106,-0.03582739244550466
1772614483505184300,7.705184326171875,0.06086597211211919,0.013861352092027664,-0.03012618512921035
1772614483515251200,7.715251220703125,0.05755933178216219,0.0037643209695816036,-0.04625064614790026
1772614483525318100,7.725318115234375,0.05132540582865476,0.023213117805123328,-0.028272981310845352
1772614483535385000,7.735385009765625,0.034056875641644,0.01285889705121517,-0.02486612287627067
1772614483545452000,7.7454521484375,0.03859510359317064,-0.035039164677262306,-0.0623914600797696
1772614483555519200,7.755519287109375,0.01499210968762636,-0.04247077598273754,-0.12425314239808358
1772614483565586200,7.765586181640625,0.022593816863000393,-0.024432430467009544,-0.023719149364810437
1772614483575653400,7.7756533203125,-0.0014247721061110496,-0.006621463966369629,-0.03587541457200423
1772614483585720300,7.78572021484375,-0.0014607202023267745,-0.050455344995856286,-0.05598814607583917
1772614483595786000,7.795785888671875,0.008905190989375113,-0.041567105141282076,-0.11621760124955326
1772614483605853200,7.805853271484375,0.002424012276530266,-0.03517944993078709,-0.09781194765823893
1772614483615920400,7.81592041015625,-0.027817396730184553,-0.040323827081918714,-0.06307569775057491
1772614483625987300,7.8259873046875,-0.040572248885035515,0.0237590612500906,0.0026953308980446305
1772614483636054300,7.83605419921875,-0.04217325434088707,0.0882470232516527,0.030701158305839634
1772614483646121200,7.846121337890625,-0.04266542177200317,0.08800269310176372,0.0412077520432882
1772614483656188200,7.856188232421875,-0.02177402491271496,0.09653379008173942,0.017184633029531687
1772614483666255400,7.86625537109375,0.010738251635432242,0.1258311962366104,0.004068190153827891
1772614483676322300,7.876322265625,0.04377192170917987,0.10902794547379016,-0.013580407125642522
1772614483686389200,7.88638916015625,0.06425181515812874,0.07568740140795707,-0.03936061720610596
1772614483696456200,7.896456298828125,0.07930266929566859,0.03799567639529705,-0.045988647910580036
1772614483706523100,7.906523193359375,0.023753800553083418,-0.03450549619197845,-0.09111526303119026
1772614483716590000,7.916590087890625,-0.01589490374624729,-0.053983519122004504,-0.09931722852149978
1772614483726657300,7.9266572265625,-0.05883563532829284,-0.009877250891923903,-0.052075982167362235
1772614483736724200,7.93672412109375,-0.11248393114656209,0.012232289585471153,-0.016501779031637125
1772614483746791200,7.946791259765625,-0.13312778298556804,0.015083587363362311,0.013499537608888931
1772614483756857000,7.956857177734375,-0.09379588955044746,0.048158173969388006,-0.0015009882806334644
1772614483766924000,7.966924072265625,-0.04261281480193138,0.05912263557612896,0.005233882065489888
1772614483776991200,7.9769912109375,0.004433014011383057,0.09606266543865204,0.06875775740840472
1772614483787058200,7.98705810546875,0.021123159788548944,0.1493026727169752,0.1383512532548979
1772614483797125000,7.997125,-0.0049205052673816675,0.10172142185270786,0.08739291803981176
1772614483807192000,8.007192138671876,-0.030303952848911284,0.012677110743522643,-0.02050648006177507
1772614483817259300,8.01725927734375,-0.06331190395951271,-0.045298692885041236,-0.12568581468285991
1772614483827326200,8.027326171875,-0.11923428218960762,-0.08612871592342854,-0.14791979439067654
1772614483837393400,8.037393310546875,-0.10615940430015325,-0.05880114853680134,-0.14902506135199217
1772614483847460400,8.04746044921875,-0.07359919695705175,-0.0389303268969059,-0.0888703975806944
1772614483857527300,8.05752734375,-0.024282500602304934,0.001295300507545471,-0.0015307075654622166
1772614483867594200,8.06759423828125,0.057063657219707964,0.023635142609477043,-0.0032679979531560093
1772614483877661200,8.0776611328125,0.09365648107975721,0.03423018638193607,-0.0020118421459104866
1772614483887728000,8.08772802734375,0.0938420667797327,0.02754384048581123,-0.00907245558137074
1772614483897795300,8.09779541015625,0.0869730577930808,-0.0006634323447942734,-0.03779288383219391
1772614483907862300,8.1078623046875,0.09631137950271368,-0.02382394317984581,-0.05622941661896184
1772614483917928200,8.11792822265625,0.08001432469636201,-0.02776128262877464,-0.036475006166659295
1772614483927995100,8.1279951171875,0.0649678544729948,-0.03545592878460884,-0.05293643948817625
1772614483938062000,8.13806201171875,0.008588964647054671,-0.053825698211789126,-0.057222564975311974
1772614483948129300,8.14812939453125,-0.035134441745281214,-0.04954582893550396,-0.0875681558757089
1772614483958196200,8.1581962890625,-0.024903262849152088,-0.0014203881919384001,-0.07846349679147824
1772614483968263200,8.16826318359375,-0.004086684791743755,0.0363420639693737,-0.034857392069301565
1772614483978330000,8.178330078125,0.026587854935228823,0.05730243441164493,0.0061420555521268395
1772614483988397000,8.18839697265625,0.051726680105924606,0.08795359326303005,0.01203241049866192
1772614483998464000,8.198464111328125,0.057220309086143964,0.07343757665455342,-0.04373650333592668
1772614484008531200,8.20853125,0.03591799333840608,0.059225511428713795,-0.08979863660782575
1772614484018598100,8.21859814453125,-0.0048149990662932395,0.07572773341834545,-0.060216202966496345
1772614484028665300,8.228665283203124,-0.03738485102057457,0.08574936121702194,-0.03478588860251475
1772614484038732300,8.238732177734375,-0.021534955459833145,0.09278583572506904,-0.034225482807355
1772614484048799200,8.24879931640625,-0.01544394510835409,0.0873591345012188,-0.04384180404103827
1772614484058866200,8.2588662109375,-0.03067395520508289,0.04100888673663139,-0.09486073316982947
1772614484068933400,8.268933349609375,-0.01502484291344881,0.03539455398619175,-0.11457350557064637
1772614484079000300,8.279000244140626,-0.0038370939448475836,0.01745733075737953,-0.09336422013491391
1772614484089066200,8.289066162109375,-0.037109248949587344,-0.021865210327506063,-0.07138367633204906
1772614484099133200,8.29913330078125,-0.04087532348483801,-0.030814240458607672,-0.03730958469412289
1772614484109200100,8.3092001953125,-0.023008535143733022,-0.01814531302154064,-0.02286197541304864
1772614484119267300,8.319267333984374,-0.017118892583251,0.012919687327742575,-0.020640764832776038
1772614484129334300,8.329334228515625,-0.017452362321317194,0.010223287850618362,-0.027615709278779103
1772614484139401500,8.3394013671875,-0.003093289840221405,0.012936638462543486,-0.05095828954931348
1772614484149468400,8.349468505859376,0.009568623334169387,-0.0005471124887466431,-0.07035660743978805
1772614484159535400,8.359535400390625,0.017815350414812563,-0.02588029118776321,-0.07617225774887483
1772614484169602300,8.369602294921876,0.048154374577105044,0.009506079491972923,-0.05156711476319469
1772614484179669500,8.37966943359375,0.03743658120781183,0.036572365593910215,-0.00021662015905603765
1772614484189736400,8.389736328125,0.047691140979528424,0.035139702442288395,-0.002931747169536538
1772614484199803400,8.399803466796875,0.046346156111359595,0.04679156179130077,-0.003999686928302981
1772614484209870300,8.409870361328124,0.04841857847124338,0.08379355097413063,-0.028678260476374996
1772614484219937300,8.419937255859375,0.047923196169734,0.07960603615641594,-0.0884327824815642
1772614484230004200,8.430004150390625,0.050753743420541286,0.08538345051407814,-0.08618177955122663
1772614484240071400,8.440071533203126,0.06263152047991752,0.08231704868078231,-0.06253376832702197
1772614484250137300,8.450137451171875,0.11051759950965642,0.07898527390956878,-0.06246345217032358
1772614484260204300,8.460204345703126,0.0848842688202858,0.07254618077278137,-0.0684030348197557
1772614484270271200,8.470271240234375,0.023306641307473182,0.041781624674797055,-0.08494051078585907
1772614484280338200,8.480338134765624,-0.01091477724611759,-0.009909399595856665,-0.12674227406638675
1772614484290405400,8.4904052734375,-0.045836745284497736,0.004616553884744644,-0.1236946865314152
1772614484300472300,8.500472412109374,-0.08816022175103426,-0.02511222942471504,-0.10780426716404035
1772614484310539300,8.510539306640625,-0.11765899569690227,-0.034761516779661175,-0.1146897888940759
1772614484320606200,8.520606201171875,-0.2427835049688816,0.025763971331715582,-0.06668482359186746
1772614484330673200,8.530673095703126,-0.059927814479172226,0.010636544826626777,-0.0777343331335578
1772614484340740000,8.540739990234375,0.24523703560084104,-0.04646422953307628,-0.13138904955945907
1772614484350807600,8.5508076171875,0.3514411558255553,-0.15254793824851512,-0.04147101522251032
1772614484360874500,8.56087451171875,0.3402127825856209,-0.14318623566329478,0.06198623571316711
1772614484370941400,8.57094140625,0.27913199867904187,-0.053096799415349956,-0.0007907759183552116
1772614484381008400,8.58100830078125,0.1672048246324062,-0.013774258330464362,-0.0702183406134136
1772614484391075300,8.591075439453125,0.045641222712397574,0.03628770343363285,-0.07711884985002689
1772614484401142300,8.601142333984376,-0.007587678650021553,0.09125321933031082,-0.07404976286930032
1772614484411208400,8.61120849609375,-0.03062076371312141,0.07865501904189587,-0.06746228337092325
1772614484421275400,8.621275390625,-0.02512362760156393,0.013773089286684989,-0.0697849906974472
1772614484431342300,8.63134228515625,-0.038541912101209164,-0.040542438268661496,-0.09603596009481698
1772614484441409300,8.6414091796875,-0.030649405285716056,-0.059119128444790836,-0.10348480566288344
1772614484451476200,8.651476318359375,-0.14591332253962755,-0.04333177672624588,-0.07089897982133551
