time,seconds_elapsed,z,y,x
1772614475864383000,0.064383056640625,0.037784043699502945,-0.09830886870622635,-0.007265956606715918
1772614475874450000,0.074449951171875,0.06952821463346481,-0.07470831274986267,-0.02725042775273323
1772614475884516900,0.084516845703125,0.057875826954841614,-0.06189984455704689,-0.0494992733001709
1772614475894584000,0.094583984375,0.02997341752052307,-0.045085471123456955,-0.07468156516551971
1772614475904651000,0.104651123046875,0.016098348423838615,-0.044005025178194046,-0.07789280265569687
1772614475914718000,0.114718017578125,0.014645065180957317,-0.027914077043533325,-0.06564674526453018
1772614475924785000,0.124784912109375,0.00876107718795538,-0.030203331261873245,-0.05064728856086731
1772614475934850800,0.134850830078125,0.00599831435829401,-0.04418838769197464,-0.03199264034628868
1772614475944918000,0.14491796875,0.005294173955917358,-0.060705043375492096,-0.018654730170965195
1772614475954985000,0.15498486328125,-0.005562303587794304,-0.08434474468231201,-0.0017593554221093655
1772614475965052000,0.165052001953125,-0.019473059102892876,-0.09865684062242508,0.01180252619087696
1772614475975118800,0.175118896484375,-0.021517805755138397,-0.11588836461305618,0.01728956401348114
1772614475985185800,0.185185791015625,-0.011820702813565731,-0.11975527554750443,0.014090575277805328
1772614475995252700,0.195252685546875,0.0034386147744953632,-0.11011407524347305,0.002712719142436981
1772614476005320000,0.20531982421875,0.02212335355579853,-0.08957923948764801,-0.024141531437635422
1772614476015387000,0.215386962890625,0.028678225353360176,-0.07102760672569275,-0.05590381473302841
1772614476025453800,0.225453857421875,0.031125934794545174,-0.05639673396945,-0.09314466267824173
1772614476035520800,0.235520751953125,0.041741788387298584,-0.027705879881978035,-0.12193844467401505
1772614476045588000,0.245587890625,0.0505794882774353,-0.01401376910507679,-0.14322242140769958
1772614476055655000,0.255655029296875,0.08032660186290741,-0.03434893488883972,-0.14255888760089874
1772614476065721300,0.265721435546875,0.055571187287569046,-0.04834651201963425,-0.12119872868061066
1772614476075787300,0.275787353515625,-0.0048510124906897545,-0.1067919135093689,-0.09834017604589462
1772614476085854200,0.285854248046875,-0.05002381652593613,-0.14975668489933014,-0.0717698186635971
1772614476095921200,0.295921142578125,-0.04532746225595474,-0.1491391807794571,-0.031097596511244774
1772614476105988400,0.30598828125,-0.005321723408997059,-0.11201709508895874,-0.0026920554228127003
1772614476116055300,0.31605517578125,0.032691411674022675,-0.06863758713006973,0.0017648834036663175
1772614476126122200,0.326122314453125,0.045821595937013626,-0.027813727036118507,-0.01207849383354187
1772614476136189200,0.336189208984375,0.045952316373586655,0.009359562769532204,-0.032674532383680344
1772614476146256100,0.346256103515625,0.044757623225450516,0.02473905123770237,-0.03807835280895233
1772614476156323000,0.356322998046875,0.03602365404367447,0.007496346719563007,-0.03406428173184395
1772614476166390300,0.366390380859375,0.01527203619480133,-0.01820582151412964,-0.01908266916871071
1772614476176457200,0.376457275390625,-0.0019644873682409525,-0.037771791219711304,-0.005345367360860109
1772614476186524400,0.3865244140625,-0.026308976113796234,-0.06875979900360107,0.00411418080329895
1772614476196591400,0.39659130859375,-0.03730734810233116,-0.08442822098731995,0.010265599004924297
1772614476206658300,0.406658203125,-0.019802391529083252,-0.0653325542807579,0.010268528945744038
1772614476216724500,0.416724365234375,-0.002376993652433157,-0.01674654521048069,0.004981167148798704
1772614476226791400,0.42679150390625,0.015438488684594631,0.024336975067853928,-0.01608869805932045
1772614476236858400,0.4368583984375,0.017137376591563225,0.04879475384950638,-0.03344080224633217
1772614476246925300,0.44692529296875,0.01782207563519478,0.06185835972428322,-0.04414378106594086
1772614476256992300,0.4569921875,0.03653993830084801,0.05829998850822449,-0.04620162025094032
1772614476267059200,0.46705908203125,0.04030404984951019,0.03504340350627899,-0.040487274527549744
1772614476277126400,0.47712646484375,0.02582031488418579,0.015297730453312397,-0.03422660753130913
1772614476287193300,0.487193359375,0.03213333711028099,0.007926899939775467,-0.03319250047206879
1772614476297260300,0.49726025390625,0.06384118646383286,0.003921110183000565,-0.0351899117231369
1772614476307327200,0.5073271484375,0.07780574262142181,-0.008243942633271217,-0.025838486850261688
1772614476317394200,0.517394287109375,0.05069455876946449,-0.026473311707377434,-0.01829744130373001
1772614476327461000,0.527461181640625,0.010052589699625969,-0.0423918254673481,-0.007338533643633127
1772614476337528300,0.5375283203125,-0.009994279593229294,-0.04067172855138779,0.0010563969844952226
1772614476347595300,0.54759521484375,-0.000492120801936835,-0.008645616471767426,0.0059550148434937
1772614476357661200,0.5576611328125,0.03220024332404137,0.034074317663908005,-0.008119069039821625
1772614476367728000,0.56772802734375,0.057410791516304016,0.04554801434278488,-0.031105078756809235
1772614476377795300,0.57779541015625,0.059736959636211395,0.02187902294099331,-0.04245492070913315
1772614476387862300,0.5878623046875,0.05036795884370804,0.002141802804544568,-0.04289833456277847
1772614476397929200,0.59792919921875,0.05428248643875122,-0.006458183750510216,-0.04472818970680237
1772614476407996200,0.60799609375,0.0721493661403656,-0.024926939979195595,-0.03840850666165352
1772614476418063000,0.61806298828125,0.06860745698213577,-0.0754484161734581,-0.012787892483174801
1772614476428130300,0.62813037109375,0.04826650023460388,-0.10684175789356232,0.02660052664577961
1772614476438197200,0.638197265625,0.02297213114798069,-0.08481412380933762,0.04942149296402931
1772614476448264400,0.648264404296875,0.016811173409223557,-0.07015741616487503,0.0420040600001812
1772614476458331400,0.658331298828125,0.019982563331723213,-0.05897611379623413,0.03068716451525688
1772614476468398300,0.6683984375,0.026590663939714432,-0.020960289984941483,0.00826201681047678
1772614476478465300,0.67846533203125,0.04645093157887459,0.011883934028446674,-0.021646792069077492
1772614476488532200,0.6885322265625,0.05669158697128296,0.008947267197072506,-0.04576171934604645
1772614476498598400,0.698598388671875,0.04358745738863945,-0.02245384082198143,-0.05196847394108772
1772614476508665300,0.708665283203125,0.020134594291448593,-0.05253264680504799,-0.046081289649009705
1772614476518732300,0.718732177734375,0.004814606159925461,-0.06881054490804672,-0.031587760895490646
1772614476528799200,0.72879931640625,0.002893401775509119,-0.06008177250623703,-0.01897822692990303
1772614476538866200,0.7388662109375,-0.0030062065925449133,-0.03446493297815323,-0.021313926205039024
1772614476548933400,0.748933349609375,-0.0004746057093143463,-0.017106449231505394,-0.028602996841073036
1772614476559000300,0.759000244140625,0.012676985003054142,0.0014436815399676561,-0.028399549424648285
1772614476569067300,0.7690673828125,0.03019952028989792,0.018659420311450958,-0.025885524228215218
1772614476579134200,0.77913427734375,0.03599493205547333,0.00040505966171622276,-0.009828499518334866
1772614476589201200,0.789201171875,0.02680729143321514,-0.017445577308535576,0.022926783189177513
1772614476599268000,0.79926806640625,-0.0047116950154304504,-0.04128315672278404,0.06083420664072037
1772614476609335300,0.809335205078125,-0.028498250991106033,-0.05830608308315277,0.0988665446639061
1772614476619402200,0.81940234375,-0.025673141703009605,-0.04653046280145645,0.1198587715625763
1772614476629469400,0.829469482421875,-0.007898938842117786,-0.01913532428443432,0.09285937994718552
1772614476639536400,0.839536376953125,0.016023574396967888,0.008958026766777039,0.053219448775053024
1772614476649602000,0.84960205078125,0.028572123497724533,0.03431078791618347,0.002007127273827791
1772614476659669200,0.859669189453125,0.030575482174754143,0.059712085872888565,-0.046088650822639465
1772614476669736400,0.869736328125,0.020968396216630936,0.04266386106610298,-0.08487998694181442
1772614476679803400,0.879803466796875,0.00640410091727972,0.015771260485053062,-0.09488148987293243
1772614476689870300,0.889870361328125,0.0023284940980374813,-0.0025731069035828114,-0.07786954194307327
1772614476699937300,0.899937255859375,0.013084701262414455,-0.012601821683347225,-0.03886265680193901
1772614476710004200,0.910004150390625,0.016070637851953506,-0.009817221201956272,-0.003874579444527626
1772614476720071400,0.920071533203125,0.01316424086689949,-0.025879699736833572,0.035176780074834824
1772614476730138400,0.930138427734375,0.0024402239359915257,-0.03869855776429176,0.06437381356954575
1772614476740205300,0.940205322265625,-0.0038233608938753605,-0.01766466721892357,0.084501251578331
1772614476750272300,0.950272216796875,0.008277511224150658,0.008187969215214252,0.07703454792499542
1772614476760339200,0.960339111328125,0.022768719121813774,0.01893128827214241,0.04061122238636017
1772614476770406100,0.97040625,0.0178179033100605,0.01634828746318817,-0.0030616875737905502
1772614476780473300,0.980473388671875,0.013016236945986748,0.009563876315951347,-0.0385490283370018
1772614476790540300,0.990540283203125,0.008706177584826946,-0.010655108839273453,-0.05732537806034088
1772614476800606200,1.000606201171875,0.00035676511470228434,-0.0376560315489769,-0.06005128100514412
1772614476810673200,1.010673095703125,-0.006032957229763269,-0.045827675610780716,-0.05341814458370209
1772614476820740000,1.020739990234375,-0.0005630566738545895,-0.03793720901012421,-0.05263793468475342
1772614476830807300,1.030807373046875,0.007886887528002262,-0.03195361793041229,-0.056291256099939346
1772614476840874200,1.040874267578125,0.015066555701196194,-0.027976348996162415,-0.05993898957967758
1772614476850941200,1.050941162109375,0.019689273089170456,-0.019663291051983833,-0.06114300712943077
1772614476861008100,1.061008056640625,0.020527949556708336,-0.023680096492171288,-0.053613729774951935
1772614476871075300,1.071075439453125,0.022388966754078865,-0.030087130144238472,-0.036882154643535614
1772614476881142300,1.081142333984375,0.017797883599996567,-0.05518672987818718,-0.009376215748488903
1772614476891209500,1.09120947265625,0.004292195662856102,-0.07246292382478714,0.010620394721627235
1772614476901276400,1.1012763671875,-0.010936997830867767,-0.08258357644081116,0.009753162041306496
1772614476911343400,1.11134326171875,-0.01564280316233635,-0.07602634280920029,-0.009153150953352451
1772614476921410300,1.121410400390625,-0.01663902960717678,-0.07162842899560928,-0.0287633016705513
1772614476931477200,1.131477294921875,-0.005604222416877747,-0.05824285000562668,-0.0555507093667984
1772614476941543400,1.14154345703125,0.003929168917238712,-0.057221028953790665,-0.06605276465415955
1772614476951610400,1.1516103515625,0.006669295486062765,-0.06406509131193161,-0.06732308864593506
1772614476961677300,1.16167724609375,0.006160864140838385,-0.06074311211705208,-0.06464172154664993
1772614476971744300,1.171744140625,0.00500345416367054,-0.06298016756772995,-0.05875614285469055
1772614476981811200,1.181811279296875,0.006490461062639952,-0.06680993735790253,-0.051195673644542694
1772614476991878100,1.191878173828125,0.015573438256978989,-0.06783179193735123,-0.04268660768866539
1772614477001945300,1.2019453125,0.01571117900311947,-0.06660796701908112,-0.029144972562789917
1772614477012012300,1.21201220703125,0.00010372349061071873,-0.0688847005367279,-0.0052713314071297646
1772614477022079200,1.222079345703125,-0.010711530223488808,-0.06496372073888779,0.018643077462911606
1772614477032146200,1.232146240234375,0.00007959816139191389,-0.04512929543852806,0.030505863949656487
1772614477042213000,1.242213134765625,0.01414918527007103,-0.01867823489010334,0.03482021018862724
1772614477052280000,1.252280029296875,0.03027861751616001,0.0047623757272958755,0.02301015704870224
1772614477062347300,1.26234716796875,0.03531242161989212,0.0025530061684548855,-0.0011788301635533571
1772614477072414700,1.272414794921875,0.02687259577214718,-0.0056599159725010395,-0.02393314428627491
1772614477082481700,1.282481689453125,0.012129412963986397,-0.021214816719293594,-0.04272850230336189
1772614477092547600,1.292547607421875,0.005286687053740025,-0.03297480195760727,-0.0514274500310421
1772614477102614500,1.302614501953125,0.008015217259526253,-0.027888886630535126,-0.04482359066605568
1772614477112681700,1.312681640625,0.017242539674043655,-0.02581881172955036,-0.028951948508620262
1772614477122748700,1.322748779296875,0.020984550938010216,-0.030716771259903908,-0.007661264389753342
1772614477132815600,1.332815673828125,0.02570260688662529,-0.02524637058377266,0.017338627949357033
1772614477142882600,1.342882568359375,0.02418380230665207,-0.020595287904143333,0.039873719215393066
1772614477152949800,1.35294970703125,0.03192773833870888,-0.009577525779604912,0.05152265354990959
1772614477163016700,1.3630166015625,0.044370029121637344,-0.00014487490989267826,0.05163051187992096
1772614477173084000,1.373083984375,0.04489174112677574,0.006296246312558651,0.03656900301575661
1772614477183150800,1.38315087890625,0.03479570522904396,0.003922433592379093,0.017937839031219482
1772614477193217800,1.3932177734375,0.022846898064017296,-0.0016710034105926752,-0.01526032853871584
1772614477203284700,1.40328466796875,0.017622604966163635,-0.013156231492757797,-0.035507682710886
1772614477213351700,1.4133515625,0.017073195427656174,-0.02521156333386898,-0.04621785134077072
1772614477223418600,1.423418701171875,0.020388036966323853,-0.028227463364601135,-0.0438300184905529
1772614477233484800,1.43348486328125,0.03350383788347244,-0.024691317230463028,-0.027821222320199013
1772614477243551700,1.4435517578125,0.033511094748973846,0.0022156331688165665,-0.0166417695581913
1772614477253618700,1.45361865234375,0.023445673286914825,0.004218596499413252,-0.011713857762515545
1772614477263685600,1.463685546875,0.0010173310292884707,-0.03623375669121742,-0.002661506412550807
1772614477273752600,1.473752685546875,-0.027402326464653015,-0.06942259520292282,0.021489102393388748
1772614477283819800,1.48381982421875,-0.029354238882660866,-0.061135999858379364,0.03767590969800949
1772614477293886700,1.49388671875,-0.005367946811020374,-0.049236997961997986,0.04316095635294914
1772614477303953700,1.50395361328125,0.016460804268717766,-0.04553474485874176,0.03012421354651451
1772614477314020600,1.5140205078125,0.024354146793484688,-0.03969762846827507,0.019755730405449867
1772614477324087600,1.524087646484375,0.016581416130065918,-0.034906789660453796,0.012607144191861153
1772614477334154500,1.534154541015625,0.005354061722755432,-0.029770085588097572,0.006405441090464592
1772614477344221700,1.5442216796875,0.0026857955381274223,-0.0189619529992342,-0.013363726437091827
1772614477354288600,1.55428857421875,0.00691382959485054,-0.016764845699071884,-0.036213915795087814
1772614477364355800,1.56435595703125,0.014838105998933315,-0.013308947905898094,-0.059274278581142426
1772614477374422800,1.5744228515625,0.02674083784222603,-0.020851552486419678,-0.0627068281173706
1772614477384488700,1.58448876953125,0.01785486564040184,-0.053334761410951614,-0.04516972601413727
1772614477394556000,1.594555908203125,-0.001982221147045493,-0.07188288122415543,-0.008742474019527435
1772614477404622800,1.604622802734375,-0.0031557120382785797,-0.07457494735717773,0.02172091230750084
1772614477414689800,1.614689697265625,0.005445233080536127,-0.05991451442241669,0.040465835481882095
1772614477424756700,1.6247568359375,0.008488256484270096,-0.04382101073861122,0.0457172654569149
1772614477434823700,1.63482373046875,0.0074562812224030495,-0.03750692307949066,0.03744202479720116
1772614477444890600,1.644890625,0.00689928513020277,-0.03683561086654663,0.02448350191116333
1772614477454957800,1.654957763671875,0.004641989711672068,-0.04410577192902565,0.008180695585906506
1772614477465024800,1.665024658203125,0.0005128696793690324,-0.048056963831186295,-0.0047563365660607815
1772614477475091700,1.675091796875,-0.001999023836106062,-0.04707159474492073,-0.013534115627408028
1772614477485158700,1.68515869140625,0.006234967149794102,-0.043323274701833725,-0.02605590783059597
1772614477495225600,1.6952255859375,0.007055221125483513,-0.04141698405146599,-0.03562996909022331
1772614477505292500,1.70529248046875,-0.011102790012955666,-0.047292228788137436,-0.04487885162234306
1772614477515359700,1.71535986328125,-0.034812115132808685,-0.056976281106472015,-0.03999754413962364
1772614477525425700,1.72542578125,-0.033677395433187485,-0.0673760324716568,-0.032670650631189346
1772614477535492600,1.73549267578125,-0.017015863209962845,-0.05285407975316048,-0.025133104994893074
1772614477545559600,1.7455595703125,-0.0000933036208152771,-0.031043807044625282,-0.01927158050239086
1772614477555626800,1.755626708984375,0.0006265487754717469,-0.014289593324065208,-0.014358848333358765
1772614477565693700,1.765693603515625,-0.00033455737866461277,-0.001154429977759719,-0.008701899088919163
1772614477575760600,1.7757607421875,0.0011181969894096255,-0.0026018579956144094,0.0019265104783698916
1772614477585827600,1.78582763671875,-0.0068380036391317844,-0.021944524720311165,0.018098514527082443
1772614477595894800,1.795894775390625,-0.021764755249023438,-0.025430869311094284,0.025698645040392876
1772614477605961700,1.805961669921875,-0.021891050040721893,-0.016793143004179,0.015925340354442596
1772614477616028700,1.816028564453125,-0.007278285454958677,-0.016870642080903053,-0.008587726391851902
1772614477626095900,1.826095947265625,0.007285947445780039,-0.024870747700333595,-0.023039404302835464
1772614477636162800,1.836162841796875,0.011292407289147377,-0.015152606181800365,-0.02510841377079487
1772614477646229800,1.846229736328125,0.016427965834736824,-0.011127594858407974,-0.020530330017209053
1772614477656296700,1.856296630859375,0.023654187098145485,-0.008992006070911884,-0.011728583835065365
1772614477666363000,1.86636279296875,0.019275950267910957,-0.005567979998886585,-0.0051684193313121796
1772614477676429800,1.876429931640625,0.009391359984874725,-0.013989959843456745,0.0003781464183703065
1772614477686496800,1.886496826171875,0.002198743401095271,-0.036605216562747955,0.012052364647388458
1772614477696563700,1.896563720703125,-0.002388551365584135,-0.04699607193470001,0.025627294555306435
1772614477706630700,1.906630615234375,-0.003265544306486845,-0.04612201452255249,0.0327003039419651
1772614477716697600,1.916697509765625,-0.005763589404523373,-0.04219811409711838,0.024103621020913124
1772614477726764800,1.926764892578125,-0.011042971163988113,-0.029717644676566124,0.0018865418387576938
1772614477736831700,1.936831787109375,-0.010078374296426773,-0.01999950222671032,-0.028470564633607864
1772614477746898700,1.946898681640625,-0.005012775771319866,-0.012873947620391846,-0.04819686710834503
1772614477756965600,1.956965576171875,0.009872430004179478,-0.011766338720917702,-0.057835910469293594
1772614477767032600,1.967032470703125,0.015967193990945816,-0.022485824301838875,-0.04804229363799095
1772614477777099500,1.977099609375,0.015821784734725952,-0.053956933319568634,-0.02599344775080681
1772614477787166700,1.987166748046875,-0.004150901455432177,-0.08919059485197067,0.00037558015901595354
1772614477797233700,1.997233642578125,-0.018015317618846893,-0.10127388685941696,0.018265098333358765
1772614477807300900,2.00730078125,-0.02298814244568348,-0.09774038940668106,0.01312487293034792
1772614477817366500,2.017366455078125,-0.022416628897190094,-0.07960958778858185,-0.004873302765190601
1772614477827433500,2.02743359375,-0.01955040544271469,-0.05810263007879257,-0.04522993415594101
1772614477837501000,2.0375009765625,-0.005981599912047386,-0.044215574860572815,-0.08555711805820465
1772614477847568000,2.04756787109375,0.002285029971972108,-0.03514980152249336,-0.11931418627500534
1772614477857634800,2.057634765625,0.0010663673747330904,-0.03898049145936966,-0.13318204879760742
1772614477867701800,2.06770166015625,-0.0038652971852570772,-0.04762896150350571,-0.13413025438785553
1772614477877768700,2.077768798828125,-0.005619254894554615,-0.05865657702088356,-0.11911961436271667
1772614477887835600,2.087835693359375,-0.013404430821537971,-0.07784154266119003,-0.0966322124004364
1772614477897902800,2.09790283203125,-0.01869293488562107,-0.07600688934326172,-0.05632100999355316
1772614477907969800,2.1079697265625,-0.018513288348913193,-0.05543564632534981,-0.028203118592500687
1772614477918036700,2.11803662109375,-0.007460105698555708,-0.015725255012512207,-0.010042491368949413
1772614477928103700,2.128103759765625,0.005362470168620348,0.020700406283140182,-0.008858532644808292
1772614477938170600,2.138170654296875,0.02094169519841671,0.032082490622997284,-0.010550705716013908
1772614477948237600,2.148237548828125,0.035522207617759705,0.029626604169607162,-0.006319073960185051
1772614477958303700,2.1583037109375,0.03330858796834946,0.005434980150312185,0.007426565978676081
1772614477968370700,2.16837060546875,0.013501390814781189,-0.02234155312180519,0.02603597193956375
1772614477978437600,2.178437744140625,-0.008350378833711147,-0.058941639959812164,0.040262844413518906
1772614477988504600,2.188504638671875,-0.01759360171854496,-0.1039578914642334,0.04514453932642937
1772614477998571500,2.198571533203125,-0.015610347501933575,-0.1001192107796669,0.04664948955178261
1772614478008638700,2.208638671875,-0.005810324102640152,-0.06251037120819092,0.03106820583343506
1772614478018705700,2.21870556640625,0.015070457011461258,-0.020076900720596313,0.004542588721960783
1772614478028772600,2.228772705078125,0.0292513370513916,0.014986102469265461,-0.023541616275906563
1772614478038839600,2.238839599609375,0.04586520045995712,0.03271156921982765,-0.03314497321844101
1772614478048906800,2.24890673828125,0.06308982521295547,0.03372971713542938,-0.017869142815470695
1772614478058973700,2.2589736328125,0.06339076161384583,0.015640193596482277,0.006624747533351183
1772614478069040600,2.26904052734375,0.04749974608421326,-0.0061078788712620735,0.03998224809765816
1772614478079107800,2.27910791015625,0.025704171508550644,-0.018421804532408714,0.06356880068778992
1772614478089174800,2.2891748046875,0.01625240221619606,-0.028614679351449013,0.06879232078790665
1772614478099241700,2.29924169921875,0.01146323885768652,-0.012360341846942902,0.06354962289333344
1772614478109307600,2.3093076171875,0.017642075195908546,0.013343206606805325,0.043980617076158524
1772614478119374800,2.319374755859375,0.028757575899362564,0.010164458304643631,0.03089064732193947
1772614478129441800,2.32944189453125,0.025717515498399734,-0.000732900807633996,0.03394445776939392
1772614478139508700,2.3395087890625,0.009585150517523289,0.0011009518057107925,0.04400588199496269
1772614478149575700,2.34957568359375,-0.005155239254236221,0.01531673502177,0.05448859930038452
1772614478159642600,2.359642578125,-0.00496562197804451,0.0161748044192791,0.05917469784617424
1772614478169709600,2.36970947265625,0.00001880305353552103,0.015107983723282814,0.04610467702150345
1772614478179776800,2.37977685546875,0.0033877016976475716,0.023793617263436317,0.02681034244596958
1772614478189843700,2.38984375,0.016798030585050583,0.028064005076885223,0.005470096133649349
1772614478199910700,2.39991064453125,0.015233423560857773,-0.007915567606687546,-0.009576231241226196
1772614478209977600,2.4099775390625,-0.019711269065737724,-0.05869770795106888,-0.012621958740055561
1772614478220044500,2.42004443359375,-0.05471665784716606,-0.07702318578958511,-0.01606595888733864
1772614478230111500,2.430111572265625,-0.05508584901690483,-0.06859105080366135,-0.007091480772942305
1772614478240178700,2.4401787109375,-0.022003531455993652,-0.03889413923025131,0.00830079149454832
1772614478250244600,2.45024462890625,0.007261111866682768,-0.0098026804625988,0.025030309334397316
1772614478260311600,2.4603115234375,0.014801320619881153,0.0051347240805625916,0.03782014176249504
1772614478270378500,2.47037841796875,0.006686714477837086,0.0109414579346776,0.04621171951293945
1772614478280445700,2.48044580078125,0.007048104889690876,0.017165532335639,0.04753690958023071
1772614478290512600,2.4905126953125,-0.0012755885254591703,0.006648434326052666,0.043878067284822464
1772614478300579600,2.50057958984375,-0.012129302136600018,0.015806512907147408,0.0394098162651062
1772614478310646800,2.510646728515625,-0.0032012760639190674,0.02681739255785942,0.012710020877420902
1772614478320713700,2.520713623046875,0.02301514707505703,0.024243980646133423,-0.015451042912900448
1772614478330780700,2.53078076171875,0.049719300121068954,0.025124773383140564,-0.033619172871112823
1772614478340847600,2.54084765625,0.052791256457567215,0.01920216903090477,-0.04346407949924469
1772614478350914800,2.550914794921875,0.03701680898666382,0.0032597596291452646,-0.045569635927677155
1772614478360981800,2.560981689453125,0.01680794358253479,-0.007362524978816509,-0.039858222007751465
1772614478371048700,2.571048583984375,0.002276923507452011,-0.0013339188881218433,-0.022610869258642197
1772614478381115600,2.58111572265625,0.0082919392734766,0.021187368780374527,-0.004992992151528597
1772614478391182600,2.5911826171875,0.024296127259731293,0.024144846946001053,0.00974882673472166
1772614478401248800,2.601248779296875,0.02494407445192337,0.020675014704465866,0.021541837602853775
1772614478411315700,2.611315673828125,0.028087003156542778,0.00300720427185297,0.03218210116028786
1772614478421382700,2.621382568359375,0.01661224104464054,0.017506517469882965,0.041008614003658295
1772614478431449600,2.63144970703125,-0.0014106108574196696,0.007617558818310499,0.03315085545182228
1772614478441516500,2.6415166015625,-0.012026237323880196,0.001978048589080572,0.023438040167093277
1772614478451583700,2.651583740234375,-0.014061219990253448,-0.0015745777636766434,0.018825942650437355
1772614478461650700,2.661650634765625,-0.007052313536405563,0.008082843385636806,0.009037227369844913
1772614478471717600,2.671717529296875,0.006870918907225132,0.010725585743784904,-0.002232417231425643
1772614478481784600,2.68178466796875,0.016133926808834076,0.009742612950503826,-0.015167124569416046
1772614478491851500,2.6918515625,0.014830573461949825,0.013807395473122597,-0.02060343511402607
1772614478501918500,2.70191845703125,0.014020174741744995,0.02718764916062355,-0.019413001835346222
1772614478511985700,2.711985595703125,0.022132674232125282,0.03083638846874237,-0.04164356365799904
1772614478522052900,2.722052978515625,0.02422432042658329,0.01530563272535801,-0.07791980355978012
1772614478532119800,2.732119873046875,0.02087748795747757,0.004441088531166315,-0.1243935152888298
1772614478542185500,2.742185546875,0.016280069947242737,-0.003889811923727393,-0.15863430500030518
1772614478552252700,2.752252685546875,0.018651962280273438,-0.004375811666250229,-0.18842057883739471
1772614478562320000,2.76231982421875,0.024490943178534508,0.014071904122829437,-0.22501720488071442
1772614478572386800,2.77238671875,0.03728308528661728,0.041837599128484726,-0.2706460952758789
1772614478582453800,2.782453857421875,0.05703335255384445,0.07659505307674408,-0.33930400013923645
1772614478592520700,2.792520751953125,0.0858551412820816,0.10815218091011047,-0.43179744482040405
1772614478602587600,2.802587646484375,0.11696219444274902,0.08826768398284912,-0.5327810645103455
1772614478612654600,2.812654541015625,0.11956488341093063,0.045038267970085144,-0.6049349904060364
1772614478622721800,2.8227216796875,0.11542313545942307,0.027829717844724655,-0.6552045345306396
1772614478632788700,2.832788818359375,0.12549567222595215,0.04060347378253937,-0.6902305483818054
1772614478642855700,2.842855712890625,0.15931808948516846,0.03359483182430267,-0.737636148929596
1772614478652922600,2.852922607421875,0.16982607543468475,-0.010804770514369011,-0.7812479734420776
1772614478662989600,2.862989501953125,0.1427723616361618,-0.06463976949453354,-0.7991239428520203
1772614478673056500,2.873056396484375,0.07774904370307922,-0.11885655671358109,-0.7742210030555725
1772614478683123700,2.883123779296875,0.013844097033143044,-0.1373218446969986,-0.6900824308395386
1772614478693189600,2.893189697265625,-0.025348244234919548,-0.15511804819107056,-0.5665931105613708
1772614478703256600,2.903256591796875,-0.040621206164360046,-0.13738831877708435,-0.42622697353363037
1772614478713323500,2.913323486328125,-0.03727300465106964,-0.11783996224403381,-0.3044961392879486
1772614478723390500,2.923390380859375,-0.037526801228523254,-0.11052478849887848,-0.20412135124206543
1772614478733457700,2.933457763671875,-0.04680910333991051,-0.12274372577667236,-0.12646493315696716
1772614478743524600,2.943524658203125,-0.07023720443248749,-0.14071179926395416,-0.05218563973903656
1772614478753591600,2.953591552734375,-0.08577656000852585,-0.14145158231258392,0.018645985051989555
1772614478763658800,2.96365869140625,-0.06872567534446716,-0.1195012778043747,0.07343573123216629
1772614478773725700,2.9737255859375,-0.029798638075590134,-0.10462638735771179,0.08712856471538544
1772614478783792600,2.983792724609375,-0.00468582846224308,-0.0959940180182457,0.06668640673160553
1772614478793859800,2.99385986328125,-0.002188527723774314,-0.08920019119977951,0.0298591498285532
1772614478803926800,3.0039267578125,-0.011309854686260223,-0.09008249640464783,0.003333000000566244
1772614478813993700,3.01399365234375,-0.021454770117998123,-0.07995789498090744,-0.006976248696446419
1772614478824060700,3.024060791015625,-0.031395554542541504,-0.04804842919111252,-0.0016872105188667774
1772614478834127600,3.034127685546875,-0.020817210897803307,-0.01420577522367239,0.004847387783229351
1772614478844193800,3.04419384765625,-0.01180880144238472,0.016532164067029953,0.01363049354404211
1772614478854260700,3.0542607421875,-0.00028069992549717426,0.03530395030975342,0.02417539246380329
1772614478864327700,3.06432763671875,0.005432046949863434,0.03653885796666145,0.040496841073036194
1772614478874394600,3.07439453125,-0.005617963150143623,0.016370680183172226,0.06790734082460403
1772614478884461600,3.084461669921875,-0.021226217970252037,0.010177765041589737,0.09852969646453857
1772614478894528500,3.094528564453125,-0.03135668858885765,0.01561890821903944,0.11567714065313339
1772614478904595700,3.104595703125,-0.025645006448030472,0.03377314284443855,0.12758946418762207
1772614478914662700,3.11466259765625,-0.009839147329330444,0.04743409529328346,0.12916898727416992
1772614478924729600,3.1247294921875,0.0043765404261648655,0.05493302270770073,0.12938550114631653
1772614478934796500,3.134796630859375,0.0015564779751002789,0.05051705986261368,0.14055325090885162
1772614478944863500,3.144863525390625,-0.007769646123051643,0.04801368713378906,0.15640251338481903
1772614478954930400,3.154930419921875,-0.013489960692822933,0.04689248651266098,0.17059288918972015
1772614478964998000,3.164997802734375,-0.008780427277088165,0.04754842072725296,0.17911207675933838
1772614478975064800,3.17506494140625,-0.011170358397066593,0.054496146738529205,0.17867739498615265
1772614478985131800,3.1851318359375,-0.0251436997205019,0.05279785022139549,0.1682380586862564
1772614478995197700,3.19519775390625,-0.03485500067472458,0.04449561983346939,0.1448201984167099
1772614479005264600,3.2052646484375,-0.048181191086769104,0.03899938985705376,0.11582290381193161
1772614479015331800,3.215331787109375,-0.06617608666419983,0.0322188064455986,0.08905376493930817
1772614479025398800,3.225398681640625,-0.0724819153547287,0.020255353301763535,0.0745464637875557
1772614479035465700,3.2354658203125,-0.0687277764081955,0.012538034468889236,0.06462962925434113
1772614479045532700,3.24553271484375,-0.058539316058158875,0.007609588094055653,0.05692829564213753
1772614479055599600,3.255599609375,-0.047451578080654144,-0.009524224326014519,0.0441272035241127
1772614479065666600,3.26566650390625,-0.037284962832927704,-0.020919358357787132,0.02588934637606144
1772614479075733800,3.275733642578125,-0.02566823922097683,-0.01652861200273037,0.003909027669578791
1772614479085801000,3.285801025390625,-0.027461079880595207,-0.022199546918272972,-0.022568386048078537
1772614479095868000,3.295867919921875,-0.04143279790878296,-0.040547870099544525,-0.046337809413671494
1772614479105934800,3.305934814453125,-0.048514943569898605,-0.05657530575990677,-0.05551639199256897
1772614479116001800,3.316001708984375,-0.04789241403341293,-0.054575350135564804,-0.04329890385270119
1772614479126068700,3.32606884765625,-0.03347112983465195,-0.05617377907037735,-0.029161779209971428
1772614479136136000,3.336135986328125,-0.014916212297976017,-0.06302689760923386,-0.010887271724641323
1772614479146201900,3.346201904296875,-0.008890544064342976,-0.059809792786836624,0.005686644930392504
1772614479156268800,3.356268798828125,-0.01325654424726963,-0.0431404672563076,0.012363404966890812
1772614479166335700,3.366335693359375,-0.017439039424061775,-0.03025422990322113,0.01163183432072401
1772614479176402700,3.376402587890625,-0.011753426864743233,-0.03876923397183418,0.006831615697592497
1772614479186470000,3.386469970703125,-0.002060319995507598,-0.04986902326345444,0.013164611533284187
1772614479196536800,3.396536865234375,-0.009880716912448406,-0.041386112570762634,0.032806672155857086
1772614479206603800,3.406603759765625,-0.01209433563053608,-0.027891341596841812,0.04617813974618912
1772614479216670700,3.416670654296875,-0.003369427751749754,-0.02352887950837612,0.05436529591679573
1772614479226737700,3.426737548828125,0.011166105978190899,-0.008399460464715958,0.07116691023111343
1772614479236804600,3.4368046875,0.022527504712343216,0.015063676983118057,0.07693282514810562
1772614479246871800,3.446871826171875,0.02362792380154133,0.033828046172857285,0.07788277417421341
1772614479256938800,3.456938720703125,0.016082122921943665,0.03161628916859627,0.06248117983341217
1772614479267005700,3.467005615234375,0.01956959255039692,0.023269379511475563,0.039066705852746964
1772614479277072600,3.47707275390625,0.031562115997076035,0.015849458053708076,0.015136548317968845
1772614479287138800,3.487138916015625,0.0562746524810791,0.0224306620657444,-0.011325152590870857
1772614479297205800,3.497205810546875,0.06659559160470963,0.021394098177552223,-0.022382786497473717
1772614479307272700,3.507272705078125,0.06176008656620979,0.012241080403327942,-0.015133128501474857
1772614479317340000,3.51733984375,0.047959525138139725,0.006916652899235487,0.006601154338568449
1772614479327406800,3.52740673828125,0.04638266935944557,0.023163268342614174,0.031201837584376335
1772614479337473800,3.537473876953125,0.05913389101624489,0.03265596553683281,0.04901576042175293
1772614479347540700,3.547540771484375,0.052971601486206055,0.03706829249858856,0.06288869678974152
1772614479357608000,3.55760791015625,0.03459963947534561,0.0458926185965538,0.0593065582215786
1772614479367675000,3.5676748046875,0.027201112359762192,0.0434236004948616,0.05241749435663223
1772614479377741800,3.577741943359375,0.02466334030032158,0.042952511459589005,0.05303831771016121
1772614479387808800,3.587808837890625,0.02478211745619774,0.06252088397741318,0.06698448956012726
1772614479397875700,3.597875732421875,0.031201111152768135,0.07795991003513336,0.07247262448072433
1772614479407942700,3.607942626953125,0.03482647240161896,0.07512923330068588,0.06493347883224487
1772614479418009900,3.618009765625,0.03750399872660637,0.0760093480348587,0.05256912112236023
1772614479428076800,3.628076904296875,0.04190540313720703,0.07003214955329895,0.03194267302751541
1772614479438142700,3.638142822265625,0.047984737902879715,0.04573632776737213,0.022654253989458084
1772614479448209700,3.648209716796875,0.04789818450808525,0.033127594739198685,0.02088857814669609
1772614479458276900,3.65827685546875,0.045881059020757675,0.024304233491420746,0.029869310557842255
1772614479468343800,3.66834375,0.04054461419582367,0.016880406066775322,0.04464612528681755
1772614479478410800,3.67841064453125,0.021244332194328308,0.013370470143854618,0.052843429148197174
1772614479488477700,3.688477783203125,0.0004831288242712617,0.017714617773890495,0.05659875273704529
1772614479498544600,3.698544677734375,-0.010651905089616776,0.01377085316926241,0.056710172444581985
1772614479508611600,3.708611572265625,-0.011587473563849926,0.024667177349328995,0.05681749805808067
1772614479518678800,3.7186787109375,-0.00673440657556057,0.03897421807050705,0.05333586409687996
1772614479528746000,3.72874609375,0.007797131780534983,0.05733484774827957,0.049463629722595215
1772614479538813000,3.73881298828125,0.005170326679944992,0.04656469076871872,0.047501832246780396
1772614479548880000,3.7488798828125,-0.004960870835930109,0.01966170407831669,0.04343971237540245
1772614479558946800,3.75894677734375,-0.010909417644143105,0.0023633968085050583,0.03826357424259186
1772614479569013800,3.769013671875,0.003795225638896227,-0.013421958312392235,0.04220744967460632
1772614479579080700,3.779080810546875,0.013390910811722279,-0.025970198214054108,0.05328059196472168
1772614479589147000,3.78914697265625,0.014324347488582134,-0.0048284283839166164,0.05947217345237732
1772614479599213800,3.7992138671875,0.020153673365712166,0.019937006756663322,0.05379370227456093
1772614479609280800,3.80928076171875,0.03402154892683029,0.031451452523469925,0.042573537677526474
1772614479619347700,3.81934765625,0.03365684673190117,0.03929245471954346,0.028309058398008347
1772614479629415000,3.829414794921875,0.016672270372509956,0.03233281522989273,0.016150396317243576
1772614479639481900,3.83948193359375,-0.0031233804766088724,0.005443730391561985,0.004286020062863827
1772614479649548800,3.849548828125,-0.008995650336146355,-0.006905614398419857,0.0072775487788021564
1772614479659615700,3.85961572265625,-0.0042958869598805904,-0.012133638374507427,0.012235147878527641
1772614479669682700,3.8696826171875,-0.006540931761264801,-0.02167840674519539,0.024109652265906334
1772614479679749600,3.87974951171875,-0.01010346319526434,-0.02862452156841755,0.034601617604494095
1772614479689816800,3.88981689453125,-0.005088464356958866,-0.011751798912882805,0.03946162015199661
1772614479699883800,3.8998837890625,0.0034428550861775875,0.006510155741125345,0.037576574832201004
1772614479709950700,3.90995068359375,0.013179904781281948,0.006220669951289892,0.025860527530312538
1772614479720017700,3.920017578125,0.015267707407474518,0.0011419453658163548,0.02031073346734047
1772614479730084900,3.9300849609375,0.0141707519069314,0.0012572603300213814,0.020593827590346336
1772614479740150800,3.94015087890625,0.006953613832592964,0.001494468073360622,0.022636599838733673
1772614479750217700,3.9502177734375,-0.02309403382241726,-0.028849855065345764,0.02254951372742653
1772614479760284700,3.96028466796875,-0.05887825787067413,-0.04675781726837158,0.027112729847431183
1772614479770351900,3.970351806640625,-0.06969974935054779,-0.033949077129364014,0.033382341265678406
1772614479780418800,3.980418701171875,-0.04982038587331772,-0.022537264972925186,0.035056859254837036
1772614479790485800,3.99048583984375,-0.02058393508195877,-0.008527973666787148,0.03176173195242882
1772614479800553000,4.000552978515625,-0.003800299484282732,-0.00629511009901762,0.018381590023636818
1772614479810620000,4.010619873046875,-0.0008734854636713862,-0.016818325966596603,0.014721875078976154
1772614479820686800,4.020686767578125,0.0007633076747879386,-0.0338728204369545,0.01364768948405981
1772614479830753800,4.03075390625,0.00006236380431801081,-0.06419504433870316,0.025242026895284653
1772614479840820700,4.04082080078125,-0.01880742609500885,-0.08736295998096466,0.04652268439531326
1772614479850887700,4.0508876953125,-0.04581986740231514,-0.07760141044855118,0.06542234122753143
1772614479860955000,4.060954833984375,-0.05983571708202362,-0.06515071541070938,0.06582977622747421
1772614479871021800,4.071021728515625,-0.06170365959405899,-0.05721183121204376,0.05265166237950325
1772614479881088800,4.0810888671875,-0.05670971795916557,-0.03280907869338989,0.03057769127190113
1772614479891154700,4.09115478515625,-0.03304992988705635,-0.011023622006177902,-0.002625269815325737
1772614479901221600,4.1012216796875,-0.008523724041879177,-0.009843951091170311,-0.0357510969042778
1772614479911288800,4.111288818359375,0.008419306017458439,-0.013918320648372173,-0.05818529799580574
1772614479921355800,4.121355712890625,0.010083865374326706,-0.027983715757727623,-0.06053804233670235
1772614479931422700,4.131422607421875,-0.008207257837057114,-0.047540903091430664,-0.03967350721359253
1772614479941489700,4.14148974609375,-0.033882275223731995,-0.052469078451395035,-0.009081325493752956
1772614479951556600,4.151556640625,-0.037127070128917694,-0.028737647458910942,0.019058967009186745
1772614479961623600,4.16162353515625,-0.01621299982070923,-0.01688072271645069,0.04285537451505661
1772614479971691000,4.17169091796875,0.0035380676854401827,-0.016770999878644943,0.059377625584602356
1772614479981758000,4.181758056640625,-0.0019654431380331516,-0.00853213481605053,0.07088657468557358
1772614479991825000,4.191824951171875,-0.009138401597738266,0.008787732571363449,0.05548897385597229
1772614480001891800,4.201891845703125,-0.003252883441746235,0.008828380145132542,0.02635152079164982
1772614480011958800,4.211958740234375,0.01974351331591606,0.02184724435210228,-0.004933431278914213
1772614480022025700,4.222025634765625,0.0325881689786911,0.029888341203331947,-0.02889113314449787
1772614480032093000,4.232093017578125,0.029431259259581566,0.03135627880692482,-0.040415164083242416
1772614480042158800,4.242158935546875,0.016550056636333466,-0.0024840363766998053,-0.03342338278889656
1772614480052225800,4.252225830078125,-0.0031232452020049095,-0.03586969152092934,-0.012805459089577198
1772614480062292700,4.262292724609375,-0.013143543154001236,-0.032557569444179535,0.021453965455293655
1772614480072359700,4.272359619140625,0.0024079852737486362,-0.020276933908462524,0.04602935165166855
1772614480082426600,4.282426513671875,0.021004976704716682,-0.00017359876073896885,0.057696808129549026
1772614480092493600,4.29249365234375,0.022703273221850395,0.018356675282120705,0.059788454324007034
1772614480102560500,4.302560546875,0.007592300418764353,0.0251971036195755,0.04918276146054268
1772614480112627500,4.31262744140625,0.0055504548363387585,0.005488913040608168,0.035427797585725784
1772614480122694400,4.3226943359375,0.013957375660538673,-0.012032883241772652,0.02681867778301239
1772614480132761600,4.33276171875,0.02698396146297455,-0.005923592485487461,0.016844341531395912
1772614480142828500,4.34282861328125,0.03931386396288872,0.002450451720505953,-0.0063286228105425835
1772614480152895700,4.352895751953125,0.04570038989186287,0.005291512235999107,-0.024823211133480072
1772614480162962700,4.362962646484375,0.04264264181256294,0.018679974600672722,-0.03967173770070076
1772614480173029600,4.373029541015625,0.04665789008140564,0.015680722892284393,-0.0363457165658474
1772614480183096600,4.3830966796875,0.04669123888015747,-0.005725529044866562,-0.02056991495192051
1772614480193162800,4.393162841796875,0.03195890039205551,-0.032884180545806885,0.012242891825735569
1772614480203229700,4.403229736328125,0.016644392162561417,-0.050091128796339035,0.05102437362074852
1772614480213296600,4.413296630859375,0.004588528070598841,-0.04586176574230194,0.06395375728607178
1772614480223363600,4.423363525390625,0.0026654782705008984,-0.03997292369604111,0.05832952260971069
1772614480233430500,4.433430419921875,0.007514828350394964,-0.03090193122625351,0.03610917180776596
1772614480243497700,4.443497802734375,0.016126064583659172,-0.011604685336351395,0.004433056339621544
1772614480253564700,4.453564697265625,0.02555179037153721,0.004152173642069101,-0.021084552630782127
1772614480263631600,4.463631591796875,0.03211178630590439,0.022077059373259544,-0.03475320711731911
1772614480273698600,4.473698486328125,0.03844451904296875,0.033322256058454514,-0.03494521975517273
1772614480283765500,4.483765625,0.04259677231311798,0.036048345267772675,-0.012269975617527962
1772614480293832400,4.49383251953125,0.03717564046382904,0.026850052177906036,0.021483993157744408
1772614480303899600,4.503899658203125,0.021952064707875252,0.02657502330839634,0.05731871724128723
1772614480313966600,4.513966552734375,-0.0006291440804488957,0.016511470079421997,0.07575631141662598
1772614480324033500,4.524033447265625,-0.017942778766155243,0.01903296262025833,0.07713425159454346
1772614480334099500,4.534099365234375,-0.02592480555176735,0.025441858917474747,0.06367862969636917
1772614480344166400,4.54416650390625,-0.01209566742181778,0.030822305008769035,0.041890185326337814
1772614480354233600,4.554233642578125,0.007312651723623276,0.032928332686424255,0.024482697248458862
1772614480364300500,4.564300537109375,0.019080473110079765,0.03620476648211479,0.011625475250184536
1772614480374367500,4.574367431640625,0.0214014183729887,0.03602633625268936,-0.0020202964078634977
1772614480384434400,4.584434326171875,0.00958634540438652,0.02346491441130638,-0.0058683548122644424
1772614480394501600,4.594501708984375,0.005448858719319105,0.006243851035833359,0.000516041531227529
1772614480404568600,4.604568603515625,0.005541837774217129,-0.00824955478310585,0.009758447296917439
1772614480414635800,4.6146357421875,0.00874242465943098,-0.00800560973584652,0.02303776703774929
1772614480424702700,4.62470263671875,0.012465979903936386,-0.0020944189745932817,0.03178773447871208
1772614480434769700,4.634769775390625,0.015475085936486721,0.0034502826165407896,0.03388923406600952
1772614480444836600,4.644836669921875,0.014680508524179459,0.008792860433459282,0.036119118332862854
1772614480454903600,4.654903564453125,0.01595589704811573,0.0151354456320405,0.03289083391427994
1772614480464970500,4.664970458984375,0.020604586228728294,0.00938547495752573,0.020496148616075516
1772614480475037700,4.67503759765625,0.01973932422697544,0.0004130189772695303,0.010803041979670525
1772614480485104600,4.685104736328125,0.02049756608903408,-0.008943616412580013,0.001068839686922729
1772614480495170600,4.695170654296875,0.0139078414067626,-0.04058782756328583,-0.016365278512239456
1772614480505237500,4.705237548828125,0.0025259372778236866,-0.05765245854854584,-0.029786186292767525
1772614480515304400,4.715304443359375,0.0016529528656974435,-0.057394396513700485,-0.03690987452864647
1772614480525371600,4.72537158203125,0.010822371579706669,-0.04963528737425804,-0.04821794107556343
1772614480535438600,4.7354384765625,0.025669492781162262,-0.027589639648795128,-0.046315912157297134
1772614480545505500,4.745505615234375,0.027906201779842377,-0.006665742490440607,-0.03831244260072708
1772614480555572500,4.755572509765625,0.029179725795984268,-0.0031812628731131554,-0.029082728549838066
1772614480565639400,4.765639404296875,0.024041134864091873,-0.0037433109246194363,-0.014633595012128353
1772614480575706400,4.775706298828125,0.018748102709650993,-0.0001773384865373373,-0.0003995317965745926
1772614480585773600,4.785773681640625,0.012828580103814602,-0.008704057894647121,0.01495009008795023
1772614480595840500,4.795840576171875,0.0048100692220032215,-0.01967681385576725,0.023132653906941414
1772614480605907700,4.80590771484375,0.005854519084095955,-0.018952613696455956,0.027263006195425987
1772614480615974700,4.815974609375,0.010982169769704342,-0.003710542805492878,0.02740175649523735
1772614480626041600,4.82604150390625,0.01266417559236288,-0.009356559254229069,0.02601407654583454
1772614480636108500,4.836108642578125,0.017542287707328796,-0.013824277557432652,0.025901425629854202
1772614480646174700,4.8461748046875,0.021604523062705994,-0.002301365602761507,0.026109665632247925
1772614480656241700,4.85624169921875,0.022692689672112465,0.0008222558535635471,0.011332849971950054
1772614480666308600,4.86630859375,0.024323774501681328,-0.004621926695108414,-0.004293494392186403
1772614480676375600,4.87637548828125,0.024785300716757774,-0.0064613716676831245,-0.018259109929203987
1772614480686442500,4.8864423828125,0.019454792141914368,-0.014057278633117676,-0.022889699786901474
1772614480696509700,4.896509765625,0.00681409751996398,-0.017619255930185318,-0.019360745325684547
1772614480706576600,4.90657666015625,-0.003272851463407278,-0.02140449360013008,-0.014929297380149364
1772614480716643600,4.9166435546875,-0.005643863696604967,-0.017508555203676224,-0.005890795029699802
1772614480726710500,4.92671044921875,0.002270926721394062,0.006537920795381069,0.00991443358361721
1772614480736777500,4.936777587890625,0.008921905420720577,0.014404898509383202,0.01917451061308384
1772614480746844400,4.946844482421875,0.015134906396269798,0.017169803380966187,0.03180243819952011
1772614480756911600,4.95691162109375,0.01228905189782381,0.027921782806515694,0.03257715329527855
1772614480766978600,4.966978515625,0.01663161814212799,0.019568100571632385,0.02526690438389778
1772614480777045500,4.97704541015625,0.02042422629892826,0.0063455067574977875,0.023280184715986252
1772614480787112400,4.987112548828125,0.02143052965402603,-0.00786539725959301,0.023108383640646935
1772614480797178600,4.9971787109375,0.017409155145287514,-0.014597869478166103,0.021725935861468315
1772614480807245600,5.00724560546875,0.014422986656427383,-0.018379241228103638,0.012758977711200714
1772614480817312500,5.0173125,0.020459307357668877,-0.020480476319789886,0.0010338787687942386
1772614480827379500,5.02737939453125,0.02199128270149231,-0.021327689290046692,-0.01645263284444809
1772614480837446700,5.03744677734375,0.012218013405799866,-0.017430152744054794,-0.018119238317012787
1772614480847513600,5.047513671875,-0.0005980536807328463,-0.012990061193704605,-0.012260702438652515
1772614480857580500,5.05758056640625,0.001080803107470274,-0.015816207975149155,-0.005571374669671059
1772614480867647700,5.067647705078125,0.004345769993960857,-0.02139190025627613,0.0062966602854430676
1772614480877714700,5.077714599609375,-0.005836826749145985,-0.02090081386268139,0.007112120743840933
1772614480887781600,5.08778173828125,-0.020098572596907616,-0.03680655360221863,-0.006151940207928419
1772614480897848600,5.0978486328125,-0.02313590794801712,-0.050800397992134094,-0.029547277837991714
1772614480907915500,5.10791552734375,-0.014180837199091911,-0.04913615062832832,-0.04305414855480194
1772614480917982500,5.117982421875,0.00326313404366374,-0.03348049148917198,-0.053615182638168335
1772614480928049700,5.128049560546875,0.01263593789190054,-0.03152763471007347,-0.0473150871694088
1772614480938116600,5.13811669921875,0.011923009529709816,-0.024318989366292953,-0.03150390088558197
1772614480948182500,5.1481826171875,0.0017837482737377286,-0.007298422046005726,-0.009227476082742214
1772614480958249500,5.15824951171875,-0.005713316611945629,-0.004858167842030525,0.0014994702069088817
1772614480968316700,5.168316650390625,-0.0076255956664681435,-0.016570553183555603,0.008902412839233875
1772614480978383600,5.178383544921875,-0.012175606563687325,-0.023624733090400696,0.01761707291007042
1772614480988450600,5.188450439453125,-0.02014295943081379,-0.025137754157185555,0.011850397102534771
1772614480998517500,5.198517578125,-0.018855853006243706,-0.027407033368945122,-0.00334773026406765
1772614481008584400,5.20858447265625,-0.014497589319944382,-0.03793025016784668,-0.013870412483811378
1772614481018651400,5.2186513671875,-0.007587219588458538,-0.035913702100515366,-0.019461452960968018
1772614481028718600,5.228718505859375,0.0040750703774392605,-0.023187875747680664,-0.023065030574798584
1772614481038785500,5.23878564453125,0.01365126483142376,-0.019505256786942482,-0.015959184616804123
1772614481048852700,5.248852783203125,0.011189371347427368,-0.009103314951062202,-0.0029467903077602386
1772614481058919700,5.258919677734375,0.005124288145452738,-0.004186054691672325,0.005347624886780977
1772614481068986400,5.268986328125,-0.0007124062976799905,-0.014270392246544361,0.006929789204150438
1772614481079053300,5.27905322265625,-0.0027390718460083008,-0.021960534155368805,0.008622228167951107
1772614481089120500,5.28912060546875,-0.005337458103895187,-0.019571710377931595,0.01243671402335167
1772614481099187500,5.2991875,-0.007559067569673061,-0.023961398750543594,0.012072126381099224
1772614481109253400,5.30925341796875,-0.00894097238779068,-0.02679886668920517,0.011217554099857807
1772614481119320300,5.3193203125,-0.00435500917956233,-0.028409814462065697,0.004751399625092745
1772614481129386500,5.329386474609375,-0.011133553460240364,-0.03853169083595276,-0.0008652074029669166
1772614481139453400,5.339453369140625,-0.0032054176554083824,-0.052809178829193115,-0.007866335101425648
1772614481149520400,5.349520263671875,0.007640039548277855,-0.0431046225130558,-0.011474918574094772
1772614481159587300,5.35958740234375,0.019778462126851082,-0.037345267832279205,-0.013760442845523357
1772614481169654300,5.369654296875,0.017695842310786247,-0.02815462090075016,-0.01518536452203989
1772614481179721500,5.379721435546875,0.00001911038998514414,-0.018424497917294502,-0.014991752803325653
1772614481189788400,5.389788330078125,-0.017642954364418983,-0.019738975912332535,-0.0067220120690763
1772614481199855400,5.39985546875,-0.019401973113417625,-0.024665556848049164,-0.005151013378053904
1772614481209922300,5.40992236328125,-0.008123368956148624,-0.02399004064500332,0.00040999462362378836
1772614481219989200,5.4199892578125,0.003439543768763542,-0.01725943386554718,-0.0052604079246521
1772614481230056200,5.43005615234375,0.01262466050684452,-0.01990075781941414,-0.007773196324706078
1772614481240122400,5.440122314453125,0.00028703431598842144,-0.014929969795048237,0.00044425332453101873
1772614481250189300,5.450189208984375,-0.0105719193816185,-0.0028191525489091873,0.004866048693656921
1772614481260256300,5.46025634765625,-0.012611368671059608,-0.0019043567590415478,0.006060210522264242
1772614481270323500,5.470323486328125,-0.0016314552631229162,0.0013955164467915893,0.007874450646340847
1772614481280390400,5.480390380859375,0.0000972026027739048,-0.012749597430229187,0.0063138375990092754
1772614481290457600,5.49045751953125,-0.011559644713997841,-0.022090407088398933,0.006665493827313185
1772614481300524500,5.500524658203125,-0.02365465648472309,-0.028605563566088676,0.01143414992839098
1772614481310591500,5.510591552734375,-0.026580849662423134,-0.025869809091091156,0.009949338622391224
1772614481320658400,5.520658447265625,-0.013486885465681553,-0.007118491921573877,0.012745390646159649
1772614481330725400,5.530725341796875,0.005323123652487993,0.0027119170408695936,0.004072255454957485
1772614481340792300,5.540792236328125,0.012396213598549366,0.009900321252644062,-0.0013235751539468765
1772614481350859500,5.550859619140625,0.011374528519809246,0.01558508537709713,-0.00754972081631422
1772614481360926500,5.560926513671875,0.00815263669937849,0.012500346638262272,-0.008520975708961487
1772614481370993400,5.570993408203125,0.0029757176525890827,0.011894742958247662,0.006903520319610834
1772614481381060400,5.581060302734375,0.001048920676112175,0.009220397099852562,0.022653454914689064
1772614481391127300,5.591127197265625,-0.005219840444624424,-0.006034881807863712,0.03835625201463699
1772614481401193500,5.601193359375,-0.011562691070139408,-0.009740137495100498,0.04316752031445503
1772614481411260400,5.611260498046875,-0.006432575173676014,0.006067420355975628,0.044137246906757355
1772614481421327400,5.621327392578125,0.0034964878577739,0.012180440127849579,0.04406693950295448
1772614481431394300,5.631394287109375,0.006947719492018223,0.01503685861825943,0.0381900891661644
1772614481441461200,5.641461181640625,0.006415087729692459,0.02984723076224327,0.03073350340127945
1772614481451528200,5.651528076171875,0.010932452976703644,0.030304038897156715,0.01813892461359501
1772614481461595400,5.661595458984375,0.011553237214684486,0.029749302193522453,0.006807439494878054
1772614481471662600,5.67166259765625,0.009599190205335617,0.039112288504838943,-0.007457958068698645
1772614481481729500,5.6817294921875,0.014485292136669159,0.03257342800498009,-0.025396477431058884
1772614481491796500,5.69179638671875,0.013889390975236893,0.01814429648220539,-0.02726728469133377
1772614481501863400,5.701863525390625,0.0049323816783726215,0.00914361048489809,-0.017165647819638252
1772614481511930400,5.711930419921875,-0.009312699548900127,0.008461225777864456,-0.010005170479416847
1772614481521997600,5.72199755859375,-0.015345558524131775,0.015660814940929413,-0.0068152365274727345
1772614481532064500,5.732064453125,-0.015521385706961155,0.021477987989783287,-0.012312308885157108
1772614481542131500,5.74213134765625,-0.015505939722061157,0.04448183998465538,-0.02329811453819275
1772614481552198400,5.752198486328125,-0.010982544161379337,0.0516638457775116,-0.038128916174173355
1772614481562265300,5.762265380859375,-0.010045112110674381,0.04096725583076477,-0.04379692301154137
1772614481572332300,5.772332275390625,-0.014462143182754517,0.04706738516688347,-0.04626177251338959
1772614481582399500,5.7823994140625,-0.01959512010216713,0.066497802734375,-0.041668351739645004
1772614481592466400,5.792466552734375,-0.02918916754424572,0.06042327731847763,-0.044227421283721924
1772614481602533400,5.802533447265625,-0.032592952251434326,0.04501475766301155,-0.04979981854557991
1772614481612600300,5.812600341796875,-0.02639622427523136,0.04850172623991966,-0.04420969635248184
1772614481622667300,5.822667236328125,-0.010965336114168167,0.04425478354096413,-0.03690251335501671
1772614481632734200,5.832734130859375,-0.000687106279656291,0.029477089643478394,-0.0230448879301548
1772614481642801400,5.842801513671875,-0.00266050873324275,0.026590488851070404,-0.013579213991761208
1772614481652868600,5.85286865234375,-0.010074933059513569,0.03609992936253548,-0.0016640751855447888
1772614481662934300,5.862934326171875,-0.012420112267136574,0.022847240790724754,0.0095417071133852
1772614481673001200,5.873001220703125,-0.007777453400194645,0.020457932725548744,0.01777154579758644
1772614481683068400,5.883068359375,-0.00019596621859818697,0.03440570831298828,0.01982084847986698
1772614481693135600,5.893135498046875,0.01236166711896658,0.032723840326070786,0.021477729082107544
1772614481703202600,5.90320263671875,0.013527331873774529,0.016719574108719826,0.022754982113838196
1772614481713269500,5.91326953125,0.0043573155999183655,0.009094654582440853,0.028294848278164864
1772614481723336400,5.92333642578125,-0.005341383628547192,0.0015086402418091893,0.03056972101330757
1772614481733403400,5.9334033203125,0.0013566178968176246,-0.014141501858830452,0.03042001463472843
1772614481743470300,5.94347021484375,0.00491273682564497,-0.014587849378585815,0.03496576473116875
1772614481753537500,5.95353759765625,0.009371189400553703,-0.00598573125898838,0.034450169652700424
1772614481763604500,5.9636044921875,0.0014608020428568125,0.0033806064166128635,0.0389527790248394
1772614481773671400,5.97367138671875,-0.011665652506053448,0.0022959010675549507,0.03842147812247276
1772614481783738400,5.98373828125,-0.017954174429178238,0.00403787475079298,0.031989410519599915
1772614481793805300,5.993805419921875,-0.020329052582383156,0.013172319158911705,0.023733459413051605
1772614481803872300,6.003872314453125,-0.01240881159901619,0.006618279963731766,0.009787818416953087
1772614481813939500,6.013939453125,-0.0018353168852627277,-0.0158903319388628,-0.005136003252118826
1772614481824005400,6.02400537109375,-0.006608234252780676,-0.027898525819182396,-0.013789945282042027
1772614481834072300,6.034072265625,-0.01904279924929142,-0.03105010837316513,-0.017344465479254723
1772614481844139300,6.04413916015625,-0.014196823351085186,-0.026289019733667374,-0.018253499642014503
1772614481854206200,6.054206298828125,-0.016467822715640068,-0.023512881249189377,-0.014904117211699486
1772614481864273400,6.0642734375,-0.020712368190288544,0.0018886158941313624,-0.0056259301491081715
1772614481874340400,6.07434033203125,-0.016262294724583626,0.017734326422214508,-0.005671813152730465
1772614481884407600,6.084407470703125,-0.011272596195340157,0.01329483650624752,-0.009087583050131798
1772614481894474500,6.094474609375,-0.007569754496216774,0.010385340079665184,-0.012878400273621082
1772614481904541400,6.10454150390625,-0.012437213212251663,0.014871700666844845,-0.010627763345837593
1772614481914608400,6.1146083984375,-0.01457609236240387,0.013749958947300911,0.0020281653851270676
1772614481924675600,6.124675537109375,-0.016792908310890198,0.008591948077082634,0.0284576416015625
1772614481934742500,6.134742431640625,-0.02168193832039833,0.013755018822848797,0.05545783415436745
1772614481944809500,6.1448095703125,-0.018888548016548157,0.02763594686985016,0.08809087425470352
1772614481954876400,6.15487646484375,-0.01701277494430542,0.03271939978003502,0.1067921444773674
1772614481964943400,6.164943359375,-0.01039561815559864,0.033710628747940063,0.11655209958553314
1772614481975010300,6.17501025390625,-0.009442617185413837,0.03249243646860123,0.1218997985124588
1772614481985076500,6.185076416015625,-0.00885672215372324,0.03948989510536194,0.12172509729862213
1772614481995143400,6.195143310546875,-0.015077576041221619,0.04111167788505554,0.10581551492214203
1772614482005210400,6.20521044921875,-0.01405705139040947,0.034868963062763214,0.08367478847503662
1772614482015277300,6.21527734375,-0.012525355443358421,0.02681371197104454,0.06554426997900009
1772614482025344300,6.22534423828125,-0.019276203587651253,0.00134856509976089,0.03189443051815033
1772614482035411500,6.235411376953125,-0.02025490626692772,-0.030484870076179504,0.003995461389422417
1772614482045478400,6.245478515625,-0.009259779006242752,-0.048953358083963394,-0.010770434513688087
1772614482055545300,6.25554541015625,0.007454088889062405,-0.04472485929727554,-0.00926080159842968
1772614482065612300,6.2656123046875,0.02352733165025711,-0.045345909893512726,0.0066486564464867115
1772614482075679500,6.275679443359375,0.012927505187690258,-0.029863465577363968,0.021995823830366135
1772614482085746700,6.28574658203125,-0.005298902280628681,-0.013391281478106976,0.03211343660950661
1772614482095813600,6.295813720703125,-0.015923835337162018,-0.027315562590956688,0.03888542577624321
1772614482105880800,6.305880859375,-0.026852915063500404,-0.04393528401851654,0.0383908785879612
1772614482115947800,6.31594775390625,-0.029290033504366875,-0.05094016715884209,0.02120785415172577
1772614482126014700,6.3260146484375,-0.025325385853648186,-0.05878238007426262,-0.008289317600429058
1772614482136081700,6.33608154296875,-0.019847622141242027,-0.05941329896450043,-0.044326093047857285
1772614482146147800,6.34614794921875,-0.021269749850034714,-0.0515548437833786,-0.06280949711799622
1772614482156214800,6.35621484375,-0.0160079225897789,-0.035686641931533813,-0.06840023398399353
1772614482166281700,6.36628173828125,-0.009433643892407417,-0.03018162213265896,-0.06650539487600327
1772614482176348700,6.3763486328125,-0.003802841529250145,-0.016841288655996323,-0.06418991088867188
1772614482186415600,6.38641552734375,-0.007116879336535931,-0.006745778024196625,-0.06309454888105392
1772614482196482600,6.396482666015625,-0.019792616367340088,-0.02288052812218666,-0.06263966113328934
1772614482206549800,6.4065498046875,-0.038610246032476425,-0.034101489931344986,-0.05453326925635338
1772614482216616700,6.41661669921875,-0.04972045496106148,-0.016895920038223267,-0.04544646665453911
1772614482226683600,6.42668359375,-0.0400041788816452,-0.004860297776758671,-0.03837577626109123
1772614482236750600,6.43675048828125,-0.024369094520807266,0.00036579021252691746,-0.027321867644786835
1772614482246817500,6.446817626953125,-0.012965704314410686,0.006874023005366325,-0.01707242615520954
1772614482256884500,6.456884521484375,-0.007211628369987011,0.004710843786597252,-0.012072336860001087
1772614482266951700,6.46695166015625,-0.010387448593974113,-0.005521020852029324,-0.0027749757282435894
1772614482277018600,6.4770185546875,-0.020697344094514847,0.0015749717131257057,0.00218462897464633
1772614482287085800,6.4870859375,-0.01915031298995018,0.02131538838148117,0.000009625335223972797
1772614482297151500,6.4971513671875,-0.013075401075184345,0.02921253815293312,-0.008517419919371605
1772614482307218400,6.507218505859375,-0.009972818195819855,0.019740473479032516,-0.012972088530659676
1772614482317285600,6.51728564453125,-0.006769451312720776,0.01981225423514843,-0.010936308652162552
1772614482327352800,6.527352783203125,0.0045971861109137535,0.014318684116005898,-0.013546472415328026
1772614482337419800,6.537419677734375,0.009259739890694618,-0.005751175340265036,-0.017037633806467056
1772614482347486700,6.54748681640625,-0.0003303032135590911,-0.024643639102578163,-0.015662644058465958
1772614482357553700,6.5575537109375,-0.007065583020448685,-0.020734179764986038,-0.013979180715978146
1772614482367620600,6.56762060546875,-0.004681787919253111,-0.006573353428393602,-0.01747111789882183
1772614482377687800,6.577687744140625,-0.0024632562417536974,0.007662714459002018,-0.019639939069747925
1772614482387754800,6.587754638671875,0.00047261256258934736,0.022428611293435097,-0.015958385542035103
1772614482397821700,6.59782177734375,0.0032245181500911713,0.01660078577697277,-0.003470787312835455
1772614482407888600,6.607888671875,0.003919603303074837,0.004144115839153528,0.0036776699125766754
1772614482417955600,6.61795556640625,0.0019230315228924155,-0.01315924059599638,0.0036100256256759167
1772614482428022500,6.6280224609375,-0.0029058121144771576,-0.030480705201625824,-0.009899391792714596
1772614482438089700,6.63808984375,0.006468111649155617,-0.03306896239519119,-0.021317314356565475
1772614482448156700,6.64815673828125,0.008149631321430206,-0.028223609551787376,-0.025957604870200157
1772614482458223600,6.6582236328125,0.006692226976156235,-0.02816409431397915,-0.013391794636845589
1772614482468289500,6.66828955078125,-0.0008343988447450101,-0.01195742841809988,0.006951559334993362
1772614482478356500,6.6783564453125,-0.005622820928692818,0.005139563232660294,0.023598937317728996
1772614482488423700,6.688423583984375,-0.0038179964758455753,0.029686717316508293,0.024067120626568794
1772614482498490600,6.69849072265625,0.004416102543473244,0.0403965525329113,0.011936039663851261
1772614482508557600,6.7085576171875,0.010568537749350071,0.030622217804193497,-0.0024769885931164026
1772614482518624500,6.71862451171875,0.015150007791817188,0.017424706369638443,-0.003875243477523327
1772614482528691700,6.728691650390625,0.011080698110163212,0.0076975105330348015,-0.00441879453137517
1772614482538758700,6.738758544921875,0.008327407762408257,0.008064950816333294,0.0006547562079504132
1772614482548825900,6.748825927734375,0.007608620449900627,0.007670270279049873,0.0006172057474032044
1772614482558892800,6.758892822265625,0.020521672442555428,0.004985179752111435,0.009355681948363781
1772614482568959700,6.768959716796875,0.027529513463377953,-0.0008468765299767256,0.020780909806489944
1772614482579026700,6.779026611328125,0.018782155588269234,-0.0005675414577126503,0.02488807588815689
1772614482589093600,6.78909375,0.0016614918131381273,0.012047053314745426,0.019428595900535583
1772614482599160600,6.79916064453125,-0.005447860807180405,0.025354361161589622,0.012707613408565521
1772614482609227800,6.809227783203125,-0.002205195836722851,0.024407872930169106,0.012326248921453953
1772614482619293700,6.819293701171875,0.0022175428457558155,0.03239301219582558,0.014117890037596226
1772614482629360600,6.829360595703125,0.008984901010990143,0.03134665638208389,0.014052641578018665
1772614482639427600,6.839427490234375,0.011061142198741436,0.012936139479279518,0.011616327799856663
1772614482649494500,6.84949462890625,0.012525881640613079,0.006176769733428955,0.014673901721835136
1772614482659561700,6.859561767578125,0.01143072172999382,0.009294966235756874,0.011991756036877632
1772614482669628700,6.869628662109375,0.018314193934202194,0.0025438524316996336,0.01206845510751009
1772614482679695600,6.879695556640625,0.02506113424897194,-0.0041186874732375145,0.0052083213813602924
1772614482689762600,6.889762451171875,0.022702107205986977,0.008553964085876942,0.002936911303550005
1772614482699829500,6.89982958984375,0.013019445352256298,0.023892143741250038,-0.002287105191498995
1772614482709896400,6.909896484375,0.007563160732388496,0.021061735227704048,-0.005185157060623169
1772614482719963600,6.919963623046875,0.005695802625268698,0.01659911870956421,-0.0008165276376530528
1772614482730030600,6.930030517578125,0.004229732323437929,0.021936360746622086,0.003343063872307539
1772614482740097800,6.940097900390625,0.008836718276143074,0.0189158096909523,0.0004630457842722535
1772614482750164700,6.950164794921875,0.007913666777312756,0.004418892785906792,-0.0024483217857778072
1772614482760231700,6.960231689453125,0.0012475770199671388,-0.0011752441059798002,-0.0011353080626577139
1772614482770298600,6.970298583984375,-0.004376486409455538,0.0032000632490962744,0.006232859566807747
1772614482780364800,6.98036474609375,-0.0023643914610147476,0.01648600399494171,0.005925111472606659
1772614482790431700,6.990431640625,0.004746514838188887,0.027344774454832077,0.01243227906525135
1772614482800498700,7.000498779296875,0.01209610141813755,0.03927597403526306,0.00867060199379921
1772614482810565600,7.010565673828125,0.007394556887447834,0.03626340627670288,0.003064381889998913
1772614482820632600,7.020632568359375,0.002997608855366707,0.032781753689050674,0.002430739812552929
1772614482830699800,7.03069970703125,-0.0007113752653822303,0.019601505249738693,0.003005716484040022
1772614482840766700,7.0407666015625,0.00271727261133492,0.009984318166971207,0.012390906922519207
1772614482850833700,7.050833740234375,0.006102416664361954,0.004687556531280279,0.020354291424155235
1772614482860900600,7.060900634765625,0.01148151233792305,0.004137526266276836,0.01915767416357994
1772614482870967600,7.070967529296875,0.009790937416255474,0.0015492001548409462,0.013086465187370777
1772614482881034500,7.081034423828125,-0.002622306579723954,0.008556034415960312,0.008146402426064014
1772614482891101700,7.091101806640625,-0.005524353124201298,0.01900734379887581,0.005258470308035612
1772614482901168600,7.101168701171875,0.0042616985738277435,0.02370436117053032,-0.0002894265344366431
1772614482911235600,7.111235595703125,0.012325217947363853,0.024323811754584312,-0.0003498803125694394
1772614482921302500,7.121302490234375,0.018526490777730942,0.017531566321849823,-0.007620597258210182
1772614482931369500,7.131369384765625,0.02261950448155403,-0.0004570202436298132,-0.010083754546940327
1772614482941435600,7.141435546875,0.02425776794552803,-0.025603462010622025,-0.0036922087892889977
1772614482951502600,7.151502685546875,0.01571781001985073,-0.020897921174764633,0.005441900808364153
1772614482961569500,7.161569580078125,0.002374996431171894,-0.010766737163066864,0.011717087589204311
1772614482971636700,7.17163671875,-0.010432944633066654,-0.0029085471760481596,0.016274021938443184
1772614482981703700,7.18170361328125,-0.007603198289871216,0.020154358819127083,0.014561762101948261
1772614482991770600,7.1917705078125,0.004338948987424374,0.03608645498752594,0.015770569443702698
1772614483001837800,7.201837890625,0.013211501762270927,0.03746059536933899,0.01160521525889635
1772614483011904800,7.21190478515625,0.008984265848994255,0.04049234092235565,0.003127574920654297
1772614483021971700,7.2219716796875,0.009605444967746735,0.033867526799440384,0.004523451905697584
1772614483032038700,7.23203857421875,0.015193023718893528,0.018637973815202713,0.010766168124973774
1772614483042105600,7.242105712890625,0.01827824115753174,0.006742059253156185,0.018264299258589745
1772614483052172500,7.252172607421875,0.012174542061984539,-0.0012167973909527063,0.017470411956310272
1772614483062239700,7.26223974609375,-0.0015776329673826694,-0.0017130046617239714,0.008311607874929905
1772614483072306200,7.27230615234375,-0.004674622789025307,-0.00460386648774147,-0.0026571534108370543
1772614483082373000,7.282373046875,-0.001789612928405404,-0.006079394370317459,-0.014869572594761848
1772614483092440000,7.292440185546875,0.0024157848674803972,0.005653427913784981,-0.02552914246916771
1772614483102507000,7.302507080078125,0.003212852170690894,0.006953324191272259,-0.033390067517757416
1772614483112573200,7.3125732421875,-0.001383497379720211,-0.002757892245426774,-0.02523839846253395
1772614483122640100,7.32264013671875,-0.003662537317723036,0.00691872276365757,-0.00873138103634119
1772614483132707000,7.33270703125,-0.002011910080909729,0.015201153233647346,0.008880903013050556
1772614483142774000,7.34277392578125,0.0012428427580744028,0.006592899560928345,0.01737023890018463
1772614483152841200,7.35284130859375,-0.00004186597652733326,-0.006428360007703304,0.018602749332785606
1772614483162908200,7.362908203125,-0.0047312453389167786,-0.009820317849516869,0.009447161108255386
1772614483172975400,7.372975341796875,-0.010420023463666439,-0.01139744184911251,-0.0021541013848036528
1772614483183042300,7.383042236328125,-0.008226767182350159,0.003965927287936211,-0.018477730453014374
1772614483193109200,7.393109130859375,-0.00018881389405578375,0.008136970922350883,-0.023830151185393333
1772614483203176200,7.40317626953125,0.007137577049434185,0.0034882058389484882,-0.016995243728160858
1772614483213243100,7.4132431640625,0.0102020762860775,0.006706103682518005,-0.0043982258066535
1772614483223310300,7.423310302734375,0.004642342682927847,0.006999111734330654,0.010035758838057518
1772614483233377300,7.433377197265625,-0.0003513502888381481,0.0010432186536490917,0.011164139956235886
1772614483243444200,7.4434443359375,-0.004368274938315153,-0.005407451651990414,0.003935145679861307
1772614483253511200,7.45351123046875,-0.00809936411678791,-0.009016567841172218,-0.0070434692315757275
1772614483263577300,7.463577392578125,-0.007764328271150589,-0.011913158930838108,-0.016407109797000885
1772614483273644300,7.473644287109375,-0.01213084626942873,-0.0011033883783966303,-0.02017574943602085
1772614483283711200,7.483711181640625,-0.022122563794255257,0.0014603380113840103,-0.028098195791244507
1772614483293778200,7.493778076171875,-0.018815184012055397,0.0051538762636482716,-0.021724985912442207
1772614483303845000,7.50384521484375,-0.01248021051287651,0.027449605986475945,-0.01363055594265461
1772614483313912000,7.513912109375,-0.013303393498063087,0.035392750054597855,-0.0027821697294712067
1772614483323979300,7.523979248046875,-0.014519426971673965,0.015841636806726456,0.008229297585785389
1772614483334046200,7.534046142578125,-0.020171454176306725,-0.0025725248269736767,0.019196193665266037
1772614483344113200,7.544113037109375,-0.022758888080716133,-0.008001093752682209,0.017473338171839714
1772614483354180000,7.55418017578125,-0.01703042723238468,-0.014873646199703217,0.007576233707368374
1772614483364247000,7.5642470703125,-0.003917151130735874,-0.018524909391999245,-0.0012900767615064979
1772614483374314200,7.574314208984375,0.004314146935939789,-0.014332827180624008,-0.004643795546144247
1772614483384381200,7.584381103515625,-0.001569929183460772,-0.00939328782260418,-0.006496700923889875
1772614483394448400,7.594448486328125,-0.00516466423869133,-0.0066891140304505825,-0.004565909039229155
1772614483404515300,7.604515380859375,0.0016584839904680848,-0.010601560585200787,-0.003503219224512577
1772614483414582300,7.614582275390625,0.009897504933178425,-0.009796752594411373,-0.008865494281053543
1772614483424648200,7.624648193359375,0.0058818720281124115,-0.005573652684688568,-0.014766848646104336
1772614483434715400,7.63471533203125,-0.010179385542869568,-0.014710691757500172,-0.014044865034520626
1772614483444782300,7.6447822265625,-0.011659492738544941,-0.021783819422125816,-0.015551837161183357
1772614483454849300,7.654849365234375,-0.00324523588642478,-0.026058459654450417,-0.00909713376313448
1772614483464916200,7.664916259765625,0.00013954692985862494,-0.023923953995108604,-0.007652044761925936
1772614483474983200,7.674983154296875,0.0031345379538834095,-0.020393401384353638,-0.004896738566458225
1772614483485050000,7.685050048828125,0.001406962750479579,-0.020671911537647247,-0.002221229486167431
1772614483495117300,7.695117431640625,0.004490370862185955,-0.02255822718143463,0.0032489034347236156
1772614483505184300,7.705184326171875,0.005036369897425175,-0.01878768391907215,0.008326465263962746
1772614483515251200,7.715251220703125,0.008382631465792656,-0.02226097881793976,0.00916988868266344
1772614483525318100,7.725318115234375,0.013315364718437195,-0.03497045859694481,0.013053442351520061
1772614483535385000,7.735385009765625,0.012042907066643238,-0.03143591433763504,0.012454497627913952
1772614483545452000,7.7454521484375,0.007144657429307699,-0.028434382751584053,0.015090209431946278
1772614483555519200,7.755519287109375,0.0023522991687059402,-0.024356285110116005,0.009534322656691074
1772614483565586200,7.765586181640625,0.002933031413704157,-0.027127984911203384,0.003845563158392906
1772614483575653400,7.7756533203125,0.0018192976713180542,-0.02529493160545826,0.0031161229126155376
1772614483585720300,7.78572021484375,-0.012316572479903698,-0.022341180592775345,-0.004558419343084097
1772614483595786000,7.795785888671875,-0.020383287221193314,-0.025365998968482018,-0.01199156790971756
1772614483605853200,7.805853271484375,-0.023842331022024155,-0.02206987328827381,-0.016650084406137466
1772614483615920400,7.81592041015625,-0.01839004084467888,-0.016302531585097313,-0.012475847266614437
1772614483625987300,7.8259873046875,-0.009610860608518124,-0.015064328908920288,-0.00899768341332674
1772614483636054300,7.83605419921875,0.00011953094508498907,-0.013817969709634781,-0.0020793231669813395
1772614483646121200,7.846121337890625,0.005340570583939552,-0.010864946991205215,0.004403173457831144
1772614483656188200,7.856188232421875,0.00601914431899786,-0.010302220471203327,0.004868161398917437
1772614483666255400,7.86625537109375,0.00818836223334074,-0.006718709133565426,0.0022839498706161976
1772614483676322300,7.876322265625,0.01004698220640421,0.00169954274315387,-0.007607562933117151
1772614483686389200,7.88638916015625,0.011487173847854137,0.004062790423631668,-0.020358767360448837
1772614483696456200,7.896456298828125,0.000351698137819767,0.002089387970045209,-0.025594808161258698
1772614483706523100,7.906523193359375,-0.009425831027328968,0.002719758078455925,-0.03155709058046341
1772614483716590000,7.916590087890625,-0.013010445982217789,0.006405839696526527,-0.032076142728328705
1772614483726657300,7.9266572265625,-0.005477654282003641,0.008927498944103718,-0.020891187712550163
1772614483736724200,7.93672412109375,0.0014992953510954976,0.011004498228430748,-0.009077670983970165
1772614483746791200,7.946791259765625,0.003380948444828391,0.007250841241329908,-0.0006028474308550358
1772614483756857000,7.956857177734375,0.003636878216639161,-0.0003167970571666956,0.0025135837495326996
1772614483766924000,7.966924072265625,0.006247730925679207,-0.0064740367233753204,-0.004025827627629042
1772614483776991200,7.9769912109375,0.015422587282955647,-0.020994123071432114,-0.008910863660275936
1772614483787058200,7.98705810546875,0.02796214073896408,-0.022699374705553055,-0.012730862013995647
1772614483797125000,7.997125,0.025835072621703148,-0.00856864359229803,-0.015141022391617298
1772614483807192000,8.007192138671876,0.018005844205617905,-0.001143050380051136,-0.011375121772289276
1772614483817259300,8.01725927734375,0.002642866689711809,-0.001720423810184002,0.0021516061387956142
1772614483827326200,8.027326171875,-0.01578492671251297,0.0010853761341422796,0.021937023848295212
1772614483837393400,8.037393310546875,-0.019309887662529945,0.00798083283007145,0.036223284900188446
1772614483847460400,8.04746044921875,-0.012440024875104427,0.013129335828125477,0.03338555619120598
1772614483857527300,8.05752734375,-0.007006110157817602,0.01233331672847271,0.024045584723353386
1772614483867594200,8.06759423828125,-0.004027200862765312,0.009866282343864441,0.010024059563875198
1772614483877661200,8.0776611328125,-0.004968628287315369,-0.0035688322968780994,-0.00013270450290292501
1772614483887728000,8.08772802734375,-0.0059188781306147575,-0.005712726153433323,-0.00801902823150158
1772614483897795300,8.09779541015625,-0.006664829328656197,-0.005415784195065498,-0.017577912658452988
1772614483907862300,8.1078623046875,-0.008975474163889885,-0.010090256109833717,-0.02625144273042679
1772614483917928200,8.11792822265625,-0.007348016370087862,-0.0031569823622703552,-0.031046465039253235
1772614483927995100,8.1279951171875,-0.007404002360999584,0.0029440841171890497,-0.023105759173631668
1772614483938062000,8.13806201171875,-0.017485398799180984,-0.0008519857656210661,-0.013053657487034798
1772614483948129300,8.14812939453125,-0.020735275000333786,0.0008463193662464619,-0.0002516403328627348
1772614483958196200,8.1581962890625,-0.019900109618902206,0.007058409042656422,0.0030357656069099903
1772614483968263200,8.16826318359375,-0.010315842926502228,0.0008143235463649035,-0.0014275870053097606
1772614483978330000,8.178330078125,0.0031014285050332546,-0.007350661791861057,-0.010686598718166351
1772614483988397000,8.18839697265625,0.003937463741749525,-0.01106727123260498,-0.021166594699025154
1772614483998464000,8.198464111328125,0.0007576493080705404,-0.007262678351253271,-0.020446743816137314
1772614484008531200,8.20853125,0.003234423929825425,-0.001232700189575553,-0.021660175174474716
1772614484018598100,8.21859814453125,0.00587388314306736,0.004292293917387724,-0.015192421153187752
1772614484028665300,8.228665283203124,0.013974698260426521,0.006633003242313862,-0.006709613371640444
1772614484038732300,8.238732177734375,0.0160056259483099,0.010850651189684868,-0.001736160134896636
1772614484048799200,8.24879931640625,0.007791278883814812,0.010734252631664276,0.0012511591194197536
1772614484058866200,8.2588662109375,-0.001162534928880632,0.006587976589798927,0.0008636693237349391
1772614484068933400,8.268933349609375,-0.008160632103681564,0.004645924083888531,0.0012244799872860312
1772614484079000300,8.279000244140626,-0.012155107222497463,-0.00013737985864281654,-0.002149745123460889
1772614484089066200,8.289066162109375,-0.0054826801642775536,0.008298841305077076,-0.004907230380922556
1772614484099133200,8.29913330078125,0.004046643152832985,0.013272027485072613,-0.009270819835364819
1772614484109200100,8.3092001953125,0.004015691578388214,0.005722262896597385,-0.0095939040184021
1772614484119267300,8.319267333984374,0.007327865343540907,0.004719316493719816,-0.0007242461433634162
1772614484129334300,8.329334228515625,0.0063383206725120544,0.001948122400790453,0.010461712256073952
1772614484139401500,8.3394013671875,0.0008301044581457973,-0.0006452638190239668,0.02037799172103405
1772614484149468400,8.349468505859376,-0.007390244398266077,0.00803941860795021,0.023489568382501602
1772614484159535400,8.359535400390625,-0.006602747831493616,0.0026273427065461874,0.022889558225870132
1772614484169602300,8.369602294921876,-0.00035526149440556765,-0.003066415898501873,0.02264493890106678
1772614484179669500,8.37966943359375,0.004977452103048563,-0.005765796173363924,0.02673608623445034
1772614484189736400,8.389736328125,0.005970461294054985,-0.00930342823266983,0.031267277896404266
1772614484199803400,8.399803466796875,0.011384401470422745,-0.015308589674532413,0.029675772413611412
1772614484209870300,8.409870361328124,0.01045619510114193,-0.006676505785435438,0.028698982670903206
1772614484219937300,8.419937255859375,0.011417063884437084,0.00007753726094961166,0.02726566791534424
1772614484230004200,8.430004150390625,0.014779236167669296,-0.013918271288275719,0.02010728232562542
1772614484240071400,8.440071533203126,0.013531278818845749,-0.027144329622387886,0.01339611504226923
1772614484250137300,8.450137451171875,0.013929076492786407,-0.034258127212524414,0.0071562184020876884
1772614484260204300,8.460204345703126,0.012251285836100578,-0.03869122639298439,-0.002369376365095377
1772614484270271200,8.470271240234375,0.012402888387441635,-0.023663174360990524,-0.00596110662445426
1772614484280338200,8.480338134765624,0.00891840923577547,-0.015521890483796597,-0.008796040900051594
1772614484290405400,8.4904052734375,0.014299857430160046,-0.017837509512901306,0.00007867650128901005
1772614484300472300,8.500472412109374,0.011430302634835243,-0.008253325708210468,0.0321282222867012
1772614484310539300,8.510539306640625,0.011595598421990871,0.017590899020433426,0.1275120973587036
1772614484320606200,8.520606201171875,0.004271373152732849,-0.020280582830309868,0.15191064774990082
1772614484330673200,8.530673095703126,-0.008919005282223225,-0.02314014732837677,0.09973687678575516
1772614484340740000,8.540739990234375,-0.0005529516492970288,-0.006534806452691555,0.040881555527448654
1772614484350807600,8.5508076171875,0.016500161960721016,-0.02807549759745598,-0.006308649200946093
1772614484360874500,8.56087451171875,0.02247256599366665,-0.05431802198290825,-0.04959007725119591
1772614484370941400,8.57094140625,0.019259359687566757,-0.05301908031105995,-0.06374315917491913
1772614484381008400,8.58100830078125,0.009370509535074234,-0.04606663063168526,-0.06201263517141342
1772614484391075300,8.591075439453125,0.012147432193160057,-0.03542925789952278,-0.05853993445634842
1772614484401142300,8.601142333984376,0.013423086144030094,-0.02909519337117672,-0.06406040489673615
1772614484411208400,8.61120849609375,0.015336033888161182,-0.023671932518482208,-0.07148689776659012
1772614484421275400,8.621275390625,0.008916880004107952,-0.026050066575407982,-0.08540791273117065
1772614484431342300,8.63134228515625,0.0013568953145295382,-0.039497263729572296,-0.09531974792480469
1772614484441409300,8.6414091796875,-0.0041662342846393585,-0.04182460159063339,-0.08279117196798325
1772614484451476200,8.651476318359375,-0.006651609670370817,-0.03846802935004234,-0.04041685909032822
